host_epoch_s,host_elapsed_s,time_ms,ax,ay,az,gx,gy,gz,acc_mag,gyro_mag,pulse_count,edge_count,rise_count,fall_count,state,pulse_rate_hz,last_edge_dt_ms,label
1780590739.8942416,0.03295579999394249,380497,0.091797,-0.078125,1.026611,2.603053,2.847328,-2.290076,1.033664,4.486381,6746,11597,4850,6746,0,51.383,1,load
1780590739.9247594,0.06347369999275543,380528,0.093994,0.009766,1.056152,1.419847,5.816794,0.740458,1.060372,6.033186,6747,11599,4851,6747,0,51.383,8,load
1780590739.9548712,0.093585599999642,380558,0.049805,-0.033936,1.094727,0.473282,1.290076,0.282443,1.096384,1.402878,6748,11602,4853,6748,1,51.383,14,load
1780590739.986586,0.12530050000350457,380590,0.068848,-0.038818,1.033447,3.053435,3.175573,-1.78626,1.036465,4.753783,6750,11605,4854,6750,0,51.383,9,load
1780590740.0184078,0.15712220000568777,380621,0.072998,0.025391,1.064453,1.40458,5.282442,0.740458,1.067255,5.515916,6751,11607,4855,6751,0,51.383,9,load
1780590740.0482805,0.18699479999486357,380652,0.056641,-0.049316,1.101318,0.709924,0.534351,0.083969,1.103876,0.89251,6752,11610,4857,6752,1,51.383,15,load
1780590740.078497,0.21721119999710936,380683,0.049072,-0.058594,1.015869,3.274809,3.21374,-1.763359,1.01874,4.915479,6754,11613,4858,6754,0,51.383,9,load
1780590740.110463,0.24917710000590887,380713,0.059326,0.0271,1.056641,1.381679,5.053436,0.236641,1.058652,5.244258,6755,11615,4859,6755,0,51.383,9,load
1780590740.1402736,0.27898780000396073,380744,0.062012,-0.052734,1.094971,-0.061069,1.19084,0.236641,1.097992,1.215659,6756,11618,4861,6756,1,51.383,15,load
1780590740.1721687,0.31088309999904595,380775,0.072754,-0.075684,1.014648,2.954198,2.610687,-1.816794,1.020065,4.340935,6758,11621,4862,6758,0,43.165,9,load
1780590740.2021143,0.34082860000489745,380806,0.078369,0.010742,1.048828,1.08397,5.625954,-0.312977,1.051807,5.73797,6759,11623,4863,6759,0,43.165,9,load
1780590740.2337003,0.3724145000014687,380837,0.045898,-0.020752,1.100342,0.320611,0.80916,-0.221374,1.101494,0.898075,6760,11626,4865,6760,1,43.165,14,load
1780590740.2649121,0.40362650000315625,380868,0.070557,-0.055908,1.022217,2.862595,2.541985,-2.083969,1.026173,4.358792,6762,11629,4866,6762,0,43.165,9,load
1780590740.295251,0.43396510000457056,380899,0.034668,0.024414,1.050293,1.603053,5.473282,0.053435,1.051148,5.70346,6763,11631,4867,6763,0,43.165,9,load
1780590740.3275275,0.4662417999934405,380930,0.045654,-0.04248,1.093262,0.648855,1.435114,0.427481,1.095039,1.631964,6764,11634,4869,6764,1,43.165,15,load
1780590740.3571694,0.4958838000020478,380961,0.078857,-0.09375,1.03418,2.641221,2.633588,-2.458015,1.04141,4.466954,6766,11637,4870,6766,0,43.165,9,load
1780590740.389724,0.5284383999969577,380992,0.071533,0.018799,1.051025,1.648855,5.641222,0.793893,1.053624,5.93063,6767,11639,4871,6767,0,43.165,9,load
1780590740.419896,0.5586101999942912,381023,0.070801,-0.052734,1.10498,0.59542,0.778626,-0.244275,1.108501,1.010175,6768,11642,4873,6768,1,43.165,14,load
1780590740.4512007,0.5899151000048732,381054,0.071777,-0.047119,1.023438,3.290076,3.091603,-1.725191,1.027033,4.833104,6770,11645,4874,6770,0,43.011,9,load
1780590740.4808702,0.6195846000046004,381085,0.066406,0.01709,1.066894,1.358779,5.29771,0.389313,1.069096,5.483026,6771,11647,4875,6771,0,43.011,9,load
1780590740.5127113,0.6514254999929108,381115,0.027588,-0.012207,1.089111,0.412214,1.328244,0.343511,1.089529,1.432534,6772,11650,4877,6772,1,43.011,14,load
1780590740.5431776,0.6818918000062695,381146,0.06543,-0.055664,1.006592,3.312977,2.603053,-1.725191,1.010251,4.5528,6774,11653,4878,6774,0,43.011,9,load
1780590740.5736492,0.7123635000025388,381177,0.089111,-0.000488,1.05835,1.21374,4.801526,-0.091603,1.062095,4.953404,6775,11655,4879,6775,0,43.011,9,load
1780590740.6050613,0.7437754999991739,381208,0.058105,-0.023193,1.098877,0.572519,1.236641,-0.236641,1.100656,1.383134,6776,11658,4881,6776,1,43.011,15,load
1780590740.636159,0.7748733000044012,381239,0.062744,-0.080566,1.02832,2.977099,3.114504,-2.183206,1.033378,4.830077,6778,11661,4882,6778,0,43.011,9,load
1780590740.6670163,0.8057304999965709,381270,0.054199,0.012207,1.047607,1.022901,5.519084,-0.229008,1.04908,5.617745,6779,11663,4883,6779,0,43.011,10,load
1780590740.6967866,0.8355009999941103,381301,0.048096,-0.013428,1.09375,0.618321,1.167939,0.183206,1.094889,1.334154,6780,11666,4885,6780,1,43.011,15,load
1780590740.7293751,0.868089499999769,381332,0.063477,-0.077881,1.019043,2.465649,2.709924,-2.328244,1.023984,4.340948,6782,11669,4886,6782,0,43.165,9,load
1780590740.7597308,0.8984452000004239,381363,0.056885,0.035156,1.063232,1.236641,5.282442,-0.045802,1.065333,5.425456,6783,11671,4887,6783,0,43.165,9,load
1780590740.791263,0.9299773999955505,381394,0.039795,-0.031738,1.092773,0.312977,1.206107,-0.19084,1.093958,1.260583,6784,11674,4889,6784,1,43.165,15,load
1780590740.8216784,0.9603927999996813,381425,0.052979,-0.056641,1.018066,2.725191,2.572519,-2.465649,1.021016,4.485972,6786,11677,4890,6786,0,43.165,8,load
1780590740.851952,0.9906664000009187,381456,0.077881,0.002197,1.069092,1.465649,5.145038,0.778626,1.071927,5.40609,6787,11679,4891,6787,0,43.165,9,load
1780590740.883955,1.0226691999996547,381487,0.065918,-0.040039,1.101318,0.70229,0.923664,-0.221374,1.104016,1.181259,6788,11682,4893,6788,1,43.165,14,load
1780590740.915646,1.0543602999969153,381518,0.07959,-0.051758,1.037842,3.083969,2.961832,-1.885496,1.042175,4.673158,6790,11685,4894,6790,0,43.165,9,load
1780590740.9457214,1.0844358000031207,381549,0.051025,0.032227,1.045654,1.908397,4.847328,0.778626,1.047394,5.267336,6791,11687,4895,6791,0,43.165,9,load
1780590740.97764,1.1163543000002392,381580,0.04834,-0.035889,1.091553,1.091603,1.175572,0.152672,1.093212,1.611483,6792,11690,4897,6792,1,43.165,14,load
1780590741.0085456,1.1472599999979138,381611,0.063965,-0.057373,1.020752,2.969466,2.832061,-1.564886,1.024362,4.391715,6794,11693,4898,6794,0,43.011,9,load
1780590741.0390356,1.1777498000010382,381642,0.059082,0.023193,1.063965,1.832061,5.015268,0.717557,1.065856,5.387416,6795,11695,4899,6795,0,43.011,8,load
1780590741.0701199,1.2088341000053333,381673,0.038574,-0.014893,1.087158,0.78626,1.580153,-0.748092,1.087944,1.916958,6796,11698,4901,6796,1,43.011,14,load
1780590741.1001866,1.2389008000027388,381704,0.070068,-0.054199,1.031494,2.519084,3.122137,-2.290076,1.035291,4.619304,6798,11701,4902,6798,0,43.011,10,load
1780590741.1319413,1.270655700005591,381735,0.079102,0.01416,1.063721,0.938931,5.038168,-0.198473,1.066752,5.128754,6799,11703,4903,6799,0,43.011,8,load
1780590741.164671,1.3033851999934996,381766,0.070801,-0.048584,1.079346,0.045802,0.664122,-1.51145,1.082756,1.651556,6800,11706,4905,6800,1,43.011,15,load
1780590741.2072196,1.3459337999956915,381798,0.069824,-0.025391,1.015137,2.099237,3.59542,-2.267176,1.017852,4.740668,6802,11709,4906,6802,0,43.011,9,load
1780590741.224703,1.3634174000035273,381829,0.07373,-0.00293,1.075928,1.198473,5.480916,0.770992,1.078455,5.663144,6803,11711,4907,6803,0,43.011,8,load
1780590741.258359,1.3970733000023756,381860,0.049316,-0.036133,1.071777,2.038168,1.08397,-0.335878,1.07352,2.332795,6804,11714,4909,6804,1,43.011,14,load
1780590741.2887754,1.4274898000003304,381891,0.082275,-0.014893,1.02417,3.221374,3.526718,-1.832061,1.027577,5.115802,6806,11717,4910,6806,0,42.857,8,load
1780590741.3185592,1.4572733999957563,381922,0.07959,0.006348,1.074219,0.885496,4.236642,0.625954,1.077182,4.37322,6807,11719,4911,6807,0,42.857,8,load
1780590741.349187,1.487901200001943,381952,0.031738,-0.042725,1.100586,0.900763,0.648855,-0.946565,1.101872,1.458894,6808,11722,4913,6808,1,42.857,14,load
1780590741.3798175,1.5185318000003463,381983,0.100586,-0.062256,1.041748,2.763359,2.977099,-2.480916,1.048443,4.759644,6810,11725,4914,6810,0,42.857,8,load
1780590741.4111285,1.5498428999999305,382014,0.059814,0.01709,1.059326,0.877863,4.908397,0.122137,1.061151,4.987777,6811,11727,4915,6811,0,42.857,8,load
1780590741.4422357,1.580950000003213,382045,0.05835,-0.050537,1.08667,1.427481,0.78626,-0.633588,1.089408,1.748525,6812,11730,4917,6812,1,42.857,15,load
1780590741.474162,1.6128765000030398,382077,0.074707,-0.024658,1.022705,2.503817,4.335878,-1.847328,1.025726,5.336812,6814,11733,4918,6814,0,42.857,8,load
1780590741.5048883,1.643602700001793,382108,0.032715,-0.014648,1.063965,0.038168,3.954198,0.015267,1.064568,3.954412,6815,11735,4919,6815,0,42.857,7,load
1780590741.5359766,1.6746909999928903,382139,0.076904,-0.04541,1.054199,2.473282,1.022901,-1.183206,1.057976,2.926334,6817,11738,4920,6817,1,42.857,13,load
1780590741.568171,1.7068853999953717,382171,0.075439,-0.006348,1.043457,2.251908,4.687022,-1.694656,1.0462,5.469107,6819,11741,4921,6819,0,46.429,9,load
1780590741.5999033,1.7386175999999978,382202,0.056152,-0.031494,1.06958,-0.099237,2.343511,0.114504,1.071516,2.348405,6820,11744,4923,6820,1,46.429,15,load
1780590741.6323154,1.771029700001236,382235,0.070068,-0.055176,1.035644,2.816794,1.671756,-1.755725,1.039478,3.716405,6831,11756,4924,6831,0,46.429,1,load
1780590741.6636665,1.8023806999990484,382266,0.075439,0.013184,1.054932,1.564886,5.442748,-0.320611,1.057708,5.672316,6832,11758,4925,6832,0,46.429,9,load
1780590741.6942465,1.832960900006583,382297,0.067139,-0.036377,1.086914,0.862595,1.778626,-0.007634,1.089593,1.976775,6833,11761,4927,6833,1,46.429,14,load
1780590741.7248945,1.8636088000057498,382328,0.074951,-0.05127,1.035644,2.916031,3.145038,-1.709924,1.039618,4.617179,6835,11764,4928,6835,0,46.429,9,load
1780590741.7570312,1.8957455000054324,382359,0.070801,0.030518,1.050049,1.778626,5.465648,0.152672,1.052875,5.749794,6836,11766,4929,6836,0,46.429,9,load
1780590741.7872093,1.92592350000632,382390,0.064453,-0.052979,1.075684,1.007634,1.740458,0.335878,1.078914,2.038954,6837,11769,4931,6837,1,46.429,15,load
1780590741.8178558,1.9565701999963494,382421,0.080322,-0.059814,1.027344,3.061069,2.877863,-1.969466,1.032213,4.640154,6839,11772,4932,6839,0,80.0,9,load
1780590741.8493195,1.9880336999922292,382452,0.042969,0.030273,1.060059,1.770992,5.290076,0.549618,1.061361,5.605658,6840,11774,4933,6840,0,80.0,9,load
1780590741.8796198,2.0183341999945696,382483,0.043457,-0.04541,1.091309,1.351145,2.167939,0.251908,1.093117,2.566907,6841,11777,4935,6841,1,80.0,14,load
1780590741.9107993,2.049513499994646,382514,0.031494,-0.036377,1.016357,2.694656,3.519084,-2.083969,1.017496,4.89776,6843,11780,4936,6843,0,80.0,9,load
1780590741.9410448,2.079759100000956,382545,0.069092,0.006348,1.05542,1.40458,5.961832,0.335878,1.057698,6.134256,6844,11782,4937,6844,0,80.0,9,load
1780590741.9724097,2.1111240000027465,382575,0.0354,-0.0271,1.065674,0.923664,4.061068,1.08397,1.066606,4.303536,6845,11785,4939,6845,1,80.0,14,load
1780590742.0022676,2.140981799995643,382606,0.06665,-0.068359,1.035156,2.450382,4.503816,-1.694656,1.03955,5.400055,6847,11788,4940,6847,0,80.0,9,load
1780590742.0331762,2.171890400000848,382637,0.052734,0.013184,1.044678,1.137405,6.19084,-1.412214,1.046091,6.450932,6848,11790,4941,6848,0,80.0,8,load
1780590742.063698,2.202412300001015,382668,0.028076,-0.012451,1.051758,1.496183,8.78626,1.022901,1.052206,8.971246,6849,11793,4943,6849,1,80.0,14,load
1780590742.0951636,2.2338779999990948,382698,0.083496,0.044434,1.048828,0.793893,3.129771,-4.78626,1.053084,5.773562,6851,11796,4944,6851,0,43.321,9,load
1780590742.1257799,2.2644941000035033,382729,0.041992,0.006592,1.064941,0.839695,2.854962,-0.633588,1.065789,3.042586,6852,11798,4945,6852,0,43.321,9,load
1780590742.1568933,2.295607599997311,382760,0.0354,-0.02417,1.049561,0.633588,2.564885,-0.396947,1.050435,2.671636,6853,11801,4947,6853,1,43.321,14,load
1780590742.1887262,2.3274405999982264,382792,0.062012,-0.057861,1.042236,4.358778,3.938931,-0.618321,1.045682,5.907322,6862,11811,4948,6862,0,43.321,0,load
1780590742.218535,2.3572491999948397,382823,0.048828,0.001221,1.054199,0.145038,2.40458,-1.053435,1.05533,2.629214,6863,11813,4949,6863,0,43.321,9,load
1780590742.2503693,2.389083699992625,382852,0.047363,-0.013916,1.053223,0.458015,2.412214,-0.748092,1.054379,2.566748,6864,11816,4951,6864,1,43.321,15,load
1780590742.2818196,2.420534000004409,382884,0.02832,-0.043701,1.065674,3.534351,3.320611,-0.419847,1.066945,4.867686,6866,11819,4952,6866,0,43.321,10,load
1780590742.3119893,2.4507035999995423,382916,0.038574,0.00293,1.041992,0.358779,2.442748,-0.923664,1.04271,2.636076,6867,11821,4953,6867,0,43.321,8,load
1780590742.343453,2.4821671999961836,382947,0.04834,-0.060303,1.070801,0.885496,2.656489,-0.877863,1.073586,2.934566,6868,11824,4955,6868,1,43.321,14,load
1780590742.3764539,2.5151680999988457,382978,0.034912,-0.041016,1.068115,4.38168,3.152672,-0.160305,1.069472,5.400384,6870,11827,4956,6870,0,67.857,10,load
1780590742.4053783,2.544092600001022,383009,0.059082,0.017334,1.046875,0.152672,2.51145,-1.129771,1.048684,2.758092,6871,11829,4957,6871,0,67.857,9,load
1780590742.4375722,2.576286600000458,383040,0.02002,-0.04541,1.059082,0.625954,2.793893,-0.78626,1.060244,2.969152,6872,11832,4959,6872,1,67.857,14,load
1780590742.4673853,2.606099600001471,383071,0.034668,-0.029541,1.06958,3.946565,3.099237,-0.335878,1.070549,5.02926,6874,11835,4960,6874,0,67.857,8,load
1780590742.499308,2.6380225000029895,383102,0.037842,0.02124,1.040039,-0.015267,2.435115,-0.992366,1.040944,2.629602,6875,11837,4961,6875,0,67.857,9,load
1780590742.5300128,2.668727199998102,383133,0.035156,-0.015381,1.080078,0.603053,2.709924,-0.89313,1.08076,2.91634,6876,11840,4963,6876,1,67.857,15,load
1780590742.5613036,2.7000180000031833,383164,0.048096,-0.041504,1.081787,4.21374,3.435115,-0.496183,1.083651,5.459104,6880,11845,4964,6880,0,67.857,9,load
1780590742.5929313,2.731645699997898,383195,0.053711,0.01709,1.056152,0.221374,2.145038,-1.465649,1.057655,2.607359,6881,11847,4965,6881,0,67.857,9,load
1780590742.624009,2.762723299994832,383227,0.039307,-0.064453,1.064453,1.145038,2.977099,-0.908397,1.067127,3.316537,6882,11850,4967,6882,1,67.857,15,load
1780590742.6557631,2.794477499992354,383258,0.04834,-0.022705,1.070801,3.984733,3.221374,-0.198473,1.072132,5.12784,6884,11853,4968,6884,0,50.0,9,load
1780590742.6860073,2.8247216000017943,383289,0.034912,0.023438,1.039307,0.022901,2.938931,-1.282443,1.040157,3.206634,6885,11855,4969,6885,0,50.0,10,load
1780590742.7168252,2.8555395000003045,383320,0.036377,-0.063721,1.074707,0.89313,2.40458,-0.664122,1.077209,2.649669,6886,11858,4971,6886,1,50.0,14,load
1780590742.746091,2.8848051999957534,383350,0.051514,-0.047852,1.076416,4.282442,3.129771,-0.129771,1.07871,5.30581,6888,11861,4972,6888,0,50.0,10,load
1780590742.778757,2.9174712999956682,383381,0.039795,0.03418,1.042725,0.099237,2.328244,-0.564886,1.044043,2.397846,6889,11863,4973,6889,0,50.0,8,load
1780590742.8086665,2.947380900004646,383412,0.06543,-0.025635,1.072754,0.557252,2.358779,-0.923664,1.075053,2.593747,6890,11866,4975,6890,1,50.0,14,load
1780590742.8408353,2.979549700001371,383443,0.043213,-0.042236,1.053955,4.167938,3.312977,-0.442748,1.055686,5.342617,6892,11869,4976,6892,0,50.0,10,load
1780590742.8712554,3.0099695999961114,383475,0.056152,0.013428,1.041016,0.038168,2.610687,-1.129771,1.042615,2.844912,6893,11871,4977,6893,0,50.0,8,load
1780590742.9031,3.0418143999995664,383506,0.037598,-0.050293,1.060547,0.778626,2.664122,-0.870229,1.062404,2.908798,6894,11874,4979,6894,1,50.0,14,load
1780590742.933839,3.07255329999316,383537,0.030273,-0.03833,1.073486,4.076336,3.450382,-0.587786,1.074597,5.372815,6896,11877,4980,6896,0,43.011,9,load
1780590742.9657373,3.104451599996537,383568,0.045166,0.010498,1.036133,-0.442748,2.572519,-1.259542,1.03717,2.898332,6897,11879,4981,6897,0,43.011,9,load
1780590742.995559,3.13427340000635,383599,0.038818,-0.056152,1.071289,1.061069,2.877863,-0.755725,1.073462,3.158968,6898,11882,4983,6898,1,43.011,15,load
1780590743.026597,3.1653113000065787,383630,0.046143,-0.033447,1.072266,4.251908,3.496183,-0.603053,1.073779,5.537662,6900,11885,4984,6900,0,43.011,9,load
1780590743.0580106,3.1967250000016065,383661,0.029053,0.030273,1.039307,0.312977,2.503817,-0.870229,1.040153,2.669148,6901,11887,4985,6901,0,43.011,9,load
1780590743.099196,3.237910199997714,383692,0.053955,-0.033203,1.068115,0.465649,2.534351,-0.732824,1.069992,2.678954,6902,11890,4987,6902,1,43.011,14,load
1780590743.1204827,3.2591969999921275,383723,0.054688,-0.041992,1.072754,4.145038,3.534351,-0.641221,1.074968,5.484902,6904,11893,4988,6904,0,43.011,9,load
1780590743.1529877,3.2917021000030218,383755,0.026855,0.023193,1.033691,-0.244275,2.80916,-1.091603,1.0343,3.023681,6905,11895,4989,6905,0,43.011,8,load
1780590743.1836164,3.322330700000748,383786,0.026855,-0.062988,1.068848,0.519084,2.648855,-0.954198,1.071039,2.862931,6906,11898,4991,6906,1,43.011,14,load
1780590743.2149866,3.353700799998478,383817,0.04834,-0.037354,1.066894,3.900763,3.320611,-0.335878,1.068642,5.133734,6908,11901,4992,6908,0,42.857,9,load
1780590743.2456248,3.3843390999973053,383849,0.041748,0.022949,1.032959,-0.236641,2.480916,-1.366412,1.034057,2.842187,6909,11903,4993,6909,0,42.857,9,load
1780590743.2772317,3.4159458999929484,383880,0.044189,-0.063477,1.078613,1.290076,2.717557,-0.900763,1.081383,3.140189,6910,11906,4995,6910,1,42.857,14,load
1780590743.3084507,3.4471651000058046,383911,0.036377,-0.030518,1.062744,4.129771,3.251908,-0.053435,1.063804,5.256688,6912,11909,4996,6912,0,42.857,9,load
1780590743.3388312,3.4775455000053626,383942,0.020264,0.009277,1.037842,0.038168,2.557252,-1.778626,1.038081,3.115205,6913,11911,4997,6913,0,42.857,9,load
1780590743.3710544,3.509768799995072,383973,0.050049,-0.064209,1.059082,1.08397,2.847328,-0.549618,1.062206,3.09586,6914,11914,4999,6914,1,42.857,14,load
1780590743.401726,3.540440299999318,384004,0.074707,-0.039551,1.06958,4.091603,3.557252,-0.259542,1.072915,5.427948,6916,11917,5000,6916,0,42.857,9,load
1780590743.4331486,3.5718630000046687,384035,0.032959,0.025146,1.043945,-0.206107,2.618321,-1.557252,1.044768,3.053378,6917,11919,5001,6917,0,42.857,9,load
1780590743.4634619,3.60217620000185,384067,0.051025,-0.074951,1.066406,1.938931,3.099237,-0.259542,1.070254,3.664981,6918,11922,5003,6918,1,40.0,15,load
1780590743.49563,3.6343443999940064,384098,0.050781,-0.008301,1.056641,3.183206,3.206107,0.366412,1.057893,4.53279,6920,11925,5004,6920,0,40.0,9,load
1780590743.5259154,3.6646295999962604,384129,0.03833,0.01416,1.034912,-0.389313,2.320611,-2.022901,1.035718,3.103051,6921,11927,5005,6921,0,40.0,9,load
1780590743.5583258,3.6970400999998674,384160,0.052734,-0.058105,1.068359,1.59542,2.549618,-0.633588,1.071237,3.073654,6922,11930,5007,6922,1,40.0,14,load
1780590743.5874648,3.726179100005538,384191,0.040771,-0.011719,1.05957,3.862595,3.450382,0.129771,1.060419,5.18089,6924,11933,5008,6924,0,40.0,9,load
1780590743.6194584,3.7581726999924285,384222,0.030762,0.025391,1.04126,-0.053435,2.343511,-2.045802,1.042023,3.111303,6925,11935,5009,6925,0,40.0,8,load
1780590743.6498468,3.7885609999939334,384253,0.052002,-0.068115,1.061279,1.549618,3.19084,-0.427481,1.064734,3.572886,6926,11938,5011,6926,1,40.0,14,load
1780590743.6811397,3.819854100001976,384284,0.067383,-0.020996,1.064697,4.114504,3.267176,0.198473,1.067034,5.257658,6928,11941,5012,6928,0,40.0,9,load
1780590743.711258,3.8499721999978647,384315,0.033203,0.007813,1.031494,-0.343511,2.625954,-1.282443,1.032058,2.942498,6929,11943,5013,6929,0,40.0,8,load
1780590743.7429879,3.8817022000002908,384345,0.051025,-0.063965,1.067383,0.603053,2.503817,-0.801527,1.070514,2.697261,6930,11946,5015,6930,1,43.165,14,load
1780590743.7736306,3.9123450000042794,384376,0.021484,-0.035156,1.064453,4.27481,3.198473,-0.274809,1.06525,5.346003,6932,11949,5016,6932,0,43.165,10,load
1780590743.8049643,3.943678600000567,384407,0.039307,0.020264,1.047119,-0.160305,2.305344,-1.259542,1.048053,2.631873,6933,11951,5017,6933,0,43.165,9,load
1780590743.8352172,3.973931500004255,384438,0.04126,-0.039795,1.067383,0.839695,2.671756,-0.992366,1.068921,2.971222,6934,11954,5019,6934,1,43.165,14,load
1780590743.8653793,4.004093600000488,384469,0.063721,-0.043457,1.06665,4.038168,3.335878,-0.053435,1.069435,5.238104,6936,11957,5020,6936,0,43.165,9,load
1780590743.8977509,4.036465199998929,384500,0.039062,0.020752,1.039551,0.076336,2.48855,-1.251908,1.040491,2.786751,6937,11959,5021,6937,0,43.165,8,load
1780590743.928005,4.066719299997203,384531,0.045166,-0.045654,1.07251,1.366412,2.580153,-0.687023,1.074431,2.999378,6938,11962,5023,6938,1,43.165,14,load
1780590743.960528,4.099242099997355,384563,0.020508,-0.019043,1.06958,3.496183,3.480916,0.068702,1.069946,4.934044,6940,11965,5024,6940,0,43.165,10,load
1780590743.990796,4.1295103000011295,384594,0.037109,0.012695,1.047607,-0.274809,2.587786,-1.664122,1.048341,3.088925,6941,11967,5025,6941,0,43.165,8,load
1780590744.022902,4.161616299999878,384625,0.061523,-0.068359,1.074463,1.793893,2.740458,-0.305344,1.078392,3.28959,6942,11970,5027,6942,1,42.857,14,load
1780590744.0518887,4.190602899994701,384656,0.061768,-0.02002,1.060791,3.816794,3.0,0.083969,1.062776,4.855406,6944,11973,5028,6944,0,42.857,10,load
1780590744.0828254,4.221539799997117,384686,0.053467,0.019531,1.051025,-0.236641,2.335878,-1.732824,1.052566,2.918048,6945,11975,5029,6945,0,42.857,9,load
1780590744.11437,4.253084500000114,384717,0.045654,-0.072754,1.063232,1.015267,3.015267,-0.473282,1.066696,3.216613,6946,11978,5031,6946,1,42.857,14,load
1780590744.1595275,4.298241900003632,384748,0.041016,-0.02832,1.0625,3.900763,3.419847,-0.549618,1.063668,5.216645,6948,11981,5032,6948,0,42.857,8,load
1780590744.1757858,4.314500099993893,384779,0.037354,0.018066,1.03833,-0.503817,2.29771,-1.19084,1.039159,2.636551,6949,11983,5033,6949,0,42.857,9,load
1780590744.2065854,4.345299799999339,384810,0.046143,-0.047852,1.059326,1.274809,2.770992,-0.648855,1.06141,3.118421,6950,11986,5035,6950,1,42.857,13,load
1780590744.2398286,4.378542899998138,384841,0.023193,-0.025635,1.079102,4.099236,3.045802,-0.534351,1.079655,5.134801,6952,11989,5036,6952,0,42.857,9,load
1780590744.2699735,4.408687799994368,384872,0.040527,0.029053,1.037109,-0.549618,2.557252,-1.473282,1.038307,3.002029,6953,11991,5037,6953,0,42.857,9,load
1780590744.3009386,4.439652999993996,384903,0.047119,-0.043213,1.066406,1.664122,2.587786,-0.603053,1.068321,3.135222,6954,11994,5039,6954,1,43.165,15,load
1780590744.3303838,4.469098200002918,384934,0.054688,-0.038086,1.07251,3.59542,2.961832,-0.549618,1.074578,4.690584,6956,11997,5040,6956,0,43.165,9,load
1780590744.3622744,4.500988700005109,384965,0.036621,0.014893,1.034424,-0.740458,2.900763,-1.496183,1.035179,3.34683,6957,11999,5041,6957,0,43.165,9,load
1780590744.3923018,4.531016099994304,384996,0.052246,-0.047363,1.061768,1.160305,2.610687,-0.78626,1.064107,2.96314,6958,12002,5043,6958,1,43.165,14,load
1780590744.4245725,4.563286899996456,385027,0.058838,-0.047119,1.065186,3.763359,2.870229,-0.610687,1.067849,4.772214,6960,12005,5044,6960,0,43.165,9,load
1780590744.454826,4.593540400004713,385058,0.020508,0.025635,1.038574,-0.419847,2.931298,-1.152672,1.039093,3.177646,6961,12007,5045,6961,0,43.165,9,load
1780590744.4855838,4.62429809999594,385089,0.021973,-0.049805,1.074951,1.625954,2.40458,-0.793893,1.076329,3.009318,6963,12012,5048,6963,1,43.165,14,load
1780590744.5170195,4.655733899999177,385120,0.034912,-0.022461,1.065918,3.625954,3.091603,-0.687023,1.066726,4.814307,6965,12015,5049,6965,0,43.165,10,load
1780590744.5485349,4.687249299997347,385152,0.050293,0.008789,1.043213,-0.480916,2.862595,-1.763359,1.044462,3.396346,6966,12017,5050,6966,0,43.165,9,load
1780590744.579602,4.7183162000001175,385182,0.04834,-0.055664,1.054688,1.244275,2.78626,-0.473282,1.057261,3.087954,6967,12020,5052,6967,1,46.595,15,load
1780590744.610762,4.749476199998753,385213,0.05249,-0.034668,1.064697,3.923664,2.992366,-0.351145,1.066554,4.946988,6969,12023,5053,6969,0,46.595,9,load
1780590744.6414273,4.780141700000968,385244,0.042236,0.031494,1.060547,-0.221374,2.618321,-0.908397,1.061855,2.780251,6970,12025,5054,6970,0,46.595,10,load
1780590744.672353,4.811067400005413,385275,0.053711,-0.05249,1.052978,1.763359,2.572519,-0.603053,1.055653,3.176627,6971,12028,5056,6971,1,46.595,14,load
1780590744.7035143,4.842228599998634,385306,0.034668,-0.030029,1.061035,3.885496,2.89313,-0.267176,1.062026,4.851666,6973,12031,5057,6973,0,46.595,9,load
1780590744.734535,4.873249399999622,385337,0.030273,0.021484,1.041504,-0.458015,2.870229,-1.381679,1.042165,3.218234,6974,12033,5058,6974,0,46.595,8,load
1780590744.7656002,4.904314400002477,385368,0.056885,-0.037109,1.073242,1.862595,2.557252,-0.740458,1.075389,3.249166,6975,12036,5060,6975,1,46.595,14,load
1780590744.7962518,4.934966200002236,385399,0.042236,-0.015869,1.06665,3.312977,2.633588,-0.564886,1.067604,4.269742,6977,12039,5061,6977,0,46.595,10,load
1780590744.8292534,4.967967799995677,385431,0.053955,0.002441,1.066162,-0.244275,2.839695,-1.465649,1.067529,3.204944,6978,12041,5062,6978,0,46.595,8,load
1780590744.8591065,4.997820899996441,385462,0.023682,-0.056885,1.063965,2.053435,2.931298,-0.618321,1.065748,3.632,6979,12044,5064,6979,1,42.857,14,load
1780590744.8905926,5.029307000004337,385493,0.026367,-0.002686,1.057861,2.557252,3.015267,-0.305344,1.058193,3.965427,6981,12047,5065,6981,0,42.857,9,load
1780590744.920976,5.059690299996873,385524,0.052002,0.005371,1.059814,0.061069,2.641221,-1.305344,1.061103,2.946812,6982,12049,5066,6982,0,42.857,9,load
1780590744.9538403,5.092554500006372,385555,0.049316,-0.064453,1.049316,2.381679,2.664122,-0.274809,1.05245,3.584057,6983,12052,5068,6983,1,42.857,14,load
1780590744.9835284,5.12224260000221,385587,0.052979,0.005127,1.057861,2.938931,2.480916,-0.442748,1.059199,3.871471,6985,12055,5069,6985,0,42.857,9,load
1780590745.01579,5.154504399994039,385618,0.033936,0.003662,1.050293,-0.633588,2.625954,-1.717557,1.050847,3.201105,6986,12057,5070,6986,0,42.857,8,load
1780590745.0455685,5.184282699992764,385649,0.04834,-0.062744,1.0625,2.748092,3.381679,-0.198473,1.065448,4.362013,6987,12060,5072,6987,1,42.857,14,load
1780590745.07662,5.21533449999697,385680,0.044434,-0.006104,1.049561,2.862595,2.740458,-0.267176,1.050518,3.971894,6989,12063,5073,6989,0,42.857,10,load
1780590745.1081984,5.246912699993118,385711,0.037354,0.014893,1.062256,-0.198473,2.412214,-1.755725,1.063017,2.990106,6990,12065,5074,6990,0,42.857,9,load
1780590745.1407492,5.27946360000351,385742,0.053711,-0.066162,1.055176,2.366412,3.007634,-0.374046,1.058611,3.845215,6991,12068,5076,6991,1,42.857,14,load
1780590745.1803179,5.319032200000947,385773,0.039062,0.004639,1.046875,2.816794,2.916031,-0.129771,1.047614,4.056402,6993,12071,5077,6993,0,42.857,8,load
1780590745.2010777,5.33979189999809,385804,0.049561,0.002197,1.037842,-0.305344,2.320611,-1.442748,1.039027,2.749544,6994,12073,5078,6994,0,42.857,9,load
1780590745.2327812,5.371495400002459,385835,0.067627,-0.066895,1.06958,2.641221,2.984733,0.022901,1.073802,3.985625,6995,12076,5080,6995,1,42.857,14,load
1780590745.263597,5.402311300000292,385867,0.047119,0.009033,1.052734,1.923664,2.633588,-0.648855,1.053827,3.325249,6997,12079,5081,6997,0,42.857,8,load
1780590745.2955735,5.434287800002494,385898,0.037842,-0.016357,1.058106,-0.541985,2.984733,-2.160305,1.058908,3.72415,6998,12081,5082,6998,0,42.857,9,load
1780590745.32523,5.463944300005096,385929,0.052002,-0.068115,1.046387,2.832061,3.343511,0.312977,1.04989,4.392902,6999,12084,5084,6999,1,42.857,14,load
1780590745.3625484,5.501262699996005,385959,0.048096,-0.007813,1.058838,3.10687,2.748092,-0.343511,1.059958,4.162049,7001,12087,5085,7001,0,42.857,9,load
1780590745.3933518,5.53206610000052,385996,0.053955,-0.060547,1.069092,1.351145,2.78626,-0.587786,1.072163,3.151877,7002,12090,5087,7002,1,43.307,13,load
1780590745.4257119,5.564426299999468,386028,0.041016,-0.032471,1.060059,3.59542,2.78626,-0.442748,1.061349,4.570154,7011,12100,5088,7011,0,43.307,0,load
1780590745.4568424,5.595556700005545,386059,0.043213,0.013672,1.050537,-0.78626,2.992366,-1.687023,1.051514,3.52399,7012,12102,5089,7012,0,43.307,9,load
1780590745.488244,5.626958299995749,386090,0.0354,-0.080566,1.057129,1.694656,2.648855,-0.473282,1.060785,3.179983,7013,12105,5091,7013,1,43.307,13,load
1780590745.5184135,5.657127900005435,386121,0.056885,-0.015137,1.063477,3.274809,2.717557,-0.534351,1.065104,4.288942,7015,12108,5092,7015,0,43.307,9,load
1780590745.5505114,5.689225699999952,386152,0.02832,0.017578,1.042236,-0.541985,3.282443,-1.458015,1.042769,3.632353,7016,12110,5093,7016,0,43.307,9,load
1780590745.5808253,5.719539600002463,386183,0.035889,-0.052979,1.058594,1.679389,2.763359,-0.709924,1.060526,3.310664,7017,12113,5095,7017,1,43.307,14,load
1780590745.6118,5.750514300001669,386214,0.046875,-0.02124,1.065674,3.183206,2.870229,-0.610687,1.066916,4.329428,7019,12116,5096,7019,0,43.307,9,load
1780590745.6432009,5.781915100000333,386245,0.057129,0.010742,1.048584,-0.320611,2.572519,-1.183206,1.050194,2.84967,7020,12118,5097,7020,0,43.307,9,load
1780590745.6741579,5.812872199996491,386276,0.035645,-0.047363,1.055176,0.885496,2.763359,-0.725191,1.05684,2.991013,7021,12121,5099,7021,1,67.857,13,load
1780590745.704752,5.84346619999269,386307,0.041748,-0.020264,1.060791,2.755725,2.656489,-0.664122,1.061806,3.884844,7023,12124,5100,7023,0,67.857,8,load
1780590745.7343538,5.8730681000015466,386338,0.032959,0.002686,1.059082,1.08397,3.21374,-0.984733,1.059598,3.531687,7024,12126,5101,7024,0,67.857,9,load
1780590745.7658474,5.904561799994553,386369,0.049072,-0.03125,1.049805,2.259542,2.526718,-0.870229,1.051415,3.49959,7026,12131,5104,7026,1,67.857,13,load
1780590745.7961583,5.934872700003325,386399,0.030762,-0.020508,1.044678,2.129771,3.061069,-0.679389,1.045332,3.790466,7028,12134,5105,7028,0,67.857,9,load
1780590745.8303833,5.969097599998349,386431,0.031982,-0.018311,1.062256,1.534351,2.961832,-0.954198,1.062895,3.469464,7029,12136,5106,7029,0,67.857,9,load
1780590745.8594441,5.998158500005957,386462,0.035889,-0.027832,1.050049,1.610687,3.175573,-1.015267,1.05103,3.702613,7030,12139,5108,7030,1,67.857,15,load
1780590745.89154,6.030254299999797,386493,0.054199,-0.020752,1.066894,1.641221,3.053435,-0.931298,1.068472,3.589483,7032,12142,5109,7032,0,67.857,9,load
1780590745.9210267,6.05974110000534,386524,0.060547,-0.024658,1.058838,1.29771,2.778626,-1.175572,1.060854,3.284324,7033,12144,5110,7033,0,67.857,9,load
1780590745.9523623,6.091076500000781,386555,0.033203,-0.037354,1.053955,2.21374,3.206107,-0.549618,1.055139,3.934698,7034,12147,5112,7034,1,46.595,14,load
1780590745.9833841,6.122098499996355,386586,0.050293,-0.008057,1.058838,1.541985,2.89313,-1.419847,1.060062,3.572658,7036,12150,5113,7036,0,46.595,9,load
1780590746.0146685,6.1533827999955975,386617,0.045654,-0.018066,1.059326,1.48855,2.824427,-1.312977,1.060463,3.452112,7037,12152,5114,7037,0,46.595,9,load
1780590746.0450993,6.183813499999815,386649,0.049316,-0.034424,1.050781,1.862595,2.740458,-1.0,1.052501,3.461123,7038,12155,5116,7038,1,46.595,15,load
1780590746.078498,6.217212100003962,386680,0.065186,-0.014404,1.052246,1.587786,3.229008,-0.854962,1.054362,3.698448,7040,12158,5117,7040,0,46.595,9,load
1780590746.108402,6.2471163000009255,386711,0.04541,-0.016357,1.05957,1.152672,3.007634,-0.877863,1.060669,3.338436,7041,12160,5118,7041,0,46.595,9,load
1780590746.138738,6.277452299997094,386742,0.04834,-0.041992,1.060791,1.641221,2.816794,-0.961832,1.062722,3.398979,7042,12163,5120,7042,1,46.595,14,load
1780590746.1705816,6.309295800005202,386773,0.050781,-0.012207,1.049072,1.832061,3.267176,-1.259542,1.050372,3.951877,7044,12166,5121,7044,0,46.595,9,load
1780590746.2009242,6.339638399993419,386804,0.03418,-0.009766,1.065918,1.870229,3.038168,-1.847328,1.066511,4.017566,7045,12168,5122,7045,0,46.595,9,load
1780590746.2325058,6.371220200002426,386835,0.009766,0.009033,1.057617,2.709924,0.854962,-2.465649,1.057701,3.76219,7046,12171,5124,7046,1,42.857,16,load
1780590746.2632334,6.401947799997288,386866,0.016113,0.01416,1.072998,1.725191,2.648855,-0.709924,1.073212,3.239862,7047,12173,5125,7047,1,42.857,14,load
1780590746.2954843,6.434198599992669,386898,0.025879,-0.032471,1.061035,1.564886,3.450382,-0.076336,1.061847,3.789436,7049,12176,5126,7049,0,42.857,10,load
1780590746.3256161,6.464330400005565,386929,0.07251,-0.047119,1.056152,1.412214,3.961832,-0.687023,1.059687,4.261744,7050,12178,5127,7050,0,42.857,10,load
1780590746.3583283,6.49704259999271,386960,0.020996,-0.022461,1.053467,1.832061,2.267176,-1.099237,1.053915,3.115262,7051,12181,5129,7051,1,42.857,15,load
1780590746.3891566,6.52787079999689,386992,0.041748,-0.024902,1.056641,1.900763,3.282443,-1.572519,1.057758,4.106111,7060,12192,5131,7060,0,42.857,0,load
1780590746.4209423,6.559656700002961,387023,0.053955,-0.006592,1.057129,1.396947,3.908397,-0.244275,1.058525,4.157727,7061,12194,5132,7061,0,42.857,9,load
1780590746.451518,6.590232300004573,387054,0.028809,-0.043213,1.061035,1.519084,3.343511,-0.78626,1.062305,3.755648,7062,12196,5133,7062,0,42.857,7,load
1780590746.482846,6.621560400002636,387085,0.080322,-0.022461,1.058838,1.679389,4.21374,-0.679389,1.062118,4.586668,7063,12199,5135,7063,1,68.0,16,load
1780590746.5155272,6.654241500000353,387117,0.059082,-0.030029,1.073242,2.793893,2.198473,-1.442748,1.075286,3.836749,7072,12209,5136,7072,0,68.0,0,load
1780590746.5461369,6.6848511999996845,387149,0.068359,-0.028809,1.03418,1.938931,4.259542,-0.175573,1.036837,4.683372,7073,12211,5137,7073,0,68.0,11,load
1780590746.5776043,6.716318699996918,387180,0.074219,0.019531,1.050049,2.114504,4.007634,-0.824427,1.05285,4.605642,7074,12213,5138,7074,0,68.0,11,load
1780590746.6088946,6.747608799996669,387211,0.034912,0.037842,1.042236,0.862595,3.068702,-1.007634,1.043507,3.343102,7075,12215,5139,7075,0,68.0,12,load
1780590746.6410935,6.779807700004312,387243,0.06958,-0.062744,1.057129,2.015267,3.083969,-0.328244,1.061273,3.698636,7083,12224,5140,7083,0,68.0,1,load
1780590746.6714625,6.810176900005899,387274,0.032959,-0.067139,1.061523,1.946565,3.740458,0.679389,1.064155,4.271032,7083,12225,5141,7083,1,68.0,20,load
1780590746.7024262,6.841140599994105,387305,0.011719,-0.02832,1.057129,1.618321,3.641221,1.412214,1.057573,4.227505,7084,12227,5142,7084,1,68.0,15,load
1780590746.7334714,6.872185800006264,387336,0.073975,-0.142334,1.044678,0.267176,4.801526,-0.198473,1.056921,4.813048,7085,12229,5143,7085,1,87.649,20,load
1780590746.7649202,6.903634600006626,387368,0.016602,-0.047852,1.063721,0.351145,3.648855,-1.740458,1.064926,4.05791,7086,12230,5143,7086,0,87.649,14,load
1780590746.7960918,6.934806000004755,387399,0.052734,0.015137,1.056885,0.717557,2.961832,-1.877863,1.058308,3.579624,7087,12232,5144,7087,0,87.649,12,load
1780590746.828446,6.967160300002433,387430,0.040527,-0.11377,1.04126,4.015268,3.099237,-0.923664,1.04824,5.155657,7087,12233,5145,7087,1,87.649,28,load
1780590746.8592253,6.9979395999980625,387462,0.027832,0.12207,1.0625,0.870229,2.389313,-1.832061,1.069851,3.134097,7088,12234,5145,7088,0,87.649,23,load
1780590746.8903334,7.029047799995169,387493,0.037842,-0.131836,1.082031,0.022901,1.961832,-1.564886,1.09069,2.509617,7089,12236,5146,7089,0,87.649,8,load
1780590746.9216583,7.06037269999797,387524,0.031982,0.115723,1.050049,1.244275,3.267176,-0.793893,1.05689,3.585097,7089,12242,5152,7089,1,87.649,0,load
1780590746.9548998,7.093614199999138,387556,0.055908,-0.157227,1.047363,2.19084,3.725191,-0.19084,1.060573,4.325881,7090,12244,5153,7090,1,87.649,21,load
1780590746.984378,7.123092499998165,387588,0.038574,0.127197,1.043945,3.358779,2.312977,-1.122137,1.052373,4.22971,7091,12245,5153,7091,0,23.81,16,load
1780590747.0166314,7.1553456999972695,387619,0.0625,0.144531,1.0354,0.854962,3.931298,-0.778626,1.047306,4.097843,7093,12248,5154,7093,0,23.81,0,load
1780590747.0472426,7.185956899993471,387650,0.059814,0.078369,1.086914,2.465649,3.198473,-0.564886,1.091376,4.077836,7093,12249,5155,7093,1,23.81,29,load
1780590747.092854,7.231568300005165,387682,0.036377,-0.043457,1.091309,2.167939,3.099237,-1.641221,1.092779,4.122964,7094,12250,5155,7094,0,23.81,17,load
1780590747.1116629,7.25037720000546,387714,0.062988,0.120605,1.032227,1.91603,4.137404,-0.290076,1.041156,4.568745,7102,12259,5156,7102,0,23.81,1,load
1780590747.1432493,7.281963600005838,387745,0.033691,-0.061523,1.037109,1.694656,3.290076,-0.259542,1.039479,3.709963,7102,12260,5157,7102,1,23.81,30,load
1780590747.1729443,7.311658599996008,387776,0.047363,0.130615,1.074219,2.473282,3.198473,-0.374046,1.083166,4.060452,7103,12261,5157,7103,0,23.81,17,load
1780590747.205382,7.344096400003764,387807,0.05957,-0.114502,1.060791,0.748092,4.328244,-0.656489,1.068614,4.441206,7103,12262,5158,7103,1,23.81,34,load
1780590747.2351243,7.373838700004853,387838,0.045898,0.026367,1.04541,1.832061,3.496183,-0.519084,1.046749,3.981104,7104,12263,5158,7104,0,52.0,22,load
1780590747.2687461,7.40746040000522,387871,0.052734,-0.092041,1.044189,0.847328,4.229008,-0.167939,1.049564,4.316326,7113,12276,5162,7113,0,52.0,0,load
1780590747.299131,7.4378451999946265,387902,0.054199,0.03125,1.048584,2.885496,2.290076,0.648855,1.050449,3.740528,7113,12276,5162,7113,0,52.0,0,load
1780590747.3319237,7.470637999998871,387934,0.044678,0.023682,1.044189,3.114504,2.870229,-0.51145,1.045413,4.266138,7125,12289,5163,7125,0,52.0,0,load
1780590747.3631852,7.501899599999888,387966,0.050781,0.029053,1.044922,2.167939,2.931298,-0.549618,1.046558,3.687078,7125,12289,5163,7125,0,52.0,0,load
1780590747.3953657,7.534080099998391,387998,0.056641,0.021484,1.040039,2.625954,3.244275,0.19084,1.041802,4.178202,7137,12302,5164,7137,0,52.0,0,load
1780590747.4276192,7.566333499999018,388030,0.04126,-0.008789,1.05957,1.931298,2.320611,0.083969,1.06041,3.020297,7137,12302,5164,7137,0,52.0,0,load
1780590747.4598932,7.598607499996433,388062,0.043945,-0.069824,1.055908,1.198473,3.274809,-0.442748,1.059126,3.515215,7146,12315,5168,7146,0,52.0,0,load
1780590747.4918807,7.630594899994321,388094,0.047852,-0.050781,1.047363,1.137405,3.465649,-0.572519,1.049685,3.69218,7146,12315,5168,7146,0,164.063,0,load
1780590747.5258036,7.6645179000042845,388127,0.043945,-0.080078,1.042236,2.152672,3.030534,0.435114,1.046231,3.742654,7158,12328,5169,7158,0,164.063,0,load
1780590747.5571613,7.695875699995668,388159,0.024902,0.030518,1.05249,1.656489,2.022901,-0.801527,1.053227,2.73469,7158,12328,5169,7158,0,164.063,0,load
1780590747.5884187,7.727132999993046,388191,0.041504,-0.102051,1.060303,0.396947,3.0,-1.038168,1.066011,3.199275,7159,12330,5170,7159,0,164.063,18,load
1780590747.620845,7.759559500002069,388222,0.060547,-0.016846,1.060059,2.732824,2.206107,-0.244275,1.06192,3.52064,7159,12330,5170,7159,0,164.063,18,load
1780590747.651229,7.789943199997651,388254,0.032715,-0.124512,1.055664,1.312977,3.320611,-1.687023,1.063485,3.949229,7160,12332,5171,7160,0,164.063,13,load
1780590747.6821928,7.820907000001171,388285,0.05249,-0.114258,1.073242,0.70229,3.366412,-1.29771,1.080583,3.675594,7160,12333,5172,7160,1,164.063,36,load
1780590747.7137651,7.85247939999681,388316,0.049316,-0.147461,1.037842,-0.290076,3.793893,-0.89313,1.049425,3.908382,7161,12334,5172,7161,0,164.063,19,load
1780590747.7458572,7.884571599992341,388348,0.04541,0.069336,1.068848,2.961832,2.709924,-0.480916,1.072056,4.043194,7161,12335,5173,7161,1,59.055,33,load
1780590747.7766259,7.915340299994568,388379,0.026123,0.013428,1.043945,2.625954,2.755725,-0.343511,1.044358,3.821996,7162,12336,5173,7162,0,59.055,24,load
1780590747.8094187,7.948133099998813,388411,0.033447,-0.055908,1.079834,0.801527,2.923664,-1.618321,1.081798,3.436454,7163,12338,5174,7163,0,59.055,8,load
1780590747.8391094,7.977823699999135,388442,0.042725,0.153564,1.042725,2.587786,3.229008,-0.40458,1.054838,4.157742,7163,12339,5175,7163,1,59.055,30,load
1780590747.8706555,8.00936979999824,388473,0.036377,0.110107,1.050537,2.89313,2.603053,-0.580153,1.056918,3.934802,7164,12340,5175,7164,0,59.055,24,load
1780590747.902756,8.041470399999525,388504,0.042236,-0.154541,1.057617,0.221374,2.992366,-1.541985,1.069683,3.373571,7165,12342,5176,7165,0,59.055,9,load
1780590747.9328275,8.071541700002854,388535,0.060059,-0.14624,1.043457,0.427481,3.900763,-0.908397,1.055365,4.027888,7165,12343,5177,7165,1,59.055,34,load
1780590747.9636848,8.102399099996546,388566,0.044922,-0.13501,1.0625,1.183206,3.381679,-1.541985,1.071985,3.900442,7166,12344,5177,7166,0,59.055,19,load
1780590747.9942334,8.132947599995532,388597,0.054688,0.032715,1.05835,2.656489,3.59542,-0.259542,1.060266,4.477872,7166,12345,5178,7166,1,59.055,37,load
1780590748.025327,8.164041299998644,388628,0.047852,0.077637,1.064697,1.648855,3.412214,-0.679389,1.068596,3.850129,7167,12346,5178,7167,0,21.429,24,load
1780590748.0552204,8.19393459999992,388659,0.05542,0.040771,1.041504,2.534351,3.572519,-0.206107,1.043774,4.38501,7167,12347,5179,7167,1,21.429,36,load
1780590748.0867472,8.225461599999107,388689,0.036133,-0.124512,1.069824,1.21374,3.259542,-1.541985,1.077651,3.804668,7168,12348,5179,7168,0,21.429,26,load
1780590748.1167822,8.255496500001755,388720,0.042969,-0.030029,1.048828,1.740458,2.557252,0.160305,1.050137,3.097488,7168,12349,5180,7168,1,21.429,40,load
1780590748.1488338,8.287548099993728,388751,0.031494,0.067627,1.076904,2.748092,2.664122,-1.19084,1.079485,4.008448,7169,12350,5180,7169,0,21.429,24,load
1780590748.1798646,8.318578999998863,388782,0.044189,0.065674,1.072022,2.343511,2.923664,-1.007634,1.07494,3.880101,7169,12351,5181,7169,1,21.429,48,load
1780590748.2093906,8.348104899996542,388813,0.036621,-0.054688,1.074707,2.335878,2.793893,-1.519084,1.07672,3.945856,7170,12352,5181,7170,0,21.429,25,load
1780590748.2413368,8.380051200001617,388844,0.035156,0.059326,1.060303,2.229008,2.618321,-0.664122,1.062543,3.502162,7170,12352,5181,7170,0,21.429,25,load
1780590748.2718797,8.410594000000856,388875,0.05835,-0.014893,1.03418,2.480916,4.145038,0.267176,1.035932,4.838147,7170,12353,5182,7170,1,21.429,50,load
1780590748.303574,8.442288299993379,388906,0.057373,-0.077393,1.048584,0.480916,3.374046,-0.610687,1.053,3.462428,7171,12354,5182,7171,0,14.388,29,load
1780590748.3361855,8.474899799999548,388938,0.050537,-0.020264,1.045654,1.954198,2.519084,-0.977099,1.047071,3.334576,7171,12355,5183,7171,1,14.388,50,load
1780590748.3667493,8.505463699999382,388969,0.046875,-0.108887,1.077881,1.80916,3.114504,-1.816794,1.08438,4.034097,7172,12356,5183,7172,0,14.388,26,load
1780590748.3980923,8.536806699994486,389001,0.04834,0.029541,1.04541,1.984733,3.335878,-0.351145,1.046944,3.897505,7172,12356,5183,7172,0,14.388,26,load
1780590748.429769,8.568483399998513,389032,0.038086,-0.006104,1.03833,0.29771,3.419847,-1.129771,1.039046,3.613913,7172,12357,5184,7172,1,14.388,54,load
1780590748.461336,8.600050099994405,389063,0.039307,-0.114258,1.071289,2.007634,2.969466,-1.526718,1.078082,3.896048,7173,12358,5184,7173,0,14.388,27,load
1780590748.4926598,8.631374200005666,389095,0.046875,0.055664,1.049805,1.59542,3.740458,0.305344,1.052324,4.077944,7173,12359,5185,7173,1,14.388,54,load
1780590748.525381,8.664095400003134,389127,0.056885,-0.070068,1.047852,0.083969,3.664122,-0.740458,1.051731,3.739133,7174,12360,5185,7174,0,14.388,27,load
1780590748.5557294,8.694443600004888,389158,0.038086,0.050293,1.080566,1.610687,2.984733,-1.625954,1.082406,3.761206,7174,12360,5185,7174,0,11.905,27,load
1780590748.5884132,8.727127599995583,389190,0.053955,0.014404,1.041992,2.923664,2.450382,-0.351145,1.043488,3.83086,7174,12361,5186,7174,1,11.905,54,load
1780590748.61945,8.758164400001988,389221,0.056396,0.091064,1.056396,3.51145,2.374046,-0.648855,1.061813,4.288052,7175,12362,5186,7175,0,11.905,26,load
1780590748.6498616,8.788575900005526,389253,0.043457,-0.07959,1.048096,1.0,3.473282,-1.206107,1.052011,3.8103,7175,12363,5187,7175,1,11.905,46,load
1780590748.6800678,8.818782200003625,389283,0.058838,-0.097656,1.06958,0.412214,2.587786,-1.671756,1.075639,3.108267,7176,12364,5187,7176,0,11.905,20,load
1780590748.7121682,8.850882600003388,389314,0.031494,-0.071533,1.070068,2.396947,2.770992,-1.358779,1.072919,3.907689,7177,12366,5188,7177,0,11.905,13,load
1780590748.7423427,8.881057000005967,389345,0.035645,-0.033447,1.042725,1.679389,3.465649,-0.89313,1.04387,3.953322,7178,12368,5189,7178,0,11.905,10,load
1780590748.7744784,8.913192799998797,389376,0.056152,-0.017822,1.055908,0.59542,2.916031,-0.969466,1.05755,3.130116,7179,12370,5190,7179,0,11.905,9,load
1780590748.8052528,8.943966999999247,389407,0.044434,-0.012451,1.059814,1.519084,3.236641,-0.801527,1.060819,3.664138,7180,12373,5192,7180,1,11.905,14,load
1780590748.8362515,8.974965700006578,389438,0.02124,-0.029053,1.046387,2.061069,2.816794,-0.946565,1.047005,3.616396,7182,12376,5193,7182,0,28.571,9,load
1780590748.8666265,9.005340899995645,389469,0.038818,-0.023438,1.060791,0.832061,2.770992,-0.725191,1.06176,2.982721,7183,12378,5194,7183,0,28.571,8,load
1780590748.897141,9.03585529999691,389500,0.053223,-0.012207,1.053955,0.992366,3.160305,-0.938931,1.055369,3.442951,7184,12381,5196,7184,1,28.571,14,load
1780590748.928789,9.067503099999158,389531,0.053955,-0.021729,1.046875,1.21374,3.022901,-1.038168,1.04849,3.418902,7186,12384,5197,7186,0,28.571,9,load
1780590748.959529,9.098243200001889,389562,0.034668,-0.03833,1.05835,1.358779,2.664122,-0.839695,1.059611,3.10627,7187,12386,5198,7187,0,28.571,9,load
1780590748.991039,9.129753300003358,389594,0.049316,-0.030762,1.061035,2.175573,3.374046,-0.824427,1.062626,4.098412,7188,12389,5200,7188,1,28.571,14,load
1780590749.0225317,9.161246000003302,389625,0.041016,-0.022217,1.045654,0.549618,3.320611,-0.877863,1.046694,3.478387,7190,12392,5201,7190,0,28.571,9,load
1780590749.054,9.192714200005867,389656,0.04834,-0.033691,1.052002,2.21374,2.641221,-0.687023,1.053651,3.514071,7191,12394,5202,7191,1,28.571,8,load
1780590749.08529,9.224004300005618,389688,0.033691,-0.02124,1.054688,2.625954,3.473282,-0.610687,1.055439,4.396847,7197,12406,5208,7197,0,60.0,0,load
1780590749.1168747,9.255588999993051,389719,0.053955,-0.012695,1.056396,0.320611,2.916031,-0.908397,1.05785,3.071028,7198,12408,5209,7198,0,60.0,9,load
1780590749.1471927,9.285906999997678,389750,0.052002,-0.026123,1.052978,2.10687,2.740458,-0.564886,1.054585,3.502586,7199,12411,5211,7199,1,60.0,14,load
1780590749.1901453,9.32885950000491,389781,0.062988,-0.026855,1.065674,1.877863,2.198473,-1.267176,1.067871,3.1568,7201,12414,5212,7201,0,60.0,8,load
1780590749.2089462,9.347660500003258,389812,0.04541,-0.033203,1.046631,0.664122,2.916031,-0.885496,1.048142,3.119038,7202,12416,5213,7202,0,60.0,9,load
1780590749.241629,9.380343099997845,389843,0.041016,-0.016357,1.048096,2.312977,2.48855,-0.977099,1.049025,3.535176,7203,12419,5215,7203,1,60.0,14,load
1780590749.2706363,9.409350600006292,389874,0.051758,-0.006836,1.057861,1.89313,3.198473,-0.496183,1.059149,3.749716,7205,12422,5216,7205,0,60.0,8,load
1780590749.3032837,9.441998099995544,389905,0.04834,-0.026123,1.058838,1.648855,3.015267,-0.740458,1.060263,3.515514,7206,12424,5217,7206,0,60.0,10,load
1780590749.3332188,9.471933099994203,389936,0.067871,-0.0271,1.057861,2.480916,3.015267,-0.801527,1.060383,3.986129,7207,12427,5219,7207,1,60.0,14,load
1780590749.3657832,9.504497500005527,389967,0.05542,-0.035156,1.072998,0.946565,2.961832,-0.664122,1.075003,3.179543,7209,12430,5220,7209,0,43.011,8,load
1780590749.3955162,9.53423049999401,389998,0.045166,-0.043701,1.044922,1.687023,2.763359,-0.725191,1.04681,3.317846,7210,12433,5222,7210,1,43.011,14,load
1780590749.4288146,9.567528999992646,390030,0.048584,-0.028076,1.054932,2.366412,2.572519,-0.70229,1.056423,3.565245,7219,12446,5226,7219,0,43.011,0,load
1780590749.4593961,9.598110399994766,390062,0.052979,-0.023438,1.06665,0.931298,2.580153,-1.145038,1.068222,2.972476,7220,12448,5227,7220,0,43.011,9,load
1780590749.4910343,9.629748499995912,390093,0.043213,-0.024414,1.045166,1.954198,3.473282,-0.725191,1.046344,4.050739,7221,12451,5229,7221,1,43.011,13,load
1780590749.5205164,9.659230799996294,390124,0.040283,0.002441,1.054199,2.145038,2.824427,-0.755725,1.054971,3.626252,7223,12454,5230,7223,0,43.011,9,load
1780590749.5530853,9.691799599997466,390155,0.044922,-0.039307,1.056641,1.450382,2.923664,-0.770992,1.058325,3.353483,7224,12456,5231,7224,0,43.011,9,load
1780590749.5833664,9.722080799998366,390186,0.048584,0.001465,1.053955,2.862595,3.824427,-0.335878,1.055075,4.788894,7225,12459,5233,7225,1,43.011,14,load
1780590749.6141036,9.752817899992806,390217,0.048584,-0.025879,1.060547,0.954198,3.29771,-0.244275,1.061974,3.441665,7227,12462,5234,7227,0,72.0,9,load
1780590749.6447659,9.783480099998997,390247,0.057861,-0.025635,1.05542,1.038168,2.549618,-0.396947,1.057316,2.781351,7228,12464,5235,7228,0,72.0,8,load
1780590749.675006,9.813720199992531,390278,0.05249,-0.015625,1.042236,2.763359,3.59542,-0.801527,1.043674,4.604958,7229,12467,5237,7229,1,72.0,13,load
1780590749.7041595,9.842873699992197,390308,0.039062,0.002441,1.069092,4.0,3.221374,-1.045802,1.069808,5.241274,7231,12470,5238,7231,0,72.0,9,load
1780590749.7354512,9.874165500004892,390337,0.033936,-0.018066,1.076172,1.251908,2.099237,-0.679389,1.076858,2.536856,7232,12472,5239,7232,0,72.0,9,load
1780590749.7650533,9.903767700001481,390368,0.099365,-0.012695,1.015869,2.450382,3.877863,1.564886,1.020796,4.846758,7233,12475,5241,7233,1,72.0,14,load
1780590749.7966373,9.935351499996614,390399,0.026123,-0.01123,1.045654,1.656489,2.274809,-0.328244,1.046041,2.8331,7235,12478,5242,7235,0,72.0,9,load
1780590749.8280635,9.966777900001034,390430,0.055176,-0.017334,1.058106,-0.427481,2.198473,-1.89313,1.059685,2.93257,7236,12481,5244,7236,1,72.0,14,load
1780590749.8607113,9.999425699992571,390463,0.044434,-0.036133,1.056885,4.419848,3.053435,-0.526718,1.058435,5.397772,7245,12491,5245,7245,0,72.0,1,load
1780590749.8932862,10.032000499995775,390495,0.051758,0.016357,1.04834,-0.221374,2.603053,-1.229008,1.049744,2.887101,7246,12493,5246,7246,0,68.345,9,load
1780590749.9235973,10.062311699992279,390526,0.049805,-0.067139,1.051025,1.122137,2.900763,-0.473282,1.054344,3.146048,7247,12496,5248,7247,1,68.345,14,load
1780590749.9546673,10.093381700004102,390557,0.054199,-0.027588,1.055176,3.282443,3.21374,-0.274809,1.056927,4.601964,7249,12499,5249,7249,0,68.345,10,load
1780590749.9854603,10.124174700002186,390588,0.0625,0.005859,1.06665,-0.175573,3.137405,-1.717557,1.068496,3.58108,7250,12501,5250,7250,0,68.345,9,load
1780590750.016113,10.154827299993485,390618,0.049805,-0.060303,1.060059,2.480916,3.068702,-0.206107,1.06294,3.951501,7251,12504,5252,7251,1,68.345,14,load
1780590750.0457969,10.184511100000236,390649,0.054688,-0.016113,1.034668,2.801527,2.70229,0.21374,1.036238,3.898283,7253,12507,5253,7253,0,68.345,9,load
1780590750.0760293,10.21474369999487,390679,0.044189,0.004883,1.058594,-0.290076,2.908397,-1.557252,1.059527,3.31179,7254,12509,5254,7254,0,68.345,8,load
1780590750.107674,10.246388100000331,390710,0.049805,-0.026367,1.054443,3.320611,3.198473,-0.198473,1.055948,4.614768,7255,12512,5256,7255,1,68.345,14,load
1780590750.1387725,10.277486899998621,390741,0.016846,-0.017334,1.033447,1.465649,3.099237,-0.045802,1.03373,3.428628,7257,12515,5257,7257,0,68.345,9,load
1780590750.1701882,10.308902599994326,390772,0.043213,-0.033203,1.025879,-0.480916,2.282443,-1.625954,1.027325,2.843335,7258,12518,5259,7258,1,43.321,14,load
1780590750.2034533,10.342167700000573,390805,0.036865,-0.043945,1.075439,4.984732,2.748092,-0.694656,1.076968,5.734293,7267,12528,5260,7267,0,43.321,1,load
1780590750.2361825,10.374896799999988,390837,0.049805,0.01416,1.050537,-0.679389,2.694656,-1.244275,1.051812,3.044826,7268,12530,5261,7268,0,43.321,9,load
1780590750.264953,10.403667299993685,390868,0.043945,-0.067383,1.054688,1.503817,3.221374,-0.450382,1.057751,3.583512,7269,12533,5263,7269,1,43.321,14,load
1780590750.297098,10.4358121999976,390899,0.05127,-0.021973,1.059814,3.351145,3.0,0.10687,1.061281,4.499066,7271,12536,5264,7271,0,43.321,9,load
1780590750.3265977,10.465312000000267,390930,0.045654,0.001953,1.051758,-0.725191,3.389313,-2.038168,1.05275,4.02088,7272,12538,5265,7272,0,43.321,9,load
1780590750.3582313,10.496945599996252,390960,0.056152,-0.059814,1.056396,2.900763,3.030534,-0.030534,1.059577,4.195176,7273,12541,5267,7273,1,43.321,14,load
1780590750.3885224,10.527236699999776,390991,0.031494,-0.006836,1.032715,2.10687,3.030534,0.442748,1.033218,3.7174,7275,12544,5268,7275,0,43.321,9,load
1780590750.4208212,10.559535499996855,391022,0.039307,0.017578,1.052002,-0.694656,2.977099,-1.870229,1.052883,3.583772,7276,12547,5270,7276,1,72.0,14,load
1780590750.4511082,10.589822499998263,391053,0.060791,-0.032715,1.0625,4.862596,3.427481,-0.076336,1.06474,5.949646,7277,12549,5271,7277,1,72.0,14,load
1780590750.4800491,10.61876339999435,391083,0.020996,-0.024414,1.032959,1.549618,2.908397,0.137405,1.033461,3.298328,7279,12552,5272,7279,0,72.0,10,load
1780590750.5131295,10.651843700004974,391114,0.021973,-0.036133,1.052734,-0.503817,2.633588,-1.717557,1.053583,3.184277,7280,12555,5274,7280,1,72.0,14,load
1780590750.5431902,10.68190450000111,391146,0.033691,-0.016846,1.062256,4.847328,3.030534,-0.48855,1.062923,5.737544,7289,12568,5278,7289,0,72.0,0,load
1780590750.5755858,10.714300199993886,391177,0.034668,0.027344,1.051758,-0.076336,2.748092,-0.946565,1.052684,2.907545,7290,12570,5279,7290,0,72.0,8,load
1780590750.605545,10.744259300001431,391208,0.052979,-0.063232,1.057129,0.877863,2.48855,-0.328244,1.060343,2.659186,7291,12573,5281,7291,1,72.0,14,load
1780590750.6368163,10.775530600003549,391239,0.05249,-0.020264,1.064941,4.236642,3.015267,-0.366412,1.066427,5.212986,7293,12576,5282,7293,0,72.0,9,load
1780590750.6670208,10.805735100002494,391270,0.017822,0.016602,1.027344,-0.10687,2.961832,-1.412214,1.027632,3.28302,7294,12578,5283,7294,0,72.0,8,load
1780590750.699446,10.838160200000857,391301,0.037354,-0.058105,1.055908,2.59542,2.748092,-0.419847,1.058165,3.80322,7295,12581,5285,7295,1,68.1,14,load
1780590750.7290325,10.867746899995836,391331,0.047119,-0.005127,1.046387,3.656489,3.068702,0.114504,1.04746,4.77493,7297,12584,5286,7297,0,68.1,9,load
1780590750.7592514,10.897965600001044,391362,0.024658,0.003418,1.043945,-0.038168,3.076336,-1.770992,1.044242,3.549889,7298,12586,5287,7298,0,68.1,9,load
1780590750.7915149,10.930229200006579,391393,0.046875,-0.054199,1.04541,3.229008,2.954198,-0.145038,1.047863,4.378906,7299,12589,5289,7299,1,68.1,14,load
1780590750.821544,10.960258299994166,391424,0.045166,-0.010986,1.046631,2.312977,2.80916,0.160305,1.047662,3.642382,7301,12592,5290,7301,0,68.1,9,load
1780590750.8531437,10.991857899993192,391455,0.050537,-0.00293,1.061523,-0.274809,2.633588,-2.015267,1.06273,3.327553,7302,12594,5291,7302,0,68.1,8,load
1780590750.8839793,11.022693699997035,391486,0.045898,-0.012207,1.059814,4.42748,3.290076,-0.145038,1.060878,5.517991,7303,12597,5293,7303,1,68.1,14,load
1780590750.9143465,11.053060699996422,391517,0.056641,-0.009033,1.041016,0.839695,2.961832,0.19084,1.042594,3.08447,7305,12600,5294,7305,0,68.1,9,load
1780590750.944393,11.083107200000086,391547,0.0354,-0.045898,1.052734,-0.045802,2.648855,-1.832061,1.054329,3.221021,7306,12603,5296,7306,1,68.1,14,load
1780590750.980713,11.119427199999336,391578,0.05127,-0.022461,1.066162,4.541984,3.687023,-0.519084,1.06763,5.873092,7307,12605,5297,7307,1,43.321,14,load
1780590751.0126107,11.151324999998906,391615,0.036865,-0.009521,1.048584,-0.312977,3.068702,-1.610687,1.049275,3.479828,7308,12608,5299,7308,0,43.321,9,load
1780590751.0592296,11.19794389999879,391646,0.04834,-0.039062,1.046387,3.580153,3.458015,-0.435114,1.048231,4.996468,7309,12611,5301,7309,1,43.321,15,load
1780590751.0752795,11.213993900004425,391677,0.032227,-0.001221,1.049316,1.122137,3.236641,-0.343511,1.049812,3.442824,7311,12614,5302,7311,0,43.321,10,load
1780590751.104779,11.243493300004047,391708,0.021484,-0.051758,1.057373,0.061069,2.473282,-1.0,1.058857,2.668493,7312,12617,5304,7312,1,43.321,13,load
1780590751.1383424,11.277056599996286,391740,0.041992,-0.017578,1.058106,4.221374,3.450382,-0.519084,1.059084,5.476731,7322,12628,5305,7322,0,43.321,0,load
1780590751.1699922,11.308706600000733,391772,0.043457,0.012695,1.047363,-0.320611,3.045802,-0.671756,1.048341,3.135435,7323,12630,5306,7323,0,43.321,9,load
1780590751.201401,11.340115400002105,391803,0.046631,-0.032227,1.062988,1.503817,2.801527,-0.648855,1.064498,3.245155,7324,12633,5308,7324,1,43.321,14,load
1780590751.2318525,11.370566900004633,391834,0.059814,-0.03418,1.065918,3.519084,2.473282,-0.496183,1.068142,4.329812,7326,12636,5309,7326,0,74.219,9,load
1780590751.2644353,11.40314949999447,391865,0.045898,-0.019287,1.043457,-0.389313,2.839695,-0.923664,1.044644,3.011409,7327,12638,5310,7327,0,74.219,9,load
1780590751.2938256,11.432539999994333,391897,0.049561,-0.051514,1.054199,2.900763,3.351145,-0.557252,1.05662,4.467116,7328,12641,5312,7328,1,74.219,14,load
1780590751.3268354,11.465549600005033,391928,0.059082,-0.018066,1.062744,2.137405,2.801527,-0.366412,1.064538,3.542783,7330,12644,5313,7330,0,74.219,9,load
1780590751.3568609,11.495575299995835,391959,0.032715,-0.018799,1.062012,0.083969,2.969466,-1.244275,1.062682,3.220714,7331,12646,5314,7331,0,74.219,8,load
1780590751.3886025,11.527316899999278,391990,0.061768,-0.015625,1.054199,3.419847,3.656489,-0.870229,1.056123,5.08159,7332,12649,5316,7332,1,74.219,14,load
1780590751.4202292,11.55894360000093,392021,0.030518,-0.032959,1.043701,1.175572,3.21374,-1.748092,1.044667,3.842645,7334,12652,5317,7334,0,74.219,9,load
1780590751.4507394,11.589453699998558,392052,0.05542,-0.040039,1.049805,-0.167939,2.748092,-0.931298,1.052029,2.906463,7335,12655,5319,7335,1,74.219,15,load
1780590751.480105,11.618819299997995,392083,0.036621,-0.006592,1.05249,3.564885,3.48855,-1.114504,1.053148,5.110822,7336,12657,5320,7336,1,74.219,12,load
1780590751.5112748,11.649989099998493,392114,0.060303,-0.00415,1.049072,1.732824,3.022901,-3.755725,1.050812,5.123093,7338,12660,5321,7338,0,42.857,9,load
1780590751.5426953,11.681409500000882,392145,0.0354,-0.039307,1.04126,0.282443,2.839695,-3.923664,1.042603,4.851678,7339,12663,5323,7339,1,42.857,13,load
1780590751.5752525,11.7139668000018,392176,0.063477,-0.017334,1.049805,3.442748,3.419847,-2.419847,1.051865,5.422502,7341,12666,5324,7341,0,42.857,9,load
1780590751.6048367,11.743550999992294,392207,0.051025,0.015137,1.05542,1.450382,2.839695,-3.908397,1.056761,5.04411,7342,12668,5325,7342,0,42.857,9,load
1780590751.6369066,11.775620999993407,392239,0.015381,-0.008301,1.055908,0.984733,2.679389,-2.435115,1.056053,3.752147,7343,12671,5327,7343,1,42.857,14,load
1780590751.6677923,11.806506599998102,392270,0.047363,-0.061035,1.063477,3.679389,3.328244,-0.824427,1.066279,5.029393,7345,12674,5328,7345,0,42.857,9,load
1780590751.6995442,11.838258400006453,392301,0.041748,0.031738,1.05249,0.862595,2.427481,-1.335878,1.053796,2.901948,7346,12676,5329,7346,0,42.857,9,load
1780590751.7297237,11.86843790000421,392332,0.035645,-0.02832,1.055664,1.259542,2.618321,-1.206107,1.056645,3.145909,7347,12679,5331,7347,1,42.857,14,load
1780590751.7598321,11.89854639999976,392363,0.07666,-0.024414,1.06543,2.961832,3.137405,-0.679389,1.068463,4.36776,7349,12682,5332,7349,0,42.857,8,load
1780590751.7914238,11.930137999996077,392393,0.024902,0.014648,1.055176,0.267176,2.51145,-1.122137,1.055571,2.763686,7350,12684,5333,7350,0,43.011,9,load
1780590751.821411,11.960125199999311,392424,0.053955,-0.020264,1.05835,1.671756,2.977099,-4.167938,1.059918,5.387912,7351,12687,5335,7351,1,43.011,14,load
1780590751.8531525,11.991866800002754,392455,0.072021,-0.041992,1.059326,1.91603,2.877863,-1.755725,1.062602,3.877607,7353,12690,5336,7353,0,43.011,9,load
1780590751.8825488,12.021263200003887,392486,0.050781,-0.010498,1.063477,0.412214,2.763359,-0.854962,1.06474,2.92182,7354,12692,5337,7354,0,43.011,9,load
1780590751.9152615,12.053975899994839,392517,0.05542,-0.02832,1.046143,3.435115,3.748092,-0.687023,1.047992,5.130322,7355,12695,5339,7355,1,43.011,14,load
1780590751.9454753,12.084189700006391,392548,0.052979,-0.023926,1.052978,1.984733,2.603053,-0.40458,1.054582,3.298293,7357,12698,5340,7357,0,43.011,9,load
1780590751.9776292,12.116343500005314,392579,0.037598,-0.010254,1.060059,-0.251908,2.572519,-0.603053,1.060775,2.654239,7358,12700,5341,7358,0,43.011,8,load
1780590752.008494,12.147208299997146,392610,0.055176,-0.033203,1.04126,3.389313,3.854962,-1.022901,1.043249,5.233976,7360,12703,5342,7360,1,43.011,14,load
1780590752.0387352,12.177449499999057,392641,0.046631,-0.01123,1.07251,1.732824,2.603053,-0.519084,1.073582,3.169861,7362,12706,5343,7362,0,43.011,9,load
1780590752.0697532,12.208467599994037,392672,0.031738,-0.004639,1.040527,-0.282443,2.854962,-0.557252,1.041022,2.922518,7363,12708,5344,7363,0,46.595,8,load
1780590752.1019619,12.24067610000202,392703,0.052979,-0.015869,1.039795,3.977099,3.48855,-0.725191,1.041265,5.339775,7364,12711,5346,7364,1,46.595,14,load
1780590752.137836,12.276550299997325,392735,0.076904,-0.008057,1.068604,1.458015,2.725191,-0.335878,1.071398,3.108905,7366,12714,5347,7366,0,46.595,9,load
1780590752.165419,12.304133300000103,392766,0.033936,-0.036621,1.038086,0.396947,2.244275,-0.954198,1.039286,2.470796,7367,12717,5349,7367,1,46.595,14,load
1780590752.1960454,12.33475969999563,392798,0.038574,-0.051758,1.051758,4.030534,3.091603,-0.870229,1.053737,5.15369,7369,12720,5350,7369,0,46.595,9,load
1780590752.229164,12.367878299992299,392830,0.040527,0.019287,1.063232,-0.129771,2.732824,-0.748092,1.064179,2.836338,7370,12722,5351,7370,0,46.595,9,load
1780590752.2590654,12.397779799997807,392861,0.041016,-0.030029,1.060059,1.458015,2.351145,-0.725191,1.061277,2.859999,7371,12725,5353,7371,1,46.595,14,load
1780590752.290143,12.428857299993979,392892,0.049316,-0.047852,1.060547,3.664122,3.068702,-0.503817,1.062771,4.805888,7373,12728,5354,7373,0,46.595,10,load
1780590752.320522,12.459236499998951,392923,0.027344,0.015381,1.048828,0.030534,2.938931,-0.801527,1.049297,3.046423,7374,12730,5355,7374,0,43.825,9,load
1780590752.3531463,12.4918605999992,392954,0.029785,-0.033691,1.059326,1.793893,2.763359,-1.229008,1.06028,3.516342,7375,12733,5357,7375,1,43.825,14,load
1780590752.383167,12.521881399996346,392985,0.029785,-0.024414,1.059082,3.267176,2.801527,-0.40458,1.059782,4.322809,7377,12736,5358,7377,0,43.825,9,load
1780590752.4138308,12.552544999998645,393016,0.065186,-0.009521,1.057861,-0.732824,2.572519,-0.694656,1.05991,2.763591,7378,12738,5359,7378,0,43.825,9,load
1780590752.4450526,12.583766900002956,393047,0.066895,-0.045166,1.069336,1.78626,3.351145,-1.152672,1.072378,3.96857,7379,12741,5361,7379,1,43.825,14,load
1780590752.476236,12.61495049999212,393078,0.026611,-0.025391,1.068359,2.679389,2.793893,-0.732824,1.068992,3.939797,7381,12744,5362,7381,0,43.825,10,load
1780590752.5073218,12.646036199992523,393109,0.044189,-0.015625,1.055176,-0.51145,2.465649,-0.305344,1.056216,2.53658,7382,12746,5363,7382,0,43.825,9,load
1780590752.537819,12.676533199992264,393140,0.068604,-0.049561,1.055908,2.427481,3.10687,-0.580153,1.059294,3.985208,7383,12749,5365,7383,1,43.825,15,load
1780590752.5689695,12.707683799992083,393171,0.043213,0.004395,1.078369,3.664122,3.137405,-0.526718,1.079244,4.852477,7385,12752,5366,7385,0,43.825,9,load
1780590752.59908,12.737794400003622,393202,0.055664,-0.000488,1.054443,-0.244275,3.076336,-0.114504,1.055912,3.088142,7386,12754,5367,7386,0,43.011,9,load
1780590752.632044,12.770758300001035,393233,0.040527,-0.031982,1.054199,2.496183,3.328244,-1.122137,1.055463,4.308983,7387,12757,5369,7387,1,43.011,14,load
1780590752.6617959,12.800510100001702,393265,0.036377,-0.001221,1.067383,2.29771,2.145038,-0.610687,1.068003,3.202124,7389,12760,5370,7389,0,43.011,9,load
1780590752.6930535,12.831767900002887,393295,0.055908,-0.004883,1.061768,0.083969,2.832061,-0.282443,1.06325,2.847349,7390,12762,5371,7390,0,43.011,8,load
1780590752.7237606,12.862475000001723,393326,0.049561,-0.03833,1.049561,2.015267,3.412214,-1.412214,1.051429,4.207,7391,12765,5373,7391,1,43.011,15,load
1780590752.756436,12.895150500000454,393357,0.061279,-0.021484,1.070801,2.633588,2.954198,-0.954198,1.072768,4.071064,7393,12768,5374,7393,0,43.011,9,load
1780590752.7846131,12.923327399999835,393388,0.042725,-0.00415,1.0625,-0.732824,2.236641,-0.251908,1.063367,2.367077,7394,12770,5375,7394,0,43.011,9,load
1780590752.8158374,12.954551799994078,393418,0.05127,-0.02417,1.043457,2.312977,3.015267,-0.083969,1.044995,3.801151,7395,12773,5377,7395,1,43.011,14,load
1780590752.8482542,12.98696850000124,393449,0.044678,-0.019775,1.053467,3.78626,4.061068,-1.458015,1.054599,5.740544,7397,12776,5378,7397,0,43.011,9,load
1780590752.8784826,13.017196799992234,393480,0.0354,0.012451,1.068848,-0.740458,1.961832,-0.175573,1.069506,2.104255,7398,12778,5379,7398,0,43.165,8,load
1780590752.910018,13.048732299997937,393511,0.050049,-0.064941,1.039307,1.587786,3.229008,-0.267176,1.042536,3.608177,7399,12781,5381,7399,1,43.165,14,load
1780590752.9403453,13.079059600000619,393542,0.060303,-0.034668,1.067627,3.381679,3.770992,-0.801527,1.06989,5.128214,7401,12784,5382,7401,0,43.165,9,load
1780590752.9722989,13.111013200003072,393573,0.049072,-0.016846,1.07666,-0.068702,2.045802,-0.045802,1.07791,2.047467,7402,12786,5383,7402,0,43.165,8,load
1780590753.001666,13.140380299999379,393605,0.069336,-0.067383,1.042969,2.70229,3.267176,-0.282443,1.04744,4.249304,7403,12789,5385,7403,1,43.165,14,load
1780590753.0323284,13.17104269999254,393635,0.042725,-0.008789,1.06665,3.664122,4.015268,-0.832061,1.067542,5.499135,7405,12792,5386,7405,0,43.165,9,load
1780590753.0639217,13.202636000001803,393666,0.046143,-0.001465,1.075439,-0.267176,1.503817,-0.167939,1.07643,1.536571,7406,12794,5387,7406,0,43.165,9,load
1780590753.0947857,13.233500100002857,393697,0.05127,-0.062256,1.027588,1.480916,2.030534,-1.458015,1.030748,2.90551,7407,12797,5389,7407,1,43.165,14,load
1780590753.12623,13.264944299997296,393728,0.063721,-0.002441,1.027588,3.061069,4.992366,-2.10687,1.029564,6.223565,7409,12800,5390,7409,0,43.165,9,load
1780590753.157547,13.296261199997389,393759,0.049805,-0.022217,1.062744,0.496183,3.847328,0.923664,1.064142,3.987642,7410,12802,5391,7410,1,43.011,8,load
1780590753.18879,13.327504300003056,393791,0.025635,-0.029785,1.053467,2.748092,0.931298,-1.755725,1.054199,3.391444,7412,12805,5392,7412,1,43.011,14,load
1780590753.2187617,13.35747590000392,393822,0.066406,0.00708,1.035156,2.083969,3.709924,-2.19084,1.037308,4.786046,7414,12808,5393,7414,0,43.011,9,load
1780590753.2513459,13.39006019999215,393853,0.020752,-0.013184,1.052978,0.083969,3.030534,0.618321,1.053265,3.094109,7415,12811,5395,7415,1,43.011,14,load
1780590753.2841866,13.42290089999733,393886,0.021484,-0.032227,1.038818,3.480916,1.778626,-1.977099,1.03954,4.380549,7424,12821,5396,7424,0,43.011,1,load
1780590753.3137054,13.452419799999916,393917,0.056641,0.003174,1.04126,1.450382,4.19084,-0.633588,1.042804,4.479752,7425,12823,5397,7425,0,43.011,9,load
1780590753.3445857,13.483299999992596,393947,0.015869,-0.014404,1.067627,0.259542,2.351145,0.641221,1.067842,2.450798,7426,12826,5399,7426,1,43.011,14,load
1780590753.3755877,13.51430189999519,393978,0.056641,-0.067871,1.049072,3.129771,1.389313,-1.816794,1.05279,3.87639,7429,12830,5400,7429,0,43.011,0,load
1780590753.4062698,13.544984099993599,394009,0.060547,0.000732,1.05127,1.648855,4.244274,-1.503817,1.053012,4.795212,7430,12832,5401,7430,0,80.0,9,load
1780590753.438477,13.577191300006234,394040,0.031982,-0.028809,1.065186,0.007634,2.305344,0.534351,1.066055,2.366474,7431,12835,5403,7431,1,80.0,14,load
1780590753.4689958,13.60771019999811,394071,0.036865,-0.048584,1.032227,3.19084,1.946565,-1.816794,1.034027,4.155877,7433,12838,5404,7433,0,80.0,9,load
1780590753.5008235,13.639537800001563,394102,0.021973,0.038574,1.042725,1.854962,3.961832,-0.625954,1.043669,4.419142,7434,12840,5405,7434,0,80.0,9,load
1780590753.52942,13.66813409999304,394133,0.032715,0.002686,1.07251,0.458015,1.70229,1.526718,1.073012,2.332046,7435,12843,5407,7435,1,80.0,14,load
1780590753.563227,13.70194129999436,394164,0.040039,0.025146,1.04248,1.694656,0.725191,0.358779,1.043552,1.877894,7444,12853,5408,7444,0,80.0,0,load
1780590753.5934124,13.732126699993387,394196,0.045166,0.015625,1.043213,1.984733,4.816794,1.839695,1.044307,5.524956,7445,12855,5409,7445,0,80.0,9,load
1780590753.6261394,13.764853600005154,394227,0.034424,-0.044189,1.060791,0.099237,2.122137,6.72519,1.062269,7.052766,7446,12858,5411,7446,1,80.0,15,load
1780590753.6586852,13.797399500006577,394259,0.016602,-0.049316,1.024658,1.358779,-2.236641,-13.961832,1.025979,14.204985,7455,12868,5412,7455,0,100.0,0,load
1780590753.69217,13.830884299997706,394292,0.012695,-0.023926,1.032227,2.236641,-1.183206,-15.541985,1.032582,15.746614,7456,12870,5413,7456,0,100.0,9,load
1780590753.7241662,13.862880500004394,394326,0.093506,-0.034424,0.967285,-0.847328,2.587786,3.51145,0.972404,4.443522,7457,12873,5415,7457,1,100.0,20,load
1780590753.756311,13.895025299992994,394357,0.040283,-0.062988,1.01416,1.40458,3.061069,13.664123,1.016912,14.073068,7458,12875,5416,7458,1,100.0,17,load
1780590753.7895498,13.928264100002707,394390,-0.015869,0.064209,1.023926,2.465649,0.435114,14.358779,1.02606,14.575435,7460,12878,5417,7460,0,100.0,6,load
1780590753.8220663,13.960780599998543,394423,0.040283,0.027832,1.005371,0.236641,4.748092,27.458016,1.006563,27.866522,7461,12880,5418,7461,0,100.0,6,load
1780590753.855717,13.994431300001452,394456,-0.016602,-0.091553,0.986572,9.274809,1.923664,9.679389,0.99095,13.543011,7462,12883,5420,7462,1,100.0,19,load
1780590753.8877137,14.026427999997395,394489,0.071045,-0.053467,1.089111,-1.770992,-2.175573,-3.763359,1.092735,4.693868,7464,12886,5421,7464,0,100.0,7,load
1780590753.9181194,14.056833700000425,394520,0.014648,0.002441,1.036133,0.206107,-2.564885,-3.618321,1.036239,4.439974,7465,12888,5422,7465,0,38.314,8,load
1780590753.9489248,14.087639000004856,394551,0.063477,-0.068359,1.023682,4.587786,3.664122,-7.450382,1.027923,9.485872,7466,12890,5423,7466,0,38.314,8,load
1780590753.9799087,14.118623000002117,394582,0.112549,0.05835,1.106934,2.755725,5.656488,-4.152672,1.11417,7.53887,7467,12892,5424,7467,0,38.314,7,load
1780590754.0101926,14.148906899994472,394613,-0.008789,-0.002686,1.086426,0.236641,3.442748,-1.671756,1.086465,3.834486,7468,12895,5426,7468,1,38.314,18,load
1780590754.0417285,14.180442900003982,394643,0.032227,0.01123,1.094971,2.282443,2.969466,0.290076,1.095502,3.756517,7469,12897,5427,7469,1,38.314,15,load
1780590754.0725744,14.211288699996658,394675,0.06665,-0.094238,1.01001,2.099237,5.358778,-2.603053,1.016584,6.31658,7471,12900,5428,7471,0,38.314,7,load
1780590754.1051085,14.243822899996303,394706,0.088135,-0.057373,1.006104,5.549618,8.916031,-2.931298,1.011585,10.903502,7472,12902,5429,7472,0,38.314,7,load
1780590754.1363826,14.275096900004428,394738,0.068604,0.004395,1.042969,1.633588,6.984732,0.916031,1.045232,7.231474,7473,12904,5430,7473,0,38.314,6,load
1780590754.1806269,14.319341099995654,394769,0.0354,-0.04248,1.084473,-0.129771,3.740458,0.412214,1.085882,3.76534,7474,12907,5432,7474,1,38.314,21,load
1780590754.1971998,14.335914099996444,394800,0.04541,-0.0625,1.066894,0.801527,1.374046,-0.580153,1.069688,1.693229,7475,12909,5433,7475,1,35.714,18,load
1780590754.22737,14.366084399996907,394830,0.041504,-0.07251,1.03125,1.625954,1.770992,-1.80916,1.034629,3.008854,7476,12911,5434,7476,1,35.714,15,load
1780590754.2588732,14.397587500003283,394860,0.05542,-0.055176,1.036865,3.244275,4.259542,-1.29771,1.03981,5.509362,7478,12914,5435,7478,0,35.714,7,load
1780590754.289668,14.428382400001283,394891,0.055176,-0.011963,1.020752,3.381679,4.053436,-0.51145,1.022312,5.303553,7479,12916,5436,7479,0,35.714,6,load
1780590754.320458,14.459172300004866,394922,0.059326,-0.017578,1.02002,3.541985,5.366412,-1.366412,1.021894,6.573516,7480,12918,5437,7480,0,35.714,6,load
1780590754.3507097,14.489424100000178,394953,0.05957,-0.026611,1.041504,2.374046,4.0229,-2.114504,1.043546,5.12747,7481,12920,5438,7481,0,35.714,6,load
1780590754.3818896,14.520604000004823,394984,0.061279,-0.006836,1.033691,2.396947,6.862596,-1.48855,1.035529,7.419997,7482,12922,5439,7482,0,35.714,6,load
1780590754.4118779,14.550592100000358,395014,0.059814,-0.036133,1.03418,2.656489,3.694656,-0.648855,1.036538,4.596567,7483,12924,5440,7483,0,35.714,5,load
1780590754.443507,14.582221200005733,395045,0.050537,-0.063232,1.049561,1.992366,2.145038,-2.366412,1.052677,3.764388,7483,12925,5441,7483,1,35.714,29,load
1780590754.473891,14.612605400005123,395076,0.05542,-0.038086,1.044678,0.938931,2.847328,-2.496183,1.04684,3.901256,7484,12926,5441,7484,0,32.609,13,load
1780590754.5047834,14.643497800003388,395107,0.030029,-0.078369,1.039307,1.427481,2.977099,-0.312977,1.04269,3.31644,7486,12928,5441,7486,0,32.609,0,load
1780590754.5362375,14.674951699998928,395138,0.049316,0.064209,1.060791,1.603053,3.480916,-4.465648,1.063876,5.884605,7487,12930,5442,7487,0,32.609,2,load
1780590754.5681598,14.7068741999974,395170,0.052246,0.052246,1.062012,1.725191,2.877863,-5.885496,1.064579,6.774765,7488,12932,5443,7488,0,32.609,6,load
1780590754.5999465,14.738660699993488,395201,0.077393,-0.095215,1.046143,1.473282,3.687023,-5.129771,1.053314,6.486852,7489,12934,5444,7489,0,32.609,5,load
1780590754.6296058,14.76832000000286,395232,0.07373,-0.086182,1.052002,2.221374,3.40458,-4.152672,1.058098,5.811226,7490,12936,5445,7490,0,32.609,6,load
1780590754.661498,14.800212300004205,395262,0.053467,-0.078857,1.050781,1.412214,3.740458,-3.824427,1.055092,5.532777,7490,12937,5446,7490,1,32.609,30,load
1780590754.6923268,14.831041199999163,395294,0.05127,0.087646,1.052002,0.335878,3.610687,-0.183206,1.056891,3.630901,7491,12938,5446,7491,0,32.609,13,load
1780590754.7241974,14.862911799995345,395326,0.055664,-0.058594,1.054443,1.419847,2.389313,0.435114,1.057536,2.813202,7493,12940,5446,7493,0,36.0,0,load
1780590754.7541387,14.892852999997558,395357,0.039307,0.044678,1.054688,1.221374,3.007634,0.198473,1.056365,3.252231,7494,12942,5447,7494,0,36.0,2,load
1780590754.7870605,14.925774899995304,395388,0.046631,-0.090088,1.039795,0.793893,3.290076,-1.91603,1.044731,3.889221,7495,12944,5448,7495,0,36.0,5,load
1780590754.8155458,14.954260099999374,395419,0.039062,-0.094238,1.055176,2.473282,2.847328,-1.122137,1.060096,3.93492,7496,12946,5449,7496,0,36.0,5,load
1780590754.8466876,14.985401800004183,395449,0.046875,-0.032715,1.048584,1.29771,3.328244,0.541985,1.050141,3.613172,7497,12948,5450,7497,0,36.0,5,load
1780590754.877378,15.016092299993034,395480,0.039062,0.038086,1.05835,0.862595,3.259542,1.832061,1.059755,3.837334,7497,12949,5451,7497,1,36.0,33,load
1780590754.9089494,15.047663599994848,395511,0.034668,-0.154541,1.042969,0.931298,2.969466,0.137405,1.054926,3.115112,7498,12950,5451,7498,0,36.0,10,load
1780590754.9396117,15.078326000002562,395542,0.025146,0.029053,1.062988,2.870229,2.862595,-1.343511,1.063683,4.270561,7499,12952,5452,7499,0,36.0,4,load
1780590754.9715593,15.110273700003745,395573,0.047119,0.041016,1.065918,1.389313,2.740458,-2.687023,1.067747,4.081714,7500,12954,5453,7500,0,36.0,5,load
1780590755.0020192,15.140733499996713,395604,0.047852,0.020996,1.071777,1.534351,3.358779,0.931298,1.07305,3.808273,7500,12955,5454,7500,1,25.18,37,load
1780590755.0344448,15.173159199999645,395636,0.032227,0.100586,1.07373,2.847328,3.145038,-0.099237,1.078913,4.24363,7501,12956,5454,7501,0,25.18,13,load
1780590755.0644903,15.203204699995695,395667,0.048828,-0.013184,1.062988,0.175573,2.351145,-2.465649,1.064191,3.411471,7502,12958,5455,7502,0,25.18,4,load
1780590755.0965548,15.235269099997822,395698,0.047119,-0.013672,1.047852,3.076336,3.015267,0.358779,1.049,4.322546,7503,12960,5456,7503,0,25.18,5,load
1780590755.1267796,15.265493900005822,395729,0.059814,0.157959,1.07666,3.19084,3.076336,0.763359,1.089828,4.497556,7503,12960,5456,7503,0,25.18,5,load
1780590755.1587176,15.297431999992114,395760,0.064697,0.201416,1.083984,2.725191,3.320611,-1.099237,1.104435,4.434122,7504,12962,5457,7504,0,25.18,2,load
1780590755.2017019,15.340416299994104,395791,0.061768,0.171875,1.094727,3.0,3.160305,-1.08397,1.109857,4.490269,7505,12964,5458,7505,0,25.18,5,load
1780590755.219103,15.357817299998715,395821,0.037598,-0.020508,1.047852,3.015267,3.160305,0.78626,1.048726,4.438194,7505,12964,5458,7505,0,25.18,5,load
1780590755.2494218,15.388136199995643,395852,0.062744,0.193359,1.080078,3.648855,3.343511,-0.083969,1.099042,4.949774,7506,12966,5459,7506,0,25.18,2,load
1780590755.2810035,15.419717700002366,395883,0.047852,0.117432,1.077148,3.229008,2.954198,-0.068702,1.084587,4.377042,7507,12968,5460,7507,0,25.09,5,load
1780590755.311293,15.450007299994468,395914,0.041992,-0.015381,1.050781,2.709924,3.259542,0.0,1.051732,4.238903,7507,12968,5460,7507,0,25.09,5,load
1780590755.3421283,15.480842699995264,395944,0.055664,-0.066895,1.060303,-0.19084,2.78626,-1.946565,1.063868,3.404229,7508,12970,5461,7508,0,25.09,4,load
1780590755.3734272,15.512141400002292,395975,0.063721,0.14917,1.086914,1.229008,3.137405,-0.671756,1.098951,3.435844,7509,12972,5462,7509,0,25.09,5,load
1780590755.4050064,15.543720699992264,396006,0.062256,0.110107,1.078125,2.435115,3.21374,-0.396947,1.08552,4.051602,7509,12972,5462,7509,0,25.09,5,load
1780590755.4358826,15.574596999998903,396038,0.064453,0.158691,1.090332,3.320611,3.122137,-0.503817,1.103703,4.585633,7510,12974,5463,7510,0,25.09,6,load
1780590755.4676461,15.60636049999448,396069,0.033203,-0.14624,1.041504,-0.038168,2.908397,-1.91603,1.052245,3.483016,7510,12975,5464,7510,1,25.09,44,load
1780590755.4983108,15.637025200005155,396100,0.051514,0.055176,1.05542,2.633588,3.671756,0.038168,1.058116,4.518742,7511,12976,5464,7511,0,25.09,12,load
1780590755.5295935,15.668307800006005,396131,0.052246,0.078613,1.067627,2.389313,3.068702,-1.641221,1.071791,4.221298,7512,12978,5465,7512,0,25.09,5,load
1780590755.560637,15.699351200004457,396162,0.033936,-0.124512,1.041748,0.51145,2.847328,-1.541985,1.049711,3.278197,7512,12978,5465,7512,0,17.921,5,load
1780590755.5924654,15.731179700000212,396194,0.047363,-0.021484,1.05835,1.954198,3.610687,-0.267176,1.059627,4.114284,7513,12980,5466,7513,0,17.921,1,load
1780590755.623974,15.762688500006334,396226,0.048096,0.011719,1.057373,2.839695,2.709924,-0.419847,1.058531,3.947635,7513,12981,5467,7513,1,17.921,48,load
1780590755.65513,15.793844200001331,396257,0.039795,-0.115723,1.032471,0.832061,2.854962,-1.114504,1.039698,3.175728,7514,12982,5467,7514,0,17.921,14,load
1780590755.6860943,15.824808699995629,396288,0.049561,-0.015137,1.053955,1.496183,3.267176,-1.717557,1.055228,3.982839,7515,12984,5468,7515,0,17.921,5,load
1780590755.7179856,15.856700000003912,396319,0.036621,0.018799,1.066406,2.374046,2.908397,-1.374046,1.0672,3.997858,7515,12984,5468,7515,0,17.921,5,load
1780590755.7478447,15.886559099992155,396351,0.048584,0.049805,1.066162,2.343511,3.267176,-0.977099,1.06843,4.137778,7516,12986,5469,7516,0,17.921,5,load
1780590755.780114,15.918828199995914,396381,0.05542,-0.05127,1.05542,1.312977,2.824427,-0.541985,1.058117,3.161494,7516,12986,5469,7516,0,17.921,5,load
1780590755.810215,15.948929299993324,396412,0.041992,-0.064209,1.042236,2.221374,2.832061,-0.48855,1.045056,3.632321,7518,12988,5469,7518,0,24.0,0,load
1780590755.841607,15.980321499999263,396443,0.044678,0.104248,1.075195,2.717557,3.183206,0.358779,1.081161,4.20079,7519,12990,5470,7519,0,24.0,4,load
1780590755.8718839,16.010598199995002,396474,0.04541,0.010254,1.049561,2.229008,3.114504,0.305344,1.050592,3.842115,7519,12990,5470,7519,0,24.0,4,load
1780590755.9034312,16.042145400002482,396505,0.044678,0.078125,1.074951,2.671756,2.992366,-1.40458,1.078712,4.250339,7520,12992,5471,7520,0,24.0,3,load
1780590755.9342232,16.072937599994475,396536,0.038086,0.045166,1.063477,1.21374,2.70229,-1.320611,1.065116,3.243386,7520,12992,5471,7520,0,24.0,3,load
1780590755.9659503,16.1046645000024,396567,0.034912,-0.141113,1.026123,0.351145,3.526718,-1.465649,1.036369,3.835253,7521,12994,5472,7521,0,24.0,2,load
1780590755.9969628,16.135676999998395,396599,0.040283,-0.13208,1.028076,1.78626,3.236641,-1.137405,1.037308,3.867849,7521,12995,5473,7521,1,24.0,49,load
1780590756.0399642,16.178678399999626,396630,0.0354,-0.091553,1.044434,1.496183,2.969466,-0.061069,1.049036,3.325661,7522,12996,5473,7522,0,24.0,12,load
1780590756.0588222,16.197536399995442,396661,0.044678,0.016602,1.068115,2.564885,2.885496,-0.40458,1.069178,3.881805,7523,12998,5474,7523,0,24.0,3,load
1780590756.0912015,16.22991579999507,396692,0.039795,-0.056396,1.053711,2.549618,2.740458,-0.152672,1.055969,3.746194,7523,12998,5474,7523,0,17.857,3,load
1780590756.1212869,16.2600012000039,396724,0.047363,0.000977,1.051758,2.717557,3.618321,-0.312977,1.052824,4.536002,7524,13000,5475,7524,0,17.857,3,load
1780590756.1539478,16.292662099993322,396755,0.053467,-0.01001,1.054199,1.816794,3.351145,-0.854962,1.055602,3.906645,7524,13000,5475,7524,0,17.857,3,load
1780590756.1849082,16.323622500000056,396787,0.045898,0.049561,1.065674,2.282443,3.236641,-0.389313,1.067812,3.979567,7526,13002,5475,7526,0,17.857,0,load
1780590756.2189722,16.35768649999227,396819,0.040527,0.02832,1.070068,1.763359,3.091603,-0.267176,1.07121,3.569149,7527,13004,5476,7527,0,17.857,4,load
1780590756.2482784,16.386992800005828,396850,0.041016,-0.102783,1.045166,1.480916,2.984733,-0.236641,1.051008,3.34032,7527,13004,5476,7527,0,17.857,4,load
1780590756.27903,16.417744499995024,396881,0.03125,-0.093506,1.036621,1.290076,2.748092,-2.221374,1.041299,3.761756,7528,13006,5477,7528,0,17.857,3,load
1780590756.3090353,16.44774960000359,396911,0.05542,0.075195,1.065918,2.259542,3.564885,-0.687023,1.070003,4.276206,7528,13006,5477,7528,0,17.857,3,load
1780590756.3396466,16.47836079999979,396942,0.046387,0.061768,1.054932,1.587786,3.580153,-0.167939,1.057756,3.920046,7529,13008,5478,7529,0,24.0,3,load
1780590756.3713477,16.5100620000012,396973,0.033691,-0.135986,1.033203,0.847328,2.824427,-1.335878,1.042658,3.237271,7529,13008,5478,7529,0,24.0,3,load
1780590756.403966,16.54268030000094,397005,0.040527,-0.153809,1.033936,1.19084,3.122137,-1.412214,1.046099,3.627698,7531,13010,5478,7531,0,24.0,0,load
1780590756.434122,16.5728364999959,397036,0.037109,0.033936,1.070557,1.992366,2.870229,-1.389313,1.071737,3.760044,7532,13012,5479,7532,0,24.0,3,load
1780590756.4663284,16.605042800001684,397067,0.052002,0.073486,1.071289,2.175573,3.328244,-0.29771,1.075065,3.98735,7532,13012,5479,7532,0,24.0,3,load
1780590756.49696,16.635674299992388,397099,0.057129,-0.049072,1.047363,2.137405,3.503817,-0.48855,1.050067,4.133269,7533,13014,5480,7533,0,24.0,4,load
1780590756.5286665,16.66738090000581,397130,0.04126,-0.104736,1.039551,0.961832,2.633588,-0.923664,1.045628,2.951959,7533,13014,5480,7533,0,24.0,4,load
1780590756.5582342,16.696948600001633,397161,0.052002,0.073486,1.077881,2.885496,2.763359,-0.206107,1.081634,4.00059,7534,13016,5481,7534,0,24.0,4,load
1780590756.5939372,16.732651500002248,397191,0.044678,-0.096924,1.035889,0.977099,2.618321,-1.59542,1.041372,3.218026,7534,13016,5481,7534,0,24.0,4,load
1780590756.6266527,16.76536699999997,397227,0.057373,0.079102,1.07666,3.022901,3.549618,-0.244275,1.081085,4.668768,7536,13018,5481,7536,0,24.561,0,load
1780590756.6570604,16.795774700003676,397259,0.038086,-0.124512,1.038818,0.862595,2.992366,-1.351145,1.046947,3.39469,7536,13019,5482,7536,1,24.561,52,load
1780590756.687379,16.826093099996797,397290,0.053711,-0.007324,1.05957,1.10687,3.290076,-0.938931,1.060956,3.59602,7537,13020,5482,7537,0,24.561,10,load
1780590756.7185981,16.857312499996624,397320,0.04248,-0.075928,1.054932,1.290076,2.847328,-0.587786,1.058513,3.180734,7537,13021,5483,7537,1,24.561,50,load
1780590756.7503262,16.889040499998373,397352,0.050049,0.042236,1.067871,2.480916,3.022901,-0.450382,1.069877,3.93646,7538,13022,5483,7538,0,24.561,12,load
1780590756.7810762,16.919790500003728,397383,0.041016,0.024658,1.073242,2.916031,3.274809,0.366412,1.074309,4.400212,7539,13024,5484,7539,0,24.561,3,load
1780590756.8133254,16.95203980000224,397415,0.041748,0.072754,1.079102,1.847328,2.801527,-1.030534,1.082357,3.510438,7539,13024,5484,7539,0,24.561,3,load
1780590756.8438938,16.982608100006473,397446,0.05835,-0.046387,1.035644,1.946565,2.938931,-0.557252,1.038324,3.568888,7540,13026,5485,7540,0,24.561,3,load
1780590756.8758817,17.014595899992855,397477,0.039795,-0.121582,1.029053,0.885496,3.10687,-0.89313,1.036974,3.35178,7540,13026,5485,7540,0,16.0,3,load
1780590756.906889,17.045603299993672,397509,0.049805,0.059814,1.083008,2.274809,3.068702,-0.167939,1.085801,3.823597,7541,13028,5486,7541,0,16.0,1,load
1780590756.9388144,17.077528599998914,397540,0.041748,-0.096924,1.029053,0.931298,2.671756,-1.557252,1.03445,3.229648,7541,13028,5486,7541,0,16.0,1,load
1780590756.9693186,17.108032899996033,397572,0.055176,-0.069824,1.03125,1.877863,3.549618,-1.099237,1.035083,4.16347,7544,13036,5491,7544,0,16.0,0,load
1780590757.0000334,17.13874759999453,397602,0.058105,0.016357,1.059814,2.473282,2.763359,-0.145038,1.061532,3.711376,7544,13036,5491,7544,0,16.0,0,load
1780590757.0315385,17.170252800002345,397633,0.044189,-0.113281,1.038818,0.862595,2.717557,-0.923664,1.04591,2.997056,7546,13040,5493,7546,0,16.0,1,load
1780590757.062485,17.20119920000434,397664,0.047119,-0.007813,1.052734,0.519084,2.732824,-1.358779,1.053817,3.095813,7546,13040,5493,7546,0,16.0,1,load
1780590757.093789,17.232503299994278,397695,0.049072,-0.111084,1.006592,0.48855,3.183206,-0.740458,1.013891,3.304506,7547,13042,5494,7547,0,16.0,2,load
1780590757.1238475,17.262561800002004,397726,0.043213,-0.112793,1.0271,3.19084,3.114504,0.389313,1.034178,4.475842,7548,13044,5495,7548,0,16.0,2,load
1780590757.1555357,17.294250099992496,397757,0.042969,-0.140137,1.015137,1.068702,2.816794,-0.381679,1.025664,3.036796,7548,13044,5495,7548,0,28.571,2,load
1780590757.189847,17.32856140000513,397788,0.050049,-0.148193,1.024902,0.778626,2.656489,-1.030534,1.03677,2.953843,7549,13046,5496,7549,0,28.571,3,load
1780590757.2186744,17.35738869999477,397819,0.03833,-0.177734,0.99585,1.992366,2.900763,-2.076336,1.012312,4.085966,7550,13048,5497,7550,0,28.571,4,load
1780590757.2494302,17.388144399999874,397851,0.013428,-0.045898,1.093262,2.854962,-2.740458,-2.251908,1.094307,4.553241,7550,13048,5497,7550,0,28.571,4,load
1780590757.2811806,17.419894999999087,397882,0.055176,-0.023438,1.083496,0.465649,-2.076336,0.335878,1.085153,2.154255,7552,13050,5497,7552,0,28.571,0,load
1780590757.309538,17.44825220000348,397913,0.040771,-0.007568,1.079834,0.320611,-3.366412,0.465649,1.08063,3.413554,7553,13052,5498,7553,0,28.571,1,load
1780590757.3428016,17.481515899999067,397943,0.070557,-0.042725,1.077148,2.343511,-1.48855,-1.709924,1.080302,3.260623,7554,13054,5499,7554,0,28.571,2,load
1780590757.373401,17.51211520000652,397975,0.056885,-0.02002,1.070801,0.648855,-2.984733,-2.648855,1.072498,4.043028,7556,13057,5500,7556,1,28.571,17,load
1780590757.4056025,17.544316700004856,398007,0.031006,-0.013184,1.037109,2.145038,2.366412,-2.396947,1.037656,3.9933,7558,13060,5501,7558,0,40.0,6,load
1780590757.4370282,17.57574260000547,398038,0.083984,0.005127,1.077881,0.458015,3.396947,-1.076336,1.08116,3.592704,7559,13062,5502,7559,0,40.0,7,load
1780590757.4665887,17.605303000003914,398068,0.076416,-0.047607,1.0896,0.282443,0.969466,-0.709924,1.093313,1.234354,7562,13067,5504,7562,1,40.0,14,load
1780590757.4959853,17.63469960000657,398099,0.077393,-0.018066,1.0354,3.137405,2.755725,-1.29771,1.038446,4.3728,7564,13070,5505,7564,0,40.0,6,load
1780590757.5269504,17.665664700005436,398129,0.078369,0.012207,1.058838,0.664122,4.557252,-0.664122,1.061804,4.653028,7565,13072,5506,7565,0,40.0,6,load
1780590757.5580714,17.696785699998145,398160,0.053711,-0.026123,1.076416,1.282443,0.885496,-0.671756,1.078072,1.697062,7567,13075,5507,7567,1,40.0,16,load
1780590757.588062,17.726776399998926,398191,0.0625,-0.029297,1.018799,3.038168,2.931298,-1.267176,1.021134,4.4078,7569,13078,5508,7569,0,40.0,6,load
1780590757.61933,17.758044300004258,398221,0.066895,-0.003662,1.060303,0.435114,4.656488,0.251908,1.062417,4.683553,7571,13082,5510,7571,0,40.0,0,load
1780590757.650262,17.78897649999999,398252,0.044434,-0.022949,1.067627,1.618321,1.160305,-0.78626,1.068798,2.140905,7574,13086,5511,7574,0,40.0,6,load
1780590757.6820407,17.820754899992608,398283,0.044922,-0.012939,1.035889,3.419847,3.412214,-1.648855,1.036943,5.104634,7575,13088,5512,7575,0,61.594,6,load
1780590757.711723,17.85043740000401,398314,0.041992,0.009521,1.047852,0.603053,3.664122,1.068702,1.048736,3.864142,7576,13090,5513,7576,0,61.594,5,load
1780590757.743266,17.881980499994825,398345,0.048584,-0.023926,1.063721,2.839695,1.648855,-1.045802,1.065098,3.446199,7579,13094,5514,7579,0,61.594,6,load
1780590757.774503,17.913217199995415,398376,0.038818,-0.012939,1.030029,2.793893,4.129771,-1.198473,1.030842,5.128078,7581,13098,5516,7581,0,61.594,1,load
1780590757.804738,17.943452399995294,398407,0.018555,0.004883,1.046631,-0.137405,2.419847,0.312977,1.046807,2.443869,7582,13101,5518,7582,1,61.594,16,load
1780590757.8358798,17.974594100000104,398438,0.052246,-0.062012,1.036133,2.832061,2.274809,-1.137405,1.039301,3.806444,7586,13106,5519,7586,0,61.594,6,load
1780590757.8669384,18.00565259999712,398469,0.037842,0.015381,1.046875,1.91603,4.847328,-0.290076,1.047672,5.220336,7587,13108,5520,7587,0,61.594,6,load
1780590757.8989167,18.037630999999237,398500,0.046387,-0.032959,1.090088,0.045802,1.664122,0.030534,1.091572,1.665032,7588,13111,5522,7588,1,61.594,16,load
1780590757.9291642,18.0678784000047,398531,0.047607,-0.067139,1.022217,2.992366,2.664122,-1.824428,1.025525,4.40231,7591,13116,5524,7591,0,61.594,0,load
1780590757.9604948,18.099208999992697,398562,0.075684,-0.001221,1.057861,0.89313,4.89313,0.916031,1.060566,5.057619,7592,13118,5525,7592,0,60.932,6,load
1780590757.989821,18.128535199997714,398592,0.056152,-0.023438,1.081299,1.19084,1.480916,0.335878,1.08301,1.929773,7594,13123,5528,7594,1,60.932,14,load
1780590758.0216837,18.160398099993472,398623,0.074707,-0.052979,1.053223,2.847328,3.122137,-1.587786,1.057197,4.513988,7596,13126,5529,7596,0,60.932,7,load
1780590758.0528393,18.191553500000737,398654,0.071533,-0.028809,1.059814,0.480916,4.183206,0.648855,1.062616,4.260458,7597,13128,5530,7597,0,60.932,6,load
1780590758.0839818,18.222695999997086,398685,0.042969,-0.024414,1.062012,2.290076,1.496183,-0.40458,1.063161,2.765266,7600,13132,5531,7600,0,60.932,7,load
1780590758.115013,18.253727100003744,398717,0.033447,-0.033447,1.03833,3.022901,3.977099,-1.633588,1.039407,5.25584,7601,13134,5532,7601,0,60.932,7,load
1780590758.1458135,18.28452770000149,398748,0.024414,-0.000244,1.057373,-0.343511,2.022901,-0.053435,1.057655,2.052555,7602,13137,5534,7602,1,60.932,17,load
1780590758.177615,18.31632929999614,398779,0.040527,-0.055664,1.035644,2.80916,1.938931,-0.862595,1.037931,3.52064,7604,13140,5535,7604,0,60.932,7,load
1780590758.2200153,18.358729600004153,398810,0.040039,0.008789,1.033447,2.748092,4.70229,-0.885496,1.03426,5.517938,7605,13142,5536,7605,0,60.932,7,load
1780590758.238932,18.37764619999507,398840,0.050049,-0.029541,1.077393,-0.007634,1.900763,-0.183206,1.078959,1.909587,7606,13145,5538,7606,1,50.36,17,load
1780590758.269045,18.407759499998065,398871,0.072021,-0.060791,1.033447,3.396947,2.351145,-1.145038,1.037736,4.286985,7609,13150,5540,7609,0,50.36,0,load
1780590758.3008616,18.439575900003547,398902,0.063721,0.010498,1.058594,1.770992,4.671756,-0.503817,1.060562,5.021508,7610,13152,5541,7610,0,50.36,7,load
1780590758.3315756,18.470289899996715,398933,0.05835,-0.027588,1.082764,0.129771,1.458015,-0.274809,1.084686,1.489352,7611,13155,5543,7611,1,50.36,16,load
1780590758.3623185,18.501032800006215,398964,0.08252,-0.04248,1.036377,3.198473,2.954198,-1.610687,1.040524,4.642395,7613,13158,5544,7613,0,50.36,7,load
1780590758.3931835,18.53189779999957,398995,0.092773,-0.012207,1.060303,0.648855,4.42748,0.70229,1.064424,4.529548,7614,13160,5545,7614,0,50.36,7,load
1780590758.4242692,18.562983600000734,399026,0.042725,-0.014404,1.064453,2.175573,1.29771,-0.206107,1.065408,2.541584,7616,13163,5546,7616,1,50.36,15,load
1780590758.4561973,18.59491149999667,399057,0.068359,-0.029541,1.031738,3.083969,3.908397,-0.992366,1.034422,5.076536,7620,13168,5547,7620,0,50.36,7,load
1780590758.4868877,18.62560200000007,399089,0.00415,0.010742,1.054932,0.48855,2.748092,0.427481,1.054994,2.823726,7622,13173,5550,7622,1,50.36,14,load
1780590758.5181606,18.65687479999906,399120,0.053223,-0.030762,1.04126,3.328244,2.251908,-0.061069,1.043073,4.018958,7624,13176,5551,7624,0,64.286,6,load
1780590758.5492964,18.68801070000336,399151,0.059326,-0.01001,1.039307,2.450382,5.145038,1.160305,1.041047,5.815676,7625,13178,5552,7625,0,64.286,6,load
1780590758.5811353,18.719849600005546,399182,0.018066,-0.005859,1.07666,-0.076336,2.045802,-0.030534,1.076828,2.047453,7626,13181,5554,7626,1,64.286,16,load
1780590758.611406,18.750120400000014,399213,0.059814,-0.036621,1.033936,3.763359,3.152672,0.129771,1.036312,4.911114,7631,13188,5556,7631,0,64.286,1,load
1780590758.6430557,18.781770000001416,399244,0.040527,-0.012451,1.071777,5.534352,2.938931,0.396947,1.072616,6.278848,7633,13192,5558,7633,0,64.286,1,load
1780590758.673579,18.81229329999769,399275,0.054199,-0.023193,1.056641,-1.030534,1.992366,-0.458015,1.058284,2.289389,7634,13195,5560,7634,1,64.286,16,load
1780590758.704248,18.84296219999669,399306,0.082764,-0.033936,1.028809,0.045802,6.366412,0.885496,1.03269,6.427862,7636,13198,5561,7636,0,64.286,7,load
1780590758.7345095,18.873223799993866,399337,0.0625,-0.013184,1.047852,1.847328,3.625954,-0.091603,1.049797,4.070449,7637,13200,5562,7637,0,64.286,7,load
1780590758.7676783,18.906392599994433,399368,0.059814,-0.029785,1.083496,1.282443,1.801527,-1.091603,1.085554,2.466122,7640,13205,5564,7640,1,64.286,14,load
1780590758.7976923,18.93640659999801,399399,0.058105,-0.026855,1.037354,2.503817,4.076336,-1.664122,1.039327,5.065068,7645,13212,5566,7645,0,75.269,1,load
1780590758.8289857,18.967699999993783,399430,0.053223,0.015869,1.053223,0.160305,3.885496,0.496183,1.054686,3.920329,7646,13214,5567,7646,0,75.269,6,load
1780590758.859047,18.997761299993726,399461,0.062256,-0.024902,1.068604,2.396947,2.076336,-0.435114,1.070705,3.200914,7649,13218,5568,7649,0,75.269,7,load
1780590758.8913252,19.030039499994018,399492,0.104736,-0.032227,1.04541,2.396947,4.358778,-1.480916,1.051138,5.190127,7650,13220,5569,7650,0,75.269,6,load
1780590758.922081,19.060795400000643,399523,0.029053,-0.024658,1.059814,-0.083969,1.832061,-0.335878,1.060499,1.864487,7651,13223,5571,7651,1,75.269,16,load
1780590758.9532452,19.091959500001394,399555,0.066406,-0.037109,1.049072,2.59542,2.679389,-1.206107,1.051827,3.920462,7654,13228,5573,7654,0,75.269,0,load
1780590758.9836435,19.122357899992494,399586,0.055176,-0.001953,1.048828,1.435114,4.343512,-0.80916,1.05028,4.64547,7655,13230,5574,7655,0,75.269,7,load
1780590759.0154417,19.15415600000415,399617,0.050537,-0.029053,1.079102,0.10687,1.824428,0.099237,1.080675,1.830247,7656,13233,5576,7656,1,75.269,17,load
1780590759.0457733,19.184487499995157,399648,0.062744,-0.051758,1.019043,3.366412,3.21374,-0.671756,1.022284,4.702352,7658,13236,5577,7658,0,75.269,7,load
1780590759.0770593,19.215773499992792,399679,0.053955,-0.014404,1.061279,0.229008,4.343512,-0.389313,1.062748,4.366933,7659,13238,5578,7659,0,50.0,7,load
1780590759.1089442,19.247658399996,399710,0.025146,-0.018799,1.072266,1.412214,1.396947,-1.068702,1.072725,2.255644,7661,13241,5579,7661,1,50.0,15,load
1780590759.1410558,19.279770099994494,399742,0.046143,-0.034424,1.040039,3.366412,3.938931,-1.091603,1.041631,5.295234,7665,13246,5580,7665,0,50.0,6,load
1780590759.1712344,19.30994869999995,399773,0.015869,-0.002197,1.044434,0.396947,2.473282,-0.19084,1.044556,2.512193,7666,13249,5582,7666,1,50.0,16,load
1780590759.2022126,19.340926999997464,399804,0.049316,-0.004395,1.048584,2.770992,3.022901,-0.229008,1.049752,4.107161,7668,13252,5583,7668,0,50.0,7,load
1780590759.2334132,19.372127599999658,399835,0.057129,-0.013428,1.047119,2.740458,4.030534,-2.015267,1.048762,5.274146,7669,13254,5584,7669,0,50.0,7,load
1780590759.263465,19.40217929999926,399866,0.020508,-0.006592,1.068848,-0.022901,1.152672,-0.709924,1.069065,1.353946,7671,13259,5587,7671,1,50.0,14,load
1780590759.2958224,19.434536799992202,399897,0.046387,-0.022949,1.041992,3.267176,2.801527,-0.572519,1.043277,4.341747,7675,13264,5588,7675,0,50.0,7,load
1780590759.3253043,19.46401870000409,399928,0.026855,0.003906,1.045166,1.900763,3.969466,-1.099237,1.045518,4.536285,7676,13266,5589,7676,0,50.0,7,load
1780590759.358347,19.497061200003373,399959,0.041504,-0.035889,1.075439,0.381679,1.519084,-0.923664,1.076838,1.818365,7677,13269,5591,7677,1,64.286,16,load
1780590759.3880649,19.52677909999329,399990,0.05249,-0.056885,1.035644,2.984733,2.931298,-1.427481,1.038533,4.420276,7679,13272,5592,7679,0,64.286,6,load
1780590759.4197838,19.55849820000003,400021,0.070801,-0.004639,1.053223,1.610687,4.099236,-0.160305,1.05561,4.407238,7681,13276,5594,7681,0,64.286,0,load
1780590759.4500787,19.588793000002624,400052,0.05127,-0.032227,1.078613,0.137405,1.549618,-1.381679,1.080312,2.080681,7684,13281,5596,7684,1,64.286,14,load
1780590759.482223,19.62093740000273,400083,0.064697,-0.036865,1.031738,3.015267,3.610687,-1.587786,1.034422,4.964873,7686,13284,5597,7686,0,64.286,7,load
1780590759.5114765,19.650190899992594,400114,0.080322,0.000488,1.061279,0.366412,3.122137,0.030534,1.064315,3.143713,7687,13286,5598,7687,0,64.286,6,load
1780590759.5448382,19.683552400005283,400145,0.036133,0.016113,1.053955,2.694656,1.839695,-0.59542,1.054697,3.316651,7690,13290,5599,7690,0,64.286,7,load
1780590759.576627,19.715341400005855,400177,0.040771,-0.028809,1.049561,1.412214,4.91603,-1.40458,1.050747,5.3042,7692,13294,5601,7692,0,64.286,0,load
1780590759.605606,19.744320400001016,400208,0.004639,0.000488,1.069336,-0.435114,1.717557,-0.564886,1.069346,1.859684,7693,13297,5603,7693,1,64.286,16,load
1780590759.6362038,19.774917999995523,400238,0.071777,-0.019775,1.044678,3.099237,2.267176,-0.137405,1.047327,3.842426,7695,13300,5604,7695,0,64.516,7,load
1780590759.6670115,19.805725700003677,400269,0.026855,0.00708,1.054443,2.114504,4.198474,-1.175572,1.054809,4.845646,7696,13302,5605,7696,0,64.516,7,load
1780590759.6982064,19.836920699992334,400300,0.053223,-0.011963,1.067383,-0.366412,1.641221,-0.679389,1.068776,1.81368,7697,13305,5607,7697,1,64.516,16,load
1780590759.7291553,19.867869599998812,400331,0.090576,-0.065186,1.042969,2.946565,2.694656,-1.351145,1.048922,4.21533,7700,13310,5609,7700,0,64.516,1,load
1780590759.7612214,19.899935800000094,400362,0.085693,0.011475,1.061035,1.458015,4.496184,-0.48855,1.064552,4.751858,7701,13312,5610,7701,0,64.516,6,load
1780590759.7909286,19.92964299999585,400393,0.070312,-0.0271,1.091797,0.0,1.198473,-0.961832,1.094394,1.536704,7703,13317,5613,7703,1,64.516,14,load
1780590759.8219602,19.960674600006314,400424,0.06665,-0.038574,1.033447,2.954198,3.343511,-1.29771,1.036312,4.646548,7705,13320,5614,7705,0,64.516,7,load
1780590759.8524387,19.991152999995393,400455,0.075195,-0.003174,1.066162,0.587786,4.419848,0.244275,1.068815,4.465446,7706,13322,5615,7706,0,64.516,7,load
1780590759.8853738,20.024088199992548,400486,0.04541,-0.018799,1.065674,1.480916,1.015267,-0.900763,1.066806,2.008794,7709,13326,5616,7709,0,64.516,7,load
1780590759.9152498,20.0539640999923,400518,0.076172,-0.009033,1.029297,3.175573,4.358778,-1.534351,1.032151,5.60691,7713,13332,5618,7713,0,64.286,0,load
1780590759.9465134,20.085227699993993,400548,0.053955,0.00293,1.061279,0.221374,3.564885,0.236641,1.062654,3.579583,7715,13337,5621,7715,1,64.286,14,load
1780590759.9778018,20.11651599999459,400579,0.075928,-0.019775,1.068359,2.656489,1.908397,-0.274809,1.071237,3.282443,7717,13340,5622,7717,0,64.286,7,load
1780590760.0086389,20.14735319999454,400610,0.083008,-0.013428,1.032227,2.656489,4.343512,-1.099237,1.035646,5.208776,7718,13342,5623,7718,0,64.286,6,load
1780590760.039949,20.1786632000003,400641,0.028564,0.015625,1.064941,-0.366412,2.175573,-0.129771,1.065439,2.210026,7719,13345,5625,7719,1,64.286,16,load
1780590760.0709548,20.209669000003487,400672,0.090088,-0.046631,1.047607,3.419847,2.526718,-0.78626,1.052507,4.324102,7725,13352,5626,7725,0,64.286,0,load
1780590760.1016765,20.24039079999784,400704,0.085693,-0.012939,1.054688,2.305344,4.59542,-0.427481,1.058242,5.158995,7727,13356,5628,7727,0,64.286,1,load
1780590760.1415188,20.28023309999844,400735,0.062744,-0.026123,1.087158,0.290076,1.374046,-0.427481,1.089281,1.467953,7728,13359,5630,7728,1,64.286,16,load
1780590760.16379,20.302504199993564,400766,0.080322,-0.064209,1.023193,3.152672,3.541985,-1.29771,1.028348,4.916202,7730,13362,5631,7730,0,64.286,7,load
1780590760.1947355,20.33344980000402,400797,0.080322,-0.000977,1.070312,0.717557,4.068702,-0.061069,1.073323,4.131943,7731,13364,5632,7731,0,64.516,7,load
1780590760.227205,20.36591930000577,400828,0.073975,-0.039307,1.083252,1.236641,1.122137,-0.687023,1.086486,1.805678,7734,13369,5634,7734,1,64.516,14,load
1780590760.25653,20.39524440000241,400859,0.068359,-0.00415,1.040527,3.160305,3.412214,-1.648855,1.042779,4.934517,7739,13376,5636,7739,0,64.516,1,load
1780590760.2880836,20.426797899999656,400890,0.053467,0.000732,1.058838,0.183206,3.374046,0.282443,1.060187,3.3908,7740,13379,5638,7740,1,64.516,16,load
1780590760.3194997,20.458213999998407,400921,0.066406,-0.0354,1.067627,2.89313,1.694656,-1.015267,1.070276,3.50326,7742,13382,5639,7742,0,64.516,7,load
1780590760.352274,20.49098829999275,400953,0.096924,-0.022949,1.047363,2.229008,4.152672,-1.473282,1.052089,4.937988,7743,13384,5640,7743,0,64.516,7,load
1780590760.3829598,20.52167410000402,400984,0.054932,-0.019043,1.067139,-0.381679,1.526718,-0.221374,1.068721,1.589199,7745,13389,5643,7745,1,64.516,13,load
1780590760.414605,20.55331930000102,401015,0.072266,-0.052734,1.04541,2.801527,2.312977,-1.48855,1.049231,3.926092,7748,13394,5645,7748,0,64.516,0,load
1780590760.4456162,20.58433060000243,401047,0.058838,0.01416,1.051514,1.366412,4.236642,-0.290076,1.053254,4.460982,7749,13396,5646,7749,0,72.0,7,load
1780590760.477137,20.615851299997303,401078,0.059814,-0.023193,1.082275,0.114504,1.099237,-0.496183,1.084175,1.211458,7750,13399,5648,7750,1,72.0,16,load
1780590760.5076888,20.646403000006103,401109,0.071533,-0.046875,1.029785,3.015267,2.992366,-1.671756,1.03333,4.56518,7752,13402,5649,7752,0,72.0,6,load
1780590760.5393896,20.678103900005226,401140,0.074707,-0.010254,1.053955,0.732824,4.290076,0.29771,1.056649,4.362386,7754,13406,5651,7754,0,72.0,1,load
1780590760.5685024,20.707216800001333,401171,0.037354,-0.025635,1.070801,1.70229,1.10687,-0.938931,1.071759,2.237084,7759,13412,5652,7759,0,72.0,7,load
1780590760.6001992,20.73891349999758,401201,0.075928,-0.032227,1.02124,2.854962,3.664122,-1.412214,1.024566,4.854992,7762,13416,5653,7762,0,72.0,7,load
1780590760.630042,20.768756499994197,401232,0.080322,-0.005127,1.056885,0.465649,4.152672,0.580153,1.059945,4.218778,7763,13418,5654,7763,0,72.0,6,load
1780590760.662432,20.801146300000255,401262,0.056396,-0.029053,1.066406,1.877863,1.129771,-1.129771,1.068292,2.46559,7766,13422,5655,7766,0,72.0,7,load
1780590760.6924844,20.83119880000595,401294,0.047363,-0.021973,1.026856,2.679389,4.229008,-1.152672,1.028182,5.137342,7768,13426,5657,7768,0,72.0,0,load
1780590760.7241082,20.86282249999931,401325,0.049805,-0.014893,1.07251,-0.061069,3.022901,0.633588,1.073769,3.08919,7770,13431,5660,7770,1,75.54,14,load
1780590760.7556238,20.894338099999004,401357,0.088379,-0.062012,1.039551,3.358779,2.374046,-0.969466,1.045142,4.225796,7774,13438,5663,7774,0,75.54,6,load
1780590760.786189,20.924903399994946,401388,0.054688,0.013916,1.057617,2.641221,4.374046,-0.259542,1.059122,5.116218,7775,13440,5664,7775,0,75.54,7,load
1780590760.817665,20.956379499999457,401419,0.058594,-0.025635,1.083984,0.305344,1.145038,-0.641221,1.085869,1.347409,7776,13443,5666,7776,1,75.54,16,load
1780590760.8500733,20.988787700000103,401451,0.067627,-0.047363,1.02832,2.748092,3.221374,-1.91603,1.031629,4.647626,7778,13446,5667,7778,0,75.54,7,load
1780590760.8804326,21.019146899998304,401482,0.0896,-0.021729,1.059082,0.175573,4.282442,0.816794,1.063087,4.363174,7780,13450,5669,7780,0,75.54,0,load
1780590760.9120734,21.050787700005458,401513,0.045166,-0.033936,1.081299,0.847328,0.992366,0.916031,1.082774,1.594324,7783,13455,5671,7783,1,75.54,13,load
1780590760.9426153,21.081329599997844,401544,0.04248,-0.018555,1.042236,3.061069,1.709924,0.412214,1.043267,3.530425,7785,13458,5672,7785,0,75.54,7,load
1780590760.9736767,21.11239090000163,401575,0.099854,-0.010498,1.037354,0.374046,4.793894,1.053435,1.042201,4.922504,7786,13460,5673,7786,0,64.0,6,load
1780590761.0044687,21.143182899992098,401606,0.044922,-0.053711,1.090332,4.061068,5.534352,-5.839694,1.092578,9.012401,7789,13464,5674,7789,0,64.0,7,load
1780590761.0348008,21.17351520000375,401637,0.074463,-0.053955,0.996094,3.053435,3.80916,-2.832061,1.000329,5.643912,7790,13466,5675,7790,0,64.0,6,load
1780590761.0655673,21.204281500002253,401668,0.028564,0.009033,1.063232,4.061068,8.702291,-1.755725,1.063654,9.762413,7791,13468,5676,7791,0,64.0,7,load
1780590761.0978918,21.23660610000661,401699,0.037842,0.033203,1.129639,1.198473,5.755726,1.229008,1.13076,6.006261,7792,13471,5678,7792,1,64.0,20,load
1780590761.1290317,21.267745999997715,401730,0.056152,0.012207,1.134033,-1.40458,-2.236641,2.328244,1.135488,3.520814,7794,13474,5679,7794,0,64.0,6,load
1780590761.1604424,21.29915659999824,401761,0.037354,-0.078857,1.036377,1.145038,-1.10687,-0.916031,1.040044,1.837222,7795,13476,5680,7795,0,64.0,6,load
1780590761.189196,21.327910499996506,401792,0.102051,-0.056641,0.988037,3.732824,8.0,-3.916031,0.994907,9.657601,7796,13478,5681,7796,0,64.0,6,load
1780590761.2210033,21.35971750000317,401822,0.087402,-0.056396,1.006836,3.70229,10.442748,-4.236642,1.012195,11.862001,7797,13480,5682,7797,0,64.0,5,load
1780590761.2538917,21.392606099994737,401854,0.06958,-0.025635,1.04126,4.08397,12.816793,-3.900763,1.043897,14.00589,7798,13482,5683,7798,0,43.011,5,load
1780590761.2860718,21.424786000003223,401886,0.049561,0.041504,1.030762,2.633588,13.396947,-3.496183,1.032787,14.093873,7799,13484,5684,7799,0,43.011,4,load
1780590761.3199058,21.458620100005646,401919,0.070068,-0.01001,1.04541,1.900763,13.045801,-0.114504,1.047804,13.184041,7800,13486,5685,7800,0,43.011,3,load
1780590761.3511932,21.48990760000015,401952,0.067383,-0.019043,1.046631,1.877863,7.419848,-1.274809,1.048971,7.75923,7801,13488,5686,7801,0,43.011,2,load
1780590761.3814852,21.520199499995215,401984,0.060547,-0.015869,1.049316,2.625954,6.374046,-4.221374,1.051182,8.08357,7802,13490,5687,7802,0,43.011,4,load
1780590761.4137614,21.552475599994068,402014,0.038818,-0.077637,1.022949,2.641221,11.503817,-4.40458,1.026625,12.598182,7803,13492,5688,7803,0,43.011,5,load
1780590761.4445555,21.58326980000129,402046,0.062988,-0.034668,1.052246,2.694656,5.603054,-4.198474,1.0547,7.50217,7804,13494,5689,7804,0,43.011,4,load
1780590761.4767563,21.615470699995058,402078,0.068359,-0.141846,1.02124,2.442748,0.793893,-0.320611,1.033308,2.58845,7805,13496,5690,7805,0,43.011,4,load
1780590761.5076993,21.646413499998744,402109,0.032227,-0.031494,1.062744,0.59542,0.641221,1.908397,1.063699,2.099445,7805,13497,5691,7805,1,27.451,33,load
1780590761.5402956,21.67900999999256,402141,0.029785,0.102539,1.107178,1.152672,0.282443,3.152672,1.112315,3.368644,7806,13498,5691,7806,0,27.451,12,load
1780590761.5722373,21.71095150000474,402173,0.02832,0.037598,1.042236,0.10687,0.732824,0.770992,1.043299,1.069057,7808,13500,5691,7808,0,27.451,0,load
1780590761.603964,21.742678399998113,402205,0.030518,-0.011719,1.179199,1.763359,2.038168,-2.48855,1.179652,3.668302,7809,13502,5692,7809,0,27.451,3,load
1780590761.6337154,21.772429699994973,402236,0.059326,0.03833,1.02002,2.946565,6.099236,-3.587786,1.022462,7.66519,7810,13504,5693,7810,0,27.451,4,load
1780590761.6641233,21.80283749999944,402266,0.072998,-0.108643,1.026367,2.473282,1.900763,0.381679,1.034679,3.142564,7813,13508,5694,7813,0,27.451,0,load
1780590761.695928,21.834642400004668,402297,0.072998,-0.056396,1.047852,0.946565,2.206107,1.152672,1.051904,2.662996,7813,13509,5695,7813,1,27.451,35,load
1780590761.7278156,21.866529899998568,402329,0.036377,-0.083008,1.050293,0.587786,2.381679,-0.89313,1.054196,2.610665,7814,13510,5695,7814,0,27.451,10,load
1780590761.7592762,21.89799050000147,402361,0.028564,0.077881,1.071533,1.351145,3.229008,-0.480916,1.074739,3.53318,7816,13512,5695,7816,0,43.651,0,load
1780590761.790121,21.928835300001083,402392,0.066406,0.010742,1.056152,1.175572,3.465649,-2.427481,1.058292,4.39151,7817,13514,5696,7817,0,43.651,4,load
1780590761.8208237,21.959537899994757,402423,0.042725,-0.033691,1.068359,2.053435,2.832061,-1.618321,1.069744,3.854365,7818,13516,5697,7818,0,43.651,3,load
1780590761.8525064,21.99122080000234,402454,0.043213,-0.150146,1.033447,0.59542,2.610687,-0.748092,1.045191,2.780261,7818,13516,5697,7818,0,43.651,3,load
1780590761.8842566,22.022970799996983,402486,0.036621,-0.133545,1.039307,1.335878,2.48855,0.450382,1.048491,2.860121,7820,13518,5697,7820,0,43.651,0,load
1780590761.9152608,22.0539751000033,402517,0.061523,-0.088867,1.05127,0.610687,3.129771,-2.603053,1.056811,4.116344,7821,13520,5698,7821,0,43.651,3,load
1780590761.9465778,22.085292200004915,402548,0.065674,0.036621,1.073486,2.450382,3.374046,-1.259542,1.076117,4.356031,7822,13522,5699,7822,0,43.651,3,load
1780590761.9781199,22.116834200001904,402579,0.036621,-0.073242,1.030518,0.709924,3.083969,0.030534,1.033766,3.164774,7822,13522,5699,7822,0,43.651,3,load
1780590762.0081751,22.146889399999054,402610,0.063965,0.10083,1.095215,2.549618,2.78626,-0.412214,1.101705,3.799173,7823,13524,5700,7823,0,43.651,1,load
1780590762.0397682,22.178482599993004,402641,0.036377,-0.188232,1.014648,0.427481,3.328244,-1.709924,1.032602,3.766137,7824,13526,5701,7824,0,28.571,4,load
1780590762.0706089,22.20932310000353,402672,0.071045,0.110352,1.079834,2.656489,3.854962,1.152672,1.08778,4.821443,7824,13526,5701,7824,0,28.571,4,load
1780590762.102397,22.24111129999801,402704,0.025391,-0.173096,1.020752,0.824427,2.709924,-1.40458,1.035636,3.161678,7826,13528,5701,7826,0,28.571,0,load
1780590762.133296,22.272010300002876,402735,0.045654,0.117432,1.089111,3.152672,3.061069,0.038168,1.096375,4.394422,7827,13530,5702,7827,0,28.571,3,load
1780590762.165797,22.304511399997864,402767,0.046631,0.138184,1.092285,0.740458,2.343511,-1.564886,1.101978,2.913622,7827,13531,5703,7827,1,28.571,42,load
1780590762.197037,22.335751299993717,402798,0.04541,0.026123,1.052734,1.740458,3.312977,0.290076,1.054037,3.753552,7828,13532,5703,7828,0,28.571,11,load
1780590762.2349856,22.373699799994938,402836,0.024902,-0.143799,1.019531,1.534351,3.022901,-0.053435,1.029923,3.39043,7829,13534,5704,7829,0,28.571,3,load
1780590762.2657228,22.40443700000469,402867,0.039551,0.091309,1.069336,2.458015,3.877863,-0.80916,1.073956,4.662017,7830,13536,5705,7830,0,28.571,3,load
1780590762.2967117,22.43542609999713,402898,0.055176,-0.107422,1.032227,0.70229,2.854962,-0.977099,1.039267,3.098184,7830,13536,5705,7830,0,23.346,3,load
1780590762.3283467,22.467061000003014,402929,0.03833,-0.095459,1.031494,2.679389,2.931298,0.839695,1.036611,4.059152,7832,13538,5705,7832,0,23.346,0,load
1780590762.3590264,22.49774069999694,402961,0.051514,-0.104492,1.049561,0.396947,2.59542,-1.977099,1.056006,3.286745,7833,13540,5706,7833,0,23.346,3,load
1780590762.3897889,22.528503199995612,402991,0.053711,-0.01123,1.067139,0.954198,2.328244,-0.603053,1.068548,2.587448,7834,13542,5707,7834,0,23.346,2,load
1780590762.4228525,22.56156679999549,403023,0.063721,0.077393,1.081299,2.183206,3.053435,-0.290076,1.085936,3.764837,7834,13542,5707,7834,0,23.346,2,load
1780590762.4529479,22.591662199993152,403054,0.039062,-0.207031,0.998535,0.122137,3.496183,-2.587786,1.02052,4.35142,7836,13546,5709,7836,0,23.346,1,load
1780590762.484324,22.623038399993675,403085,0.041748,-0.047119,1.046875,2.816794,4.015268,-0.412214,1.048766,4.922054,7839,13550,5710,7839,0,23.346,0,load
1780590762.5139322,22.652646599992295,403116,0.050537,0.180908,1.119629,2.618321,3.251908,1.221374,1.135276,4.349973,7839,13550,5710,7839,0,23.346,0,load
1780590762.546007,22.68472119999933,403147,0.036865,0.134766,1.095215,2.022901,3.122137,-1.068702,1.104091,3.870658,7841,13552,5710,7841,0,23.346,1,load
1780590762.575878,22.71459230000619,403178,0.02417,-0.205811,0.999268,0.419847,3.137405,-2.458015,1.020528,4.00767,7842,13554,5711,7842,0,42.857,0,load
1780590762.6070533,22.74576760000491,403209,0.03125,-0.198975,1.0271,1.053435,2.251908,0.21374,1.046662,2.495296,7842,13554,5711,7842,0,42.857,0,load
1780590762.6389782,22.777692599993316,403240,0.04126,-0.112549,1.031006,2.465649,3.854962,-0.251908,1.037951,4.58297,7842,13554,5711,7842,0,42.857,0,load
1780590762.6707885,22.809502899996005,403272,0.049072,0.184082,1.107422,2.725191,3.198473,-0.244275,1.123689,4.209105,7845,13558,5712,7845,0,42.857,0,load
1780590762.7010274,22.839741699994192,403303,0.054443,0.174561,1.114258,2.832061,3.038168,0.290076,1.129162,4.163554,7845,13558,5712,7845,0,42.857,0,load
1780590762.7333999,22.872114199999487,403334,0.048584,0.090576,1.085693,1.236641,3.045802,-1.198473,1.090548,3.498932,7845,13558,5712,7845,0,42.857,0,load
1780590762.764463,22.903177300002426,403366,0.040527,-0.070557,1.041504,0.793893,3.358779,-2.679389,1.044678,4.3693,7847,13560,5712,7847,0,42.857,0,load
1780590762.794782,22.933496199999354,403397,0.052246,0.161865,1.111572,2.450382,3.40458,0.022901,1.12451,4.194766,7847,13560,5712,7847,0,42.857,0,load
1780590762.825485,22.964199199996074,403427,0.0271,-0.121094,1.035889,1.847328,2.648855,-0.59542,1.043294,3.283836,7849,13562,5712,7849,0,42.857,0,load
1780590762.8567116,22.99542599999404,403458,0.050781,-0.168945,1.004394,0.541985,2.801527,-1.78626,1.019769,3.366456,7851,13564,5712,7851,0,32.143,0,load
1780590762.8882499,23.02696420000575,403490,0.036133,-0.062988,1.044678,-0.465649,2.732824,-2.664122,1.047198,3.844828,7851,13564,5712,7851,0,32.143,0,load
1780590762.919732,23.058446399998502,403521,0.057129,0.120605,1.092529,2.236641,3.671756,-1.412214,1.10065,4.52534,7851,13564,5712,7851,0,32.143,0,load
1780590762.9512808,23.089995100002852,403553,0.055176,0.125488,1.109375,3.305344,3.618321,0.572519,1.117812,4.934098,7851,13564,5712,7851,0,32.143,0,load
1780590762.9822023,23.12091650000366,403584,0.0354,-0.092773,1.03833,0.748092,2.778626,-2.022901,1.043067,3.517461,7851,13564,5712,7851,0,32.143,0,load
1780590763.014162,23.152876399995876,403615,0.046875,0.140137,1.11377,3.015267,2.908397,0.618321,1.123529,4.234729,7851,13564,5712,7851,0,32.143,0,load
1780590763.046051,23.184765300000436,403647,0.062988,0.055176,1.043457,0.351145,3.274809,-1.267176,1.046812,3.528939,7851,13564,5712,7851,0,32.143,0,load
1780590763.0764756,23.21518990000186,403678,0.043457,-0.128174,1.031006,2.526718,2.969466,0.374046,1.039851,3.916879,7851,13564,5712,7851,0,32.143,0,load
1780590763.1084976,23.247211900001275,403709,0.036621,0.078369,1.07959,1.366412,2.832061,-1.801527,1.08305,3.623969,7851,13564,5712,7851,0,0.0,0,load
1780590763.1397133,23.278427600002033,403741,0.039062,-0.017334,1.064697,2.305344,3.129771,-0.129771,1.065554,3.889334,7851,13564,5712,7851,0,0.0,0,load
1780590763.170764,23.309478299997863,403772,0.040283,0.036377,1.063721,0.610687,2.961832,-2.312977,1.065105,3.807263,7851,13564,5712,7851,0,0.0,0,load
1780590763.201472,23.340186300003552,403803,0.053955,0.10498,1.086426,2.435115,3.267176,-0.564886,1.092819,4.113796,7853,13566,5712,7853,0,0.0,0,load
1780590763.2325149,23.371229199998197,403834,0.027588,-0.024902,1.070557,2.610687,3.305344,0.770992,1.071201,4.281987,7853,13566,5712,7853,0,0.0,0,load
1780590763.263508,23.402222499993513,403865,0.015381,-0.118164,1.048828,1.198473,3.564885,-0.381679,1.055576,3.780268,7855,13568,5712,7855,0,0.0,1,load
1780590763.294714,23.4334283000062,403896,0.040283,-0.010986,1.071533,1.152672,2.435115,-1.832061,1.072346,3.258049,7856,13570,5713,7856,0,0.0,2,load
1780590763.3256025,23.46431680000387,403927,0.033936,0.048584,1.064941,1.969466,1.801527,-2.580153,1.066589,3.712342,7857,13572,5714,7857,0,0.0,3,load
1780590763.3579202,23.496634399998584,403959,0.050781,-0.025635,1.084228,1.885496,-2.335878,-1.732824,1.08572,3.466136,7857,13573,5715,7857,1,24.0,32,load
1780590763.3881562,23.526870600006077,403990,0.04248,0.00708,1.088867,0.610687,-6.534352,-2.450382,1.089718,7.005359,7858,13575,5716,7858,1,24.0,19,load
1780590763.419053,23.55776739999419,404021,0.090332,-0.06665,1.032959,1.496183,-4.480916,-2.114504,1.039041,5.175741,7860,13578,5717,7860,0,24.0,6,load
1780590763.4510255,23.589739699993515,404052,0.039551,-0.057617,1.011719,4.450382,2.687023,-4.137404,1.01413,6.644103,7861,13580,5718,7861,0,24.0,6,load
1780590763.4803097,23.619023999999627,404083,0.05957,0.00293,1.075684,2.610687,4.625954,-1.618321,1.077336,5.552846,7862,13582,5719,7862,0,24.0,7,load
1780590763.5123158,23.651030099994387,404113,0.037109,-0.015381,1.067871,0.587786,2.053435,-0.160305,1.068626,2.141912,7863,13585,5721,7863,1,24.0,17,load
1780590763.5422082,23.680922600004124,404144,0.052246,-0.039062,1.032959,3.21374,2.076336,-2.290076,1.035017,4.45912,7865,13588,5722,7865,0,24.0,6,load
1780590763.5729024,23.711616800006595,404175,0.066162,0.02124,1.054688,1.145038,4.29771,-1.618321,1.056974,4.732904,7866,13590,5723,7866,0,24.0,6,load
1780590763.6048484,23.74356259999331,404206,0.049072,-0.035156,1.084717,-0.10687,0.984733,-0.503817,1.086395,1.111284,7867,13593,5725,7867,1,24.0,17,load
1780590763.634949,23.773663300002227,404237,0.062256,-0.059326,1.0271,3.48855,2.29771,-1.679389,1.030693,4.502199,7869,13596,5726,7869,0,43.165,6,load
1780590763.6665604,23.805274800004554,404268,0.060059,0.019043,1.054199,0.862595,4.67939,0.267176,1.05608,4.765726,7870,13598,5727,7870,0,43.165,6,load
1780590763.6971054,23.83581970000523,404299,0.03125,-0.038086,1.074219,0.908397,0.557252,-1.351145,1.075348,1.720845,7872,13601,5728,7872,1,43.165,16,load
1780590763.7288845,23.86759880000318,404330,0.065186,-0.018555,1.030762,3.320611,3.19084,-2.351145,1.032988,5.170667,7874,13604,5729,7874,0,43.165,6,load
1780590763.7589214,23.897635799992713,404361,0.086914,-0.001221,1.056396,0.770992,4.625954,0.946565,1.059966,4.784336,7875,13606,5730,7875,0,43.165,6,load
1780590763.7909825,23.929696899998817,404392,0.040771,-0.036621,1.063721,2.496183,1.236641,-0.977099,1.065131,2.952107,7878,13610,5731,7878,0,43.165,7,load
1780590763.8226054,23.961319800000638,404424,0.092529,-0.019775,1.041992,2.51145,4.603054,-1.053435,1.046279,5.348384,7879,13612,5732,7879,0,43.165,6,load
1780590763.8536112,23.992325600003824,404455,0.030762,-0.001465,1.070557,-0.022901,2.564885,1.022901,1.071,2.761428,7880,13615,5734,7880,1,43.165,17,load
1780590763.8846235,24.023337799997535,404486,0.051514,-0.033936,1.040527,3.236641,1.610687,-0.748092,1.042354,3.691856,7882,13618,5735,7882,0,43.165,7,load
1780590763.9156477,24.05436209999607,404517,0.054932,0.014648,1.058838,2.839695,4.229008,-0.801527,1.060363,5.156628,7884,13622,5737,7884,0,53.571,0,load
1780590763.947153,24.085867400004645,404548,0.041016,-0.014893,1.070312,0.076336,1.671756,0.015267,1.071202,1.673567,7885,13625,5739,7885,1,53.571,16,load
1780590763.9783838,24.117098200003966,404579,0.052246,-0.052979,1.031006,3.229008,2.564885,-1.435114,1.033687,4.366312,7887,13628,5740,7887,0,53.571,6,load
1780590764.0077012,24.14641539999866,404610,0.03418,0.024902,1.041016,1.793893,4.70229,-0.244275,1.041874,5.038775,7888,13630,5741,7888,0,53.571,6,load
1780590764.0388575,24.177571699998225,404640,0.029785,-0.049561,1.081787,0.229008,1.557252,-0.076336,1.083331,1.575851,7889,13633,5743,7889,1,53.571,16,load
1780590764.070504,24.209218200005125,404672,0.060059,-0.030762,1.035156,3.068702,2.900763,-2.099237,1.037353,4.715735,7892,13638,5745,7892,0,53.571,0,load
1780590764.1006203,24.23933460000262,404703,0.070557,0.003662,1.058594,0.656489,4.885496,0.59542,1.060949,4.965236,7893,13640,5746,7893,0,53.571,7,load
1780590764.1324677,24.27118209999753,404733,0.068115,-0.054688,1.087646,0.709924,1.10687,-0.748092,1.091148,1.512876,7895,13643,5747,7895,1,53.571,16,load
