host_epoch_s,host_elapsed_s,time_ms,ax,ay,az,gx,gy,gz,acc_mag,gyro_mag,pulse_count,edge_count,rise_count,fall_count,state,pulse_rate_hz,last_edge_dt_ms,label
1780604179.378067,0.005629099992802367,156,0.068115,0.011475,1.056885,-0.053435,3.519084,0.290076,1.05914,3.531424,10,17,7,10,0,0.0,5,load
1780604179.4106565,0.03821849999076221,187,0.04541,-0.018311,1.071777,0.473282,2.206107,6.694656,1.072895,7.064654,12,21,9,12,0,0.0,0,load
1780604179.441457,0.06901900000229944,218,0.10498,-0.072998,1.059814,2.152672,2.671756,7.946564,1.0675,8.655643,16,27,11,16,0,0.0,6,load
1780604179.4720786,0.09964050000417046,249,0.045898,0.001465,1.071533,4.503816,2.053435,-1.259542,1.072517,5.107584,18,31,13,18,0,0.0,6,load
1780604179.502121,0.12968299999192823,279,0.046631,0.004883,1.077881,0.977099,3.076336,-1.496183,1.0789,3.557686,20,35,15,20,0,71.685,0,load
1780604179.5320687,0.15963080000074115,310,0.010742,-0.034668,1.054199,1.633588,2.0,-1.122137,1.054824,2.815635,21,37,16,21,0,71.685,5,load
1780604179.563299,0.19086099999549333,340,0.043457,-0.000977,1.048828,1.335878,0.984733,-2.099237,1.049728,2.676016,22,39,17,22,0,71.685,2,load
1780604179.5956492,0.2232112999918172,371,0.014893,-0.033203,1.046631,1.328244,2.076336,-1.80916,1.047263,3.057526,25,44,19,25,1,71.685,17,load
1780604179.62507,0.25263219999033026,402,0.130615,-0.031006,1.047607,1.977099,3.687023,-0.236641,1.056174,4.190353,26,46,20,26,1,71.685,16,load
1780604179.6594622,0.28702429999248125,433,0.033203,0.003174,1.052002,2.137405,1.778626,-2.770992,1.05253,3.925609,28,49,21,28,0,71.685,6,load
1780604179.6857069,0.3132688000041526,463,0.061035,-0.058594,1.04834,1.022901,4.076336,-0.305344,1.051748,4.213796,29,51,22,29,0,71.685,7,load
1780604179.7182198,0.34578180000244174,494,0.053711,0.015625,1.047852,1.877863,4.465648,-0.328244,1.049344,4.855526,30,53,23,30,0,71.685,7,load
1780604179.7487316,0.37629369999922346,525,0.024658,-0.004395,1.051025,1.29771,3.473282,0.419847,1.051324,3.73149,31,55,24,31,0,71.685,7,load
1780604179.7782829,0.4058450000011362,555,0.062256,-0.003418,1.066162,1.030534,3.358779,-0.160305,1.067984,3.516972,33,59,26,33,0,47.101,7,load
1780604179.808932,0.43649419999565,586,0.063965,-0.041992,1.0625,1.801527,4.687022,-0.48855,1.065252,5.045033,34,61,27,34,0,47.101,7,load
1780604179.8399096,0.4674715000001015,617,0.070068,-0.087402,1.052734,1.473282,4.053436,-0.557252,1.058678,4.348727,37,65,28,37,0,47.101,7,load
1780604179.8717299,0.49929199999314733,648,0.025635,-0.024414,1.034424,1.206107,3.89313,-0.061069,1.035029,4.076136,38,67,29,38,0,47.101,8,load
1780604179.9024642,0.5300260999938473,679,0.051758,0.079102,1.047852,2.656489,3.038168,-1.717557,1.052107,4.386046,38,68,30,38,1,47.101,32,load
1780604179.9343338,0.5618958999984898,710,0.038818,-0.120117,1.056885,0.21374,3.198473,-0.137405,1.064397,3.20855,39,69,30,39,0,47.101,13,load
1780604179.965451,0.5930130999913672,742,0.048828,-0.058105,1.062256,1.152672,3.129771,-0.885496,1.064964,3.450829,42,73,31,42,0,47.101,11,load
1780604179.9975483,0.6251102999958675,773,0.027832,-0.100098,1.044678,2.068702,2.618321,-1.022901,1.049831,3.490194,42,74,32,42,1,47.101,39,load
1780604180.0283442,0.6559061000007205,805,0.028809,0.102783,1.055176,1.931298,2.045802,-1.305344,1.060561,3.101473,43,75,32,43,0,40.0,12,load
1780604180.0594919,0.6870538999937708,836,0.01416,-0.122314,1.045654,1.816794,1.755725,-3.328244,1.052879,4.178579,46,79,33,46,0,40.0,10,load
1780604180.0900905,0.7176524999958929,867,0.035645,-0.101807,1.048828,1.442748,2.664122,-1.580153,1.05436,3.417009,46,79,33,46,0,40.0,10,load
1780604180.1216617,0.7492236999969464,898,0.049805,-0.032471,1.040039,1.78626,4.0229,0.755725,1.041737,4.466047,47,81,34,47,0,40.0,2,load
1780604180.1520402,0.7796023999981117,929,0.044434,0.071777,1.070312,2.236641,2.603053,-0.862595,1.073636,3.538718,48,83,35,48,0,40.0,10,load
1780604180.1829393,0.8105014000029769,960,0.017334,-0.077148,1.027832,2.160305,3.175573,-0.748092,1.030869,3.912904,48,84,36,48,1,40.0,33,load
1780604180.214598,0.8421598999993876,991,0.03418,-0.138428,1.032715,1.824428,1.503817,-2.89313,1.042512,3.736335,49,85,36,49,0,40.0,13,load
1780604180.2454402,0.873002299995278,1022,0.075195,-0.035156,1.075928,-0.129771,4.030534,-0.671756,1.079125,4.08819,50,87,37,50,0,40.0,8,load
1780604180.276544,0.9041061000025366,1053,0.049805,0.05957,1.030518,2.183206,2.916031,-0.343511,1.033439,3.65891,53,91,38,53,0,40.0,10,load
1780604180.3078082,0.9353700999927241,1084,0.048828,-0.125244,1.062988,0.114504,3.015267,-0.603053,1.071454,3.077112,53,91,38,53,0,35.842,10,load
1780604180.3392575,0.9668195999984164,1116,0.059814,0.061035,1.071533,1.274809,2.847328,-1.770992,1.074936,3.587315,54,93,39,54,0,35.842,2,load
1780604180.3699675,0.9975294000032591,1147,0.007813,-0.01123,1.040527,2.427481,2.374046,-0.48855,1.040617,3.43037,55,95,40,55,0,35.842,10,load
1780604180.4013205,1.0288826000032714,1178,-0.003174,-0.128906,1.063477,1.778626,0.80916,-1.725191,1.071265,2.606633,55,96,41,55,1,35.842,32,load
1780604180.431236,1.0587980999989668,1208,0.070557,-0.008301,1.078857,0.045802,2.51145,-0.51145,1.081194,2.563408,56,97,41,56,0,35.842,16,load
1780604180.4627922,1.0903541000006953,1239,0.056152,0.131348,1.067383,2.641221,2.969466,-0.824427,1.076899,4.05875,57,99,42,57,0,35.842,6,load
1780604180.4925377,1.1200996999978088,1270,0.016846,0.000488,1.021728,2.366412,2.78626,-1.534351,1.021867,3.964516,58,101,43,58,0,35.842,9,load
1780604180.5250235,1.1525854999927105,1301,0.026367,0.001709,1.044189,2.839695,1.503817,-1.603053,1.044524,3.590976,58,102,44,58,1,35.842,33,load
1780604180.5540807,1.1816428000020096,1332,0.0354,0.059326,1.063965,0.534351,2.0,-1.770992,1.066205,2.724325,59,103,44,59,0,35.842,12,load
1780604180.5856004,1.213162400003057,1362,0.032959,-0.01709,1.037354,3.137405,3.053435,-0.671756,1.038018,4.429224,60,107,47,60,0,25.18,9,load
1780604180.6162267,1.2437886999978218,1393,0.122803,-0.021729,1.060303,0.496183,5.27481,-0.19084,1.067612,5.301531,60,108,48,60,1,25.18,34,load
1780604180.6486437,1.2762057999934768,1425,0.03833,-0.033691,1.062012,2.442748,1.900763,-2.877863,1.063237,4.226348,61,109,48,61,0,25.18,19,load
1780604180.68555,1.3131121000042185,1456,0.05127,-0.131104,1.073486,0.015267,4.137404,0.236641,1.082677,4.144194,62,111,49,62,0,25.18,4,load
1780604180.7101414,1.3377035000012256,1487,0.057617,0.09082,1.056152,2.068702,3.290076,-1.541985,1.061615,4.18113,63,113,50,63,0,25.18,10,load
1780604180.7422445,1.3698064999916824,1518,0.03418,-0.09668,1.062256,1.114504,1.70229,-1.412214,1.067194,2.476744,63,114,51,63,1,25.18,35,load
1780604180.7732434,1.4008055000012973,1549,0.022217,-0.057373,1.0354,2.580153,3.167939,-0.206107,1.037227,4.090905,64,115,51,64,0,25.18,10,load
1780604180.8042846,1.431846499996027,1581,0.057861,-0.004639,1.062256,0.877863,2.687023,-1.152672,1.063841,3.052767,67,119,52,67,0,25.18,10,load
1780604180.8343706,1.4619325999956345,1612,0.083252,-0.177979,1.052246,1.984733,5.061068,0.59542,1.070434,5.46883,67,120,53,67,1,28.0,34,load
1780604180.8645763,1.4921383000037167,1642,0.026367,0.050049,1.044189,1.80916,2.076336,0.0,1.045721,2.753948,68,121,53,68,0,28.0,16,load
1780604180.894831,1.5223929999920074,1672,0.033691,0.05542,1.044678,2.778626,2.80916,-0.519084,1.046689,3.985172,69,123,54,69,0,28.0,10,load
1780604180.9268076,1.5543697999964934,1703,0.131104,0.011719,1.040283,0.091603,5.328244,0.152672,1.048577,5.331218,69,124,55,69,1,28.0,34,load
1780604180.9573712,1.5849331999925198,1734,0.042725,0.07251,1.030273,2.824427,2.290076,-1.78626,1.033705,4.051242,70,125,55,70,0,28.0,18,load
1780604180.9884014,1.6159633999923244,1765,0.040527,-0.111572,1.062988,-0.358779,3.152672,-0.694656,1.069596,3.24817,71,127,56,71,0,28.0,4,load
1780604181.0195448,1.6471067999955267,1796,0.029053,0.049561,1.032959,3.053435,2.770992,-1.969466,1.034555,4.569536,74,131,57,74,0,28.0,9,load
1780604181.0505776,1.6781398000021,1827,0.053467,-0.123535,1.066162,1.687023,2.419847,-1.992366,1.074626,3.559667,74,132,58,74,1,28.0,34,load
1780604181.0818985,1.7094606000027852,1858,0.044189,0.126221,1.058594,1.206107,2.770992,-0.748092,1.067008,3.113315,75,133,58,75,0,28.0,12,load
1780604181.1129525,1.740514399993117,1889,0.042236,-0.117676,1.065186,-0.19084,3.267176,-0.687023,1.072498,3.344078,76,135,59,76,0,32.491,10,load
1780604181.1436353,1.771197399997618,1920,0.052246,0.086426,1.057861,1.618321,3.80916,0.19084,1.062671,4.143076,76,136,60,76,1,32.491,34,load
1780604181.1754003,1.802962200003094,1951,0.027344,-0.153564,1.042236,1.946565,1.908397,-0.480916,1.053844,2.7681,77,137,60,77,0,32.491,18,load
1780604181.2076643,1.8352263999986462,1983,0.033203,-0.01123,1.05957,0.152672,2.877863,-0.977099,1.06015,3.043046,78,139,61,78,0,32.491,5,load
1780604181.2377484,1.8653103999968152,2014,0.027344,-0.064941,1.039307,2.709924,2.290076,-1.381679,1.041692,3.807515,79,141,62,79,0,32.491,10,load
1780604181.2701602,1.8977222999965306,2045,0.047363,-0.133545,1.043213,2.366412,2.946565,-2.648855,1.052792,4.615039,79,142,63,79,1,32.491,33,load
1780604181.301382,1.9289439999993192,2077,0.034424,-0.119385,1.042969,1.08397,3.312977,-0.045802,1.050344,3.486102,80,143,63,80,0,32.491,12,load
1780604181.3325334,1.9600954999914393,2109,0.031006,-0.084961,1.025391,1.816794,3.19084,-0.167939,1.029372,3.67565,81,145,64,81,0,32.491,7,load
1780604181.3639715,1.991533399996115,2140,0.047363,-0.1521,1.025146,2.694656,3.312977,-1.984733,1.03745,4.709156,82,147,65,82,0,23.904,9,load
1780604181.3946679,2.0222300000023097,2171,0.017334,-0.153564,1.053467,3.221374,2.89313,-2.984733,1.064742,5.258905,82,148,66,82,1,23.904,32,load
1780604181.42618,2.053741900002933,2202,0.041748,-0.125488,1.060547,0.549618,4.08397,0.564886,1.068761,4.159325,83,149,66,83,0,23.904,12,load
1780604181.4572124,2.084774399991147,2233,0.050293,-0.166504,1.047607,-0.251908,4.21374,-0.480916,1.061948,4.24857,84,151,67,84,0,23.904,8,load
1780604181.4879465,2.1155085999926087,2264,0.034424,-0.097656,1.056396,0.244275,2.206107,-1.717557,1.061459,2.806525,85,153,68,85,0,23.904,10,load
1780604181.5186732,2.146235299995169,2295,0.036377,0.007568,1.069824,1.145038,2.099237,-1.900763,1.070469,3.054637,85,154,69,85,1,23.904,32,load
1780604181.5497985,2.1773604999907548,2326,0.017578,0.090332,1.074951,0.70229,3.862595,-0.931298,1.078883,4.034869,86,155,69,86,0,23.904,11,load
1780604181.5814557,2.2090176999918185,2357,0.063721,0.044434,1.067383,0.458015,3.641221,-1.129771,1.070206,3.839877,87,157,70,87,0,23.904,8,load
1780604181.630588,2.2581499999942025,2388,0.036133,0.115967,1.051758,2.259542,2.183206,-2.053435,1.058748,3.753467,88,159,71,88,0,23.904,9,load
1780604181.643158,2.270720100001199,2419,0.055908,0.091064,1.057129,2.183206,1.648855,-1.89313,1.062516,3.327018,88,160,72,88,1,21.505,32,load
1780604181.674655,2.3022170000040205,2451,0.037109,-0.157227,1.053223,0.610687,3.412214,-0.740458,1.06554,3.544632,89,161,72,89,0,21.505,11,load
1780604181.7081223,2.335684299992863,2483,0.062988,-0.03833,1.041016,1.870229,3.900763,-0.030534,1.043624,4.326042,90,163,73,90,0,21.505,8,load
1780604181.738303,2.365864999999758,2514,0.035889,-0.042969,1.018799,2.610687,3.114504,-1.40458,1.020336,4.299845,92,167,75,92,0,21.505,10,load
1780604181.7692556,2.3968175999907544,2545,0.04834,-0.026855,1.032715,2.916031,2.473282,-1.290076,1.034194,4.035425,93,170,77,93,1,21.505,6,load
1780604181.8005197,2.4280816999962553,2576,0.033936,-0.04541,1.031494,1.938931,2.51145,0.442748,1.033051,3.20357,94,171,77,94,0,21.505,13,load
1780604181.8311868,2.45874869999534,2607,0.030029,0.128418,1.04248,2.648855,3.114504,-1.229008,1.05079,4.269312,95,173,78,95,0,21.505,6,load
1780604181.8621507,2.4897128000011435,2638,0.062988,0.025146,1.040039,2.725191,2.603053,-1.946565,1.042248,4.241658,96,175,79,96,0,21.505,10,load
1780604181.8931267,2.5206886999949347,2669,0.060791,-0.132568,1.043945,1.076336,3.053435,-0.648855,1.054083,3.301966,96,176,80,96,1,32.0,32,load
1780604181.9239028,2.55146469999454,2700,0.011475,-0.097168,1.055908,0.175573,2.48855,-0.244275,1.060432,2.506666,97,177,80,97,0,32.0,12,load
1780604181.9538367,2.581398700000136,2731,0.051514,0.104248,1.056885,1.618321,3.541985,-0.824427,1.063262,3.98049,98,179,81,98,0,32.0,9,load
1780604181.985459,2.6130211999989115,2762,0.033936,0.085205,1.063232,1.40458,3.343511,-0.580153,1.067181,3.672668,99,181,82,99,0,32.0,10,load
1780604182.0199165,2.6474786000035238,2794,0.05835,0.020508,1.069092,0.908397,2.793893,-0.80916,1.070879,3.047255,99,182,83,99,1,32.0,32,load
1780604182.0477862,2.6753481999912765,2825,-0.005859,0.105957,1.052734,0.908397,1.938931,-0.694656,1.05807,2.251042,100,183,83,100,0,32.0,11,load
1780604182.0792806,2.706842699990375,2856,0.072021,0.101807,1.069092,0.114504,4.0,-0.70229,1.076341,4.062798,101,185,84,101,0,32.0,9,load
1780604182.1111465,2.7387084999936633,2887,0.021484,0.067383,1.077148,0.450382,2.19084,-1.694656,1.079468,2.806151,102,187,85,102,0,32.0,9,load
1780604182.1425493,2.7701112999930046,2918,0.037842,-0.095947,1.029785,2.152672,2.328244,-0.755725,1.034937,3.25973,102,188,86,102,1,32.0,31,load
1780604182.172654,2.800215900002513,2949,0.039551,0.104248,1.044678,2.587786,3.099237,-1.229008,1.050611,4.22047,103,189,86,103,0,25.0,13,load
1780604182.203974,2.831535999997868,2980,0.05957,-0.106689,1.078857,-1.221374,4.290076,0.793893,1.085755,4.530648,104,191,87,104,0,25.0,6,load
1780604182.2350178,2.862579900000128,3011,0.045898,0.046631,1.034424,3.206107,3.885496,-1.290076,1.036491,5.200048,105,193,88,105,0,25.0,9,load
1780604182.2654266,2.8929885999968974,3042,0.033936,-0.164795,1.079346,1.641221,1.717557,-0.89313,1.092381,2.53797,106,195,89,106,0,25.0,9,load
1780604182.2962868,2.92384889999812,3072,0.052734,0.107178,1.052246,2.503817,2.435115,-0.381679,1.059004,3.513483,106,196,90,106,1,25.0,30,load
1780604182.326166,2.953727899992373,3103,0.064209,-0.191895,1.04126,1.396947,3.854962,-0.625954,1.060739,4.147772,107,197,90,107,0,25.0,11,load
1780604182.3585234,2.9860853999998653,3134,0.061035,0.12915,1.072022,1.091603,4.015268,0.374046,1.081497,4.177784,108,199,91,108,0,25.0,7,load
1780604182.388438,3.016000100004021,3165,0.022461,-0.169189,1.057617,2.832061,2.748092,-1.992366,1.0713,4.420645,109,201,92,109,0,25.0,9,load
1780604182.4185855,3.0461476999917068,3196,0.065186,-0.0354,1.018311,3.29771,3.236641,-0.259542,1.021009,4.627969,109,202,93,109,1,25.0,31,load
1780604182.4511905,3.078752400004305,3226,0.045166,0.097656,1.076172,3.007634,2.603053,-0.381679,1.081537,3.995926,110,203,93,110,0,25.271,15,load
1780604182.4814126,3.1089746999932686,3257,0.071777,0.052734,1.065674,0.21374,4.778626,0.908397,1.069389,4.868894,111,205,94,111,0,25.271,3,load
1780604182.5124452,3.140007299996796,3288,0.047363,-0.027344,1.062256,0.572519,3.473282,-1.320611,1.063663,3.759718,112,207,95,112,0,25.271,9,load
1780604182.543239,3.1708012000017334,3319,0.044678,-0.179443,1.063477,1.137405,3.152672,-0.015267,1.079434,3.351606,113,209,96,113,0,25.271,9,load
1780604182.5736747,3.2012366999988444,3350,0.043213,0.073975,1.044189,3.083969,2.419847,-0.419847,1.047698,3.942436,113,210,97,113,1,25.271,31,load
1780604182.6049,3.2324619999999413,3381,0.027832,0.140381,1.05835,1.442748,2.251908,-0.083969,1.067982,2.675755,114,211,97,114,0,25.271,9,load
1780604182.6483498,3.2759117999958107,3412,0.062012,0.06958,1.070557,-0.045802,3.10687,-1.167939,1.074606,3.319461,115,213,98,115,0,25.271,8,load
1780604182.6661835,3.2937453999911668,3443,0.018066,-0.1604,1.055176,0.969466,2.564885,-1.229008,1.06745,3.004823,116,215,99,116,0,25.271,9,load
1780604182.6978168,3.3253790000017034,3474,0.049805,0.124512,1.055664,3.129771,2.648855,-1.19084,1.064148,4.26966,116,216,100,116,1,25.271,31,load
1780604182.729215,3.356776999993599,3505,0.049561,-0.135254,1.062744,0.969466,3.396947,-1.08397,1.072462,3.695146,117,217,100,117,0,25.09,13,load
1780604182.7617016,3.389263699995354,3537,0.040039,0.112061,1.067383,0.351145,4.290076,0.458015,1.073996,4.328722,118,219,101,118,0,25.09,3,load
1780604182.7913501,3.4189121999952476,3568,0.084473,-0.200195,1.050537,1.748092,4.709924,-0.40458,1.072773,5.040128,119,221,102,119,0,25.09,9,load
1780604182.8235555,3.451117399992654,3599,0.040283,0.117188,1.045898,1.335878,2.900763,-1.305344,1.053214,3.450061,120,223,103,120,0,25.09,9,load
1780604182.853926,3.48148790000414,3630,0.054199,-0.131348,1.070068,1.832061,2.114504,-1.961832,1.079461,3.417069,120,224,104,120,1,25.09,30,load
1780604182.8845527,3.5121148000034736,3661,0.049805,0.07251,1.056152,1.198473,2.816794,-1.099237,1.059809,3.252536,121,225,104,121,0,25.09,12,load
1780604182.91672,3.5442820000025677,3692,0.062256,-0.144043,1.034424,1.396947,4.358778,1.572519,1.046258,4.839754,122,227,105,122,0,25.09,5,load
1780604182.946523,3.5740850000001956,3723,0.057373,0.009521,1.074219,1.068702,3.564885,-1.78626,1.075792,4.128106,123,229,106,123,0,25.09,9,load
1780604182.9783106,3.6058726999908686,3754,0.032227,0.050293,1.023438,2.21374,2.618321,-0.877863,1.025179,3.539335,124,231,107,124,0,25.09,9,load
1780604183.0086236,3.6361857000010787,3785,0.041504,-0.144287,1.065186,2.137405,2.48855,-1.450382,1.075714,3.586779,124,232,108,124,1,25.0,30,load
1780604183.039402,3.6669640999898547,3816,0.040039,-0.135498,1.057861,0.984733,3.145038,-0.992366,1.067255,3.441766,126,235,109,126,0,25.0,2,load
1780604183.0702798,3.697841999994125,3847,0.044678,0.122803,1.060791,1.19084,4.160306,1.358779,1.06881,4.535694,127,237,110,127,0,25.0,4,load
1780604183.1011295,3.728691500000423,3878,0.074707,-0.169922,1.04126,2.091603,4.137404,0.038168,1.057675,4.636203,128,239,111,128,0,25.0,8,load
1780604183.1322649,3.7598270000016782,3909,0.05542,-0.168945,1.054443,0.541985,3.671756,-1.839695,1.069329,4.142464,129,241,112,129,0,25.0,9,load
1780604183.163882,3.7914440000022296,3940,0.044434,0.085938,1.064697,1.938931,2.534351,-1.603053,1.069084,3.571018,129,242,113,129,1,25.0,30,load
1780604183.1936164,3.8211785000021337,3971,0.064209,-0.125,1.036621,2.778626,3.664122,-0.335878,1.046103,4.610788,130,243,113,130,0,25.0,13,load
1780604183.2250605,3.85262249999505,4001,0.081299,0.069336,1.044678,1.977099,4.580152,1.19084,1.050128,5.128822,131,245,114,131,0,25.0,4,load
1780604183.2556605,3.883222599994042,4032,0.068115,-0.175537,1.04834,1.412214,4.396946,0.145038,1.065115,4.620446,132,247,115,132,0,25.0,9,load
1780604183.2874885,3.9150506000005407,4063,0.062744,-0.061279,1.056641,0.992366,3.030534,-1.992366,1.060274,3.760114,133,249,116,133,0,32.374,8,load
1780604183.3197963,3.9473582999926293,4095,0.032715,0.048584,1.068115,1.816794,2.603053,-2.229008,1.06972,3.878802,133,250,117,133,1,32.374,30,load
1780604183.349106,3.976668100003735,4126,0.064209,-0.046875,1.030518,3.40458,3.48855,-0.038168,1.03358,4.87469,134,251,117,134,0,32.374,14,load
1780604183.3800218,4.007583799990243,4156,0.06543,0.119141,1.047852,1.015267,5.061068,1.015267,1.056631,5.260794,135,253,118,135,0,32.374,3,load
1780604183.4100668,4.037628799997037,4187,0.070801,-0.075684,1.030518,2.40458,2.961832,-0.396947,1.035716,3.835626,136,255,119,136,0,32.374,9,load
1780604183.4425778,4.070139899995411,4218,0.059082,-0.151367,1.048828,2.572519,2.625954,-1.763359,1.06134,4.077122,137,257,120,137,0,32.374,9,load
1780604183.472713,4.100275000004331,4249,0.053711,-0.05835,1.03418,2.984733,2.885496,-0.778626,1.037216,4.223858,137,258,121,137,1,32.374,28,load
1780604183.503507,4.131068899994716,4280,0.005371,-0.062744,1.039307,2.244275,1.206107,-1.251908,1.041213,2.838792,139,262,123,139,1,32.374,6,load
1780604183.5351264,4.162688500000513,4311,0.023438,-0.132324,1.033203,3.045802,2.19084,-1.755725,1.041906,4.142374,140,263,123,140,0,32.374,9,load
1780604183.566085,4.193647199994302,4343,0.057373,-0.000244,1.075195,0.175573,3.778626,0.152672,1.076725,3.785782,141,265,124,141,0,28.571,4,load
1780604183.5978963,4.225458300003083,4374,0.037842,0.084717,1.085693,1.137405,2.755725,-1.633588,1.089651,3.399459,142,267,125,142,0,28.571,8,load
1780604183.6286435,4.256205600002431,4405,0.040039,0.105957,1.050049,1.89313,2.641221,-1.076336,1.05614,3.423228,143,269,126,143,0,28.571,9,load
1780604183.6605616,4.2881235999957426,4436,0.021729,0.091309,1.046143,2.824427,2.007634,-1.053435,1.050344,3.621838,143,270,127,143,1,28.571,28,load
1780604183.6916335,4.319195399992168,4467,0.018311,0.086426,1.041748,1.770992,1.366412,-1.267176,1.045487,2.570842,144,272,128,144,1,28.571,21,load
1780604183.7223995,4.349961599989911,4498,0.050537,0.057617,1.080322,2.335878,2.396947,-2.061069,1.083037,3.930608,145,273,128,145,0,28.571,11,load
1780604183.7530963,4.380658299996867,4529,0.086914,0.098877,1.060547,0.625954,4.29771,0.458015,1.068686,4.36714,146,275,129,146,0,28.571,3,load
1780604183.7842996,4.411861599990516,4560,0.025879,0.115967,1.056152,1.496183,2.78626,-1.389313,1.062815,3.454272,149,279,130,149,0,28.571,8,load
1780604183.814497,4.442059099994367,4591,0.036621,0.103027,1.064697,0.923664,2.267176,-1.862595,1.070297,3.076118,150,281,131,150,0,28.571,8,load
1780604183.8459024,4.473464599999716,4622,-0.001221,0.078613,1.055664,1.053435,1.251908,-1.557252,1.058588,2.258768,151,283,132,151,0,32.258,8,load
1780604183.8761632,4.503725200003828,4653,0.070312,0.069336,1.083984,0.076336,3.076336,-1.099237,1.088473,3.267719,151,284,133,151,1,32.258,28,load
1780604183.9076521,4.5352141999901505,4684,0.053467,-0.149414,1.052734,2.10687,3.648855,-0.534351,1.064628,4.247184,152,285,133,152,0,32.258,12,load
1780604183.9381816,4.5657437999907415,4715,0.039551,-0.12915,1.037598,1.114504,2.969466,-0.221374,1.046352,3.179442,153,287,134,153,0,32.258,2,load
1780604183.9703875,4.597949499991955,4746,0.022949,-0.140137,1.053223,1.709924,2.580153,-1.450382,1.062752,3.41828,154,289,135,154,0,32.258,8,load
1780604183.9996607,4.627222700000857,4777,0.031494,-0.111572,1.075439,1.374046,2.419847,-1.740458,1.08167,3.282203,155,291,136,155,0,32.258,9,load
1780604184.0296564,4.657218499996816,4807,0.027832,0.115723,1.05835,2.427481,3.083969,-1.0,1.065021,4.050127,156,294,138,156,1,32.258,6,load
1780604184.0607061,4.688268300000345,4837,0.00708,0.101074,1.067627,1.053435,1.587786,-1.099237,1.072424,2.199798,157,295,138,157,0,32.258,16,load
1780604184.0910237,4.7185857000004034,4868,0.052002,0.040527,1.074463,0.519084,3.022901,-1.541985,1.076484,3.432942,158,297,139,158,0,32.258,3,load
1780604184.1224086,4.749970599994413,4899,0.029053,-0.044434,1.067871,0.580153,2.770992,-1.40458,1.06919,3.160351,161,301,140,161,0,36.101,9,load
1780604184.1535556,4.781117699996685,4930,0.064697,-0.141846,1.061279,1.717557,3.656489,-0.305344,1.072669,4.051314,163,305,142,163,0,36.101,9,load
1780604184.18486,4.812422000002698,4961,0.072998,0.060791,1.047607,2.977099,2.21374,-0.977099,1.051906,3.836468,164,308,144,164,1,36.101,6,load
1780604184.2158256,4.843387499990058,4992,0.037598,-0.149902,1.052246,0.480916,3.458015,0.862595,1.063535,3.596279,165,309,144,165,0,36.101,11,load
1780604184.2475133,4.875075399992056,5024,0.062744,0.024414,1.073242,-0.709924,3.435115,-0.427481,1.075352,3.533659,166,311,145,166,0,36.101,6,load
1780604184.2800012,4.9075631000014255,5056,0.028809,0.092773,1.044189,2.091603,2.900763,-2.312977,1.048698,4.259001,167,313,146,167,0,36.101,9,load
1780604184.3115137,4.939075699992827,5087,0.058594,-0.138916,1.043701,0.755725,2.648855,-1.015267,1.054534,2.935698,168,315,147,168,0,36.101,9,load
1780604184.3435063,4.97106850000273,5119,0.067383,0.018555,1.057617,1.763359,3.21374,-2.396947,1.059924,4.37983,168,316,148,168,1,36.101,31,load
1780604184.3747761,5.002338199992664,5150,0.032471,-0.146729,1.067383,0.916031,3.351145,0.763359,1.07791,3.556965,169,317,148,169,0,31.873,11,load
1780604184.4063146,5.033876599991345,5182,0.052979,0.119141,1.05127,0.152672,3.687023,-0.648855,1.059325,3.746793,170,319,149,170,0,31.873,6,load
1780604184.4380279,5.065589999998338,5214,0.024414,0.026123,1.025391,3.015267,2.725191,-1.10687,1.026014,4.212322,171,321,150,171,0,31.873,9,load
1780604184.4685497,5.096111699996982,5245,0.05957,-0.11499,1.038086,1.435114,3.824427,0.465649,1.046133,4.11128,172,323,151,172,0,31.873,8,load
1780604184.5008192,5.128381200003787,5277,0.024658,-0.158203,1.05127,2.51145,2.022901,-0.687023,1.063393,3.297197,172,324,152,172,1,31.873,30,load
1780604184.548475,5.1760370999982115,5308,0.015381,0.049316,1.064697,-0.145038,1.465649,-1.862595,1.06595,2.374537,173,325,152,173,0,31.873,12,load
1780604184.562644,5.1902061000000685,5339,0.068115,0.03833,1.084228,1.427481,3.969466,-0.175573,1.087042,4.221988,174,327,153,174,0,31.873,3,load
1780604184.5935457,5.221107799996389,5370,0.026367,-0.156494,1.054688,2.89313,3.152672,-1.580153,1.06656,4.561406,175,329,154,175,0,31.873,8,load
1780604184.6251774,5.252739499992458,5401,0.02832,-0.133545,1.05249,0.564886,3.320611,-1.10687,1.061307,3.54552,176,331,155,176,0,27.888,9,load
1780604184.6553175,5.282879599995795,5432,0.069336,-0.004639,1.049805,3.664122,3.824427,-0.664122,1.052102,5.337892,176,332,156,176,1,27.888,30,load
1780604184.6871896,5.314751700003399,5463,0.057373,0.059814,1.057129,1.78626,3.045802,0.022901,1.060373,3.531028,177,333,156,177,0,27.888,13,load
1780604184.7187483,5.346310299995821,5495,0.036133,-0.09668,1.063721,0.29771,2.969466,-0.824427,1.068716,3.096133,178,335,157,178,0,27.888,6,load
1780604184.755197,5.38275910000084,5526,0.05835,0.04126,1.065674,1.908397,3.40458,-1.587786,1.068067,4.213574,179,337,158,179,0,27.888,9,load
1780604184.7866354,5.414197399994009,5562,0.035156,-0.167969,1.05249,2.19084,3.21374,-0.328244,1.066389,3.903287,180,339,159,180,0,27.888,9,load
1780604184.8192418,5.446803799990448,5594,0.05249,-0.0354,1.041992,2.229008,3.152672,0.923664,1.043914,3.970009,180,340,160,180,1,27.888,32,load
1780604184.8499444,5.477506399998674,5626,0.008057,-0.126465,1.050781,0.961832,1.534351,-1.534351,1.058395,2.373518,181,341,160,181,0,27.888,10,load
1780604184.8808599,5.50842179999745,5657,0.007324,-0.040283,1.043701,1.740458,1.580153,-0.152672,1.044504,2.355713,182,343,161,182,0,23.438,8,load
1780604184.9116647,5.539226699998835,5688,0.044189,0.080566,1.058594,2.694656,2.290076,-1.664122,1.062574,3.908315,183,345,162,183,0,23.438,9,load
1780604184.943909,5.5714709000021685,5719,0.112793,-0.178467,1.084717,1.587786,3.603053,-0.961832,1.105072,4.053169,183,346,163,183,1,23.438,30,load
1780604184.9736981,5.601260299998103,5750,0.054443,0.005615,1.042725,1.381679,3.793893,1.21374,1.04416,4.21614,184,347,163,184,0,23.438,15,load
1780604185.0050275,5.632589599990752,5780,0.061523,0.06958,1.045166,2.389313,3.496183,-0.641221,1.049285,4.282906,185,349,164,185,0,23.438,4,load
1780604185.035984,5.663546099996893,5811,0.049316,-0.131104,1.042969,1.419847,4.21374,-0.641221,1.052333,4.49252,186,351,165,186,0,23.438,9,load
1780604185.0663733,5.69393539999146,5842,0.065186,0.098389,1.062256,0.427481,3.221374,-1.320611,1.068792,3.507706,187,353,166,187,0,23.438,8,load
1780604185.0965123,5.724074300000211,5873,0.094727,0.040283,1.029785,3.70229,3.419847,-0.70229,1.034917,5.088764,187,354,167,187,1,23.438,30,load
1780604185.1279464,5.755508399990504,5904,-0.02417,-0.007568,1.082031,1.19084,0.068702,-2.641221,1.082328,2.89808,188,355,167,188,0,23.438,13,load
1780604185.1588774,5.786439499992412,5934,0.039307,-0.120117,1.072998,0.564886,1.89313,-0.091603,1.080416,1.977733,189,358,169,189,1,25.271,21,load
1780604185.1907437,5.818305799999507,5966,0.073975,-0.071289,1.063477,2.519084,2.366412,-1.21374,1.068427,3.663176,190,361,171,190,0,25.271,3,load
1780604185.2204623,5.848024399994756,5997,0.044189,-0.013428,1.061035,1.694656,2.465649,-1.145038,1.06204,3.203498,192,365,173,192,0,25.271,1,load
1780604185.2509491,5.878511200004141,6028,0.027588,-0.00415,1.070557,1.099237,2.045802,-0.977099,1.07092,2.519593,195,370,175,195,1,25.271,16,load
1780604185.282311,5.909872899996117,6059,0.043213,-0.039062,1.058594,2.061069,2.312977,-0.946565,1.060195,3.239422,199,375,176,199,0,25.271,6,load
1780604185.3128505,5.940412600000855,6090,0.052002,-0.019531,1.063721,1.465649,3.709924,-0.854962,1.06517,4.079537,203,381,178,203,0,25.271,0,load
1780604185.3447313,5.972293400001945,6120,0.050537,-0.012207,1.058106,1.526718,3.458015,-0.954198,1.059382,3.898619,205,385,180,205,0,25.271,0,load
1780604185.3750033,6.002565299990238,6151,0.04126,-0.026123,1.043213,1.961832,3.175573,-0.763359,1.044355,3.809956,208,390,182,208,1,25.271,14,load
1780604185.4059963,6.033558399998583,6182,0.053467,-0.003906,1.062988,0.954198,2.946565,-0.725191,1.064339,3.180981,213,397,184,213,0,25.271,0,load
1780604185.4381995,6.065761599995312,6213,0.045654,-0.017822,1.058594,1.938931,2.679389,-1.541985,1.059728,3.64915,215,401,186,215,0,93.19,0,load
1780604185.4685748,6.096136799998931,6244,0.06665,-0.017334,1.056396,2.816794,3.068702,-1.030534,1.058639,4.291068,219,408,189,219,1,93.19,2,load
1780604185.499644,6.127206199991633,6275,0.033203,-0.040039,1.053955,1.099237,3.282443,-0.89313,1.055238,3.574973,224,415,191,224,0,93.19,0,load
1780604185.529921,6.157483000002685,6306,0.043701,-0.017578,1.050537,1.122137,3.412214,-1.229008,1.051593,3.796426,226,419,193,226,0,93.19,0,load
1780604185.5609608,6.188522900003591,6337,0.046875,-0.026367,1.057617,1.564886,3.045802,-0.977099,1.058984,3.560969,229,425,196,229,0,93.19,6,load
1780604185.5937343,6.221296399991843,6369,0.054688,-0.018799,1.059082,1.290076,3.244275,-0.755725,1.06066,3.572217,233,431,198,233,0,93.19,0,load
1780604185.625521,6.253083000003244,6401,0.054688,-0.017334,1.048096,1.679389,3.083969,-0.091603,1.049664,3.512778,235,445,210,235,1,93.19,0,load
1780604185.6580057,6.2855677000043215,6433,0.030518,-0.02832,1.051025,1.763359,2.954198,-1.030534,1.05185,3.591479,240,452,212,240,0,93.19,0,load
1780604185.6893797,6.316941700002644,6465,0.026123,-0.026611,1.054688,1.862595,2.877863,-0.954198,1.055346,3.558349,242,456,214,242,0,107.143,0,load
1780604185.7215118,6.349073899997165,6496,0.048828,-0.023682,1.038818,1.839695,3.152672,-1.10687,1.040235,3.814312,245,461,216,245,1,107.143,14,load
1780604185.7519336,6.37949559999106,6528,0.054199,-0.031494,1.063477,1.145038,2.908397,-1.076336,1.065322,3.305811,250,468,218,250,0,107.143,0,load
1780604185.7830312,6.410593299995526,6559,0.048096,-0.036865,1.051025,1.366412,3.229008,-0.954198,1.052771,3.63374,252,474,222,252,0,107.143,0,load
1780604185.8143144,6.4418762999994215,6590,0.055908,-0.037598,1.049561,1.801527,3.465649,-0.671756,1.051721,3.963266,256,480,224,256,0,107.143,5,load
1780604185.8454878,6.473049799998989,6621,0.047607,-0.008057,1.049805,1.923664,3.450382,-0.549618,1.050914,3.988446,260,486,226,260,0,107.143,1,load
1780604185.8785648,6.506126899999799,6653,0.054199,-0.022949,1.043213,1.709924,3.465649,-0.152672,1.044872,3.867541,262,498,236,262,1,107.143,0,load
1780604185.909834,6.537395999999717,6685,0.0354,-0.016602,1.053467,1.70229,2.687023,-1.183206,1.054192,3.393797,268,505,237,268,0,107.143,0,load
1780604185.9398127,6.5673747999971965,6716,0.041016,-0.022949,1.068604,1.877863,2.549618,-0.969466,1.069637,3.311614,271,511,240,271,0,115.538,1,load
1780604185.9717112,6.599273300002096,6747,0.049561,-0.032227,1.060791,2.007634,3.099237,-0.969466,1.062437,3.817817,273,516,243,273,1,115.538,13,load
1780604186.0014217,6.628983799993875,6778,0.041992,-0.022949,1.049805,1.847328,2.541985,-0.961832,1.050895,3.286248,278,523,245,278,0,115.538,0,load
1780604186.0332382,6.660800099998596,6809,0.046875,-0.029297,1.065186,1.80916,2.557252,-0.946565,1.066619,3.272397,280,527,247,280,0,115.538,0,load
1780604186.0642216,6.691783699992811,6840,0.040771,-0.024414,1.052734,2.145038,3.160305,-0.832061,1.053806,3.909098,283,532,249,283,1,115.538,13,load
1780604186.0950525,6.722614500002237,6871,0.041504,0.003906,1.050537,1.351145,3.633588,-0.725191,1.051364,3.943914,289,541,252,289,0,115.538,0,load
1780604186.126107,6.753668999997899,6902,0.041992,-0.037109,1.060059,1.870229,3.030534,-1.175572,1.061539,3.750182,291,545,254,291,0,115.538,0,load
1780604186.156757,6.784319200000027,6933,0.049072,-0.022705,1.047363,1.877863,3.389313,-0.755725,1.048758,3.947776,293,548,255,293,0,115.538,15,load
1780604186.1882074,6.815769399996498,6964,0.041992,-0.031494,1.055664,1.305344,3.465649,-0.473282,1.056968,3.733449,298,555,257,298,0,115.538,0,load
1780604186.2193198,6.846881899997243,6995,0.040283,-0.02124,1.058106,1.29771,3.51145,-0.671756,1.059085,3.803366,301,561,260,301,0,107.527,0,load
1780604186.2507586,6.878320799994981,7026,0.064453,-0.016357,1.053955,1.801527,3.496183,-0.618321,1.056051,3.981346,305,567,262,305,0,107.527,6,load
1780604186.2832108,6.910772799994447,7058,0.047607,-0.020264,1.054199,1.267176,3.534351,-0.541985,1.055468,3.793563,309,573,264,309,0,107.527,0,load
1780604186.3147264,6.942288499994902,7090,0.029297,-0.013916,1.045898,1.618321,3.030534,-0.259542,1.046401,3.445354,311,578,267,311,1,107.527,15,load
1780604186.3468266,6.974388499991619,7122,0.046143,-0.024658,1.056396,1.70229,2.778626,-1.206107,1.057691,3.474658,314,583,269,314,0,107.527,1,load
1780604186.3767583,7.004320499996538,7153,0.036133,-0.010254,1.057617,1.633588,2.954198,-0.732824,1.058284,3.454407,316,587,271,316,0,107.527,0,load
1780604186.408808,7.036370000001625,7184,0.024902,-0.012451,1.059082,1.59542,2.290076,-1.541985,1.059448,3.188656,319,594,275,319,1,107.527,14,load
1780604186.4398603,7.06742249999661,7216,0.059814,-0.008545,1.061279,1.458015,2.709924,-1.076336,1.062998,3.26006,324,601,277,324,0,107.527,1,load
1780604186.4712152,7.0987772999942536,7247,0.031982,-0.012451,1.051514,1.435114,2.061069,-1.015267,1.052074,2.708934,326,605,279,326,0,99.206,1,load
1780604186.5025868,7.130148800002644,7278,0.040527,-0.051514,1.047119,2.251908,3.549618,-1.053435,1.049168,4.33366,329,610,281,329,1,99.206,13,load
1780604186.533608,7.161169999992126,7309,0.043701,-0.017334,1.056641,0.916031,3.419847,-0.862595,1.057686,3.643973,334,617,283,334,0,99.206,1,load
1780604186.5642614,7.191823599991039,7340,0.047607,-0.020264,1.058106,1.648855,2.656489,-1.374046,1.05937,3.41521,337,623,286,337,0,99.206,1,load
1780604186.6045644,7.2321263999911025,7371,0.044434,-0.019775,1.0625,1.89313,3.427481,-1.022901,1.063613,4.046961,341,629,288,341,0,99.206,6,load
1780604186.6262543,7.253816299999016,7402,0.047852,-0.026855,1.063965,0.763359,2.984733,-0.572519,1.065379,3.133548,345,635,290,345,0,99.206,0,load
1780604186.6567614,7.284323400002904,7433,0.048584,-0.031494,1.050781,1.030534,3.152672,-0.992366,1.052375,3.462099,347,639,292,347,0,99.206,1,load
1780604186.6885169,7.316078899995773,7464,0.044678,-0.020752,1.053223,1.694656,3.312977,-1.007634,1.054374,3.855256,351,647,296,351,0,99.206,7,load
1780604186.7188106,7.346372599989991,7495,0.047607,-0.017578,1.058106,0.977099,3.152672,-0.923664,1.059322,3.427422,355,653,298,355,0,99.206,0,load
1780604186.7501392,7.377701399993384,7526,0.053223,-0.039795,1.043457,1.679389,3.137405,-0.374046,1.045571,3.578207,357,657,300,357,1,111.111,0,load
1780604186.7825477,7.410109699994791,7558,0.040527,-0.032715,1.058838,1.961832,3.21374,-0.480916,1.060118,3.795813,361,664,303,361,1,111.111,3,load
1780604186.8290205,7.456582500002696,7590,0.052246,-0.03418,1.059082,1.778626,3.274809,0.099237,1.060921,3.727966,364,669,305,364,0,111.111,1,load
1780604186.8453908,7.472952900003293,7621,0.065674,-0.040039,1.055664,2.160305,3.641221,-0.541985,1.058462,4.26839,366,679,313,366,1,111.111,0,load
1780604186.8760486,7.503610600004322,7653,0.061768,-0.03125,1.046631,1.885496,4.10687,-0.015267,1.048917,4.519038,371,686,315,371,0,111.111,0,load
1780604186.9070494,7.534611399998539,7683,0.060059,-0.040283,1.064453,2.061069,3.671756,0.030534,1.066907,4.210788,373,690,317,373,0,111.111,0,load
1780604186.9392564,7.5668183999951,7715,0.016113,-0.015137,1.060059,2.061069,2.778626,-1.091603,1.060289,3.627722,375,695,320,375,1,111.111,14,load
1780604186.9696395,7.597201700002188,7746,0.038086,-0.046143,1.060303,2.099237,2.412214,-1.564886,1.061989,3.560118,380,702,322,380,0,111.111,6,load
1780604187.0009675,7.628529599998728,7777,0.042236,-0.008789,1.050781,1.335878,3.427481,-0.335878,1.051666,3.693915,384,708,324,384,0,107.57,0,load
1780604187.0321732,7.6597352999961,7808,0.046143,-0.014648,1.049316,2.099237,2.526718,-0.671756,1.050433,3.352962,386,712,326,386,0,107.57,0,load
1780604187.0627,7.690262000003713,7839,0.065186,-0.047363,1.061768,1.793893,2.954198,-0.519084,1.06482,3.494966,389,719,330,389,1,107.57,3,load
1780604187.0932455,7.720807499994407,7870,0.031738,-0.002197,1.051514,1.59542,2.977099,-1.549618,1.051995,3.716154,393,724,331,393,0,107.57,6,load
1780604187.1252387,7.752800799993565,7901,0.039551,-0.015869,1.032471,1.541985,2.847328,-1.114504,1.03335,3.424487,396,728,332,396,0,107.57,1,load
1780604187.1564264,7.783988399998634,7933,0.086426,-0.019043,1.046875,1.519084,3.969466,-0.244275,1.050609,4.257222,398,732,334,398,0,107.57,0,load
1780604187.1882727,7.81583479999972,7964,0.032471,-0.029297,1.06958,1.053435,3.10687,-0.206107,1.070474,3.287073,399,734,335,399,0,107.57,7,load
1780604187.219228,7.846790099996724,7996,0.021484,-0.058594,1.0625,1.51145,2.916031,0.007634,1.064331,3.284475,400,736,336,400,0,107.57,4,load
1780604187.2510512,7.878613199995016,8026,-0.022217,-0.03833,1.060791,2.572519,-0.656489,-2.832061,1.061716,3.881932,401,738,337,401,0,107.57,2,load
1780604187.2807782,7.908340099995257,8057,-0.068604,-0.012451,1.088379,0.984733,-0.549618,-2.992366,1.09061,3.197817,403,742,339,403,0,67.857,0,load
1780604187.3126674,7.940229500003625,8088,0.113037,-0.040283,1.047607,1.145038,5.0229,-0.847328,1.054458,5.220978,405,745,340,405,1,67.857,20,load
1780604187.3436885,7.971250499991584,8120,0.015869,-0.005615,1.056396,0.938931,1.78626,-1.549618,1.056531,2.544334,406,747,341,406,1,67.857,17,load
1780604187.375532,8.00309389999893,8151,0.019287,0.016113,1.049561,1.549618,2.969466,-1.374046,1.049861,3.620365,407,749,342,407,1,67.857,15,load
1780604187.4068735,8.034435599998687,8183,0.080566,-0.075439,1.046631,2.061069,4.740458,-0.931298,1.052434,5.252358,409,752,343,409,0,67.857,8,load
1780604187.4388607,8.066422799995053,8214,0.088867,-0.093994,1.031494,2.938931,3.977099,-0.931298,1.039573,5.032092,410,754,344,410,0,67.857,8,load
1780604187.4694602,8.097022399990237,8245,0.017334,-0.09082,1.064209,2.687023,1.458015,-3.229008,1.068218,4.446616,411,756,345,411,0,67.857,8,load
1780604187.5000694,8.127631499999552,8276,0.042969,0.053955,1.064697,0.664122,2.427481,-1.259542,1.066929,2.814279,412,758,346,412,0,67.857,8,load
1780604187.5307322,8.15829429999576,8307,0.100342,0.052979,1.039307,1.78626,4.72519,-0.129771,1.045482,5.053216,413,761,348,413,1,40.0,4,load
1780604187.562264,8.189826100002392,8338,0.0979,-0.094727,1.037598,1.580153,5.167938,-0.21374,1.046502,5.408342,414,763,349,414,1,40.0,16,load
1780604187.5929663,8.220528399993782,8369,0.083252,-0.013672,1.049561,2.610687,4.183206,-0.679389,1.052946,4.977597,415,765,350,415,1,40.0,17,load
1780604187.632111,8.259673099993961,8400,0.016602,0.054199,1.056641,0.961832,2.496183,-0.89313,1.05816,2.820236,416,767,351,416,1,40.0,19,load
1780604187.6550562,8.282618400000501,8431,0.050537,-0.102295,1.056885,2.167939,2.229008,-1.541985,1.063026,3.470756,417,769,352,417,1,40.0,22,load
1780604187.6860619,8.313623900001403,8463,0.028076,-0.111328,1.037598,0.503817,3.0,0.526718,1.04393,3.087274,418,770,352,418,0,40.0,10,load
1780604187.7177916,8.345353600001545,8494,0.049316,0.121582,1.040039,-0.083969,2.145038,-0.290076,1.048282,2.166191,419,772,353,419,0,40.0,2,load
1780604187.7486842,8.376246300002094,8525,0.032715,0.102783,1.061035,-0.083969,3.48855,-1.251908,1.066504,3.707331,420,774,354,420,0,40.0,6,load
1780604187.7800303,8.407592299990938,8556,0.068604,0.072021,1.05249,1.335878,3.778626,-1.061069,1.05718,4.145896,421,776,355,421,0,40.0,9,load
1780604187.8110235,8.438585500000045,8587,0.049561,-0.072266,1.079102,0.145038,3.091603,-1.19084,1.082654,3.316194,422,778,356,422,0,32.143,9,load
1780604187.8420663,8.469628299993929,8618,0.058838,-0.028809,1.103516,1.961832,1.099237,-2.320611,1.105458,3.231461,422,779,357,422,1,32.143,28,load
1780604187.8726935,8.500255599996308,8649,0.07373,-0.135498,1.078857,1.519084,1.847328,-1.610687,1.08983,2.883496,423,781,358,423,1,32.143,21,load
1780604187.9051766,8.532738699999754,8680,0.016357,0.062012,1.044678,1.015267,1.557252,-0.206107,1.046644,1.870369,424,782,358,424,0,32.143,10,load
1780604187.9351816,8.562743599992245,8711,0.042969,0.030029,1.04541,0.954198,2.633588,-0.938931,1.046724,2.954297,425,784,359,425,0,32.143,2,load
1780604187.967235,8.594797199999448,8742,0.037109,-0.115723,1.052246,0.496183,3.061069,-0.267176,1.059241,3.112511,426,786,360,426,0,32.143,4,load
1780604187.9958417,8.623403899997356,8773,-0.005859,0.008545,1.037354,2.076336,2.732824,-0.366412,1.037405,3.451631,427,788,361,427,0,32.143,5,load
1780604188.0267766,8.654338499996811,8803,0.067383,0.022217,1.055176,0.954198,3.885496,-0.587786,1.057558,4.043892,428,790,362,428,0,32.143,8,load
1780604188.0580199,8.685581999990973,8834,0.048828,0.023193,1.070312,1.08397,4.526718,-1.068702,1.071677,4.775802,429,792,363,429,0,32.143,8,load
1780604188.0894785,8.717040599993197,8865,0.048096,-0.072998,1.038086,2.061069,3.167939,-0.954198,1.04176,3.897992,430,794,364,430,0,28.777,8,load
1780604188.1212356,8.74879769999825,8897,0.031006,0.08667,1.037842,1.80916,2.664122,-1.236641,1.041916,3.449622,431,796,365,431,0,28.777,8,load
1780604188.152044,8.77960599999642,8928,0.073242,-0.082764,1.03418,3.206107,4.801526,-0.282443,1.040068,5.780446,432,798,366,432,0,28.777,8,load
1780604188.1826403,8.810202399996342,8959,0.049805,-0.145752,1.061279,2.80916,3.061069,-1.435114,1.072398,4.395574,433,800,367,433,0,28.777,9,load
1780604188.2144086,8.841970699999365,8990,0.041748,-0.099365,1.073242,1.656489,1.694656,-1.40458,1.07864,2.754752,433,801,368,433,1,28.777,25,load
1780604188.2453513,8.872913300001528,9021,0.020508,0.027344,1.047852,2.129771,2.374046,-0.534351,1.048409,3.233813,434,803,369,434,1,28.777,17,load
1780604188.275911,8.903473200000008,9052,0.028809,0.064941,1.034668,1.473282,2.557252,-0.458015,1.037104,2.986616,435,805,370,435,1,28.777,20,load
1780604188.3073692,8.934931299998425,9083,0.057129,0.041748,1.039062,0.305344,3.19084,0.847328,1.041469,3.315518,436,807,371,436,1,28.777,21,load
1780604188.338124,8.965686099996674,9114,0.076904,-0.060791,1.039062,2.091603,2.580153,1.450382,1.043676,3.624307,437,808,371,437,0,28.777,11,load
1780604188.369703,8.997265099998913,9146,0.041016,-0.099854,1.060303,1.541985,3.167939,0.259542,1.065784,3.532834,439,810,371,439,0,32.028,0,load
1780604188.3992987,9.026860800004215,9177,0.053223,-0.109131,1.059326,2.503817,2.740458,-2.0,1.066262,4.21654,440,812,372,440,0,32.028,1,load
1780604188.4308317,9.058393799990881,9207,0.013184,-0.136719,1.054199,0.870229,3.015267,-0.328244,1.06311,3.155452,441,814,373,441,0,32.028,4,load
1780604188.4617891,9.089351200003875,9238,0.055908,-0.074951,1.062012,1.877863,2.648855,-0.419847,1.06612,3.274,442,816,374,442,0,32.028,6,load
1780604188.4927762,9.120338199994876,9269,0.057617,0.034424,1.072998,0.572519,3.992366,-0.946565,1.075095,4.142795,443,818,375,443,0,32.028,7,load
1780604188.5244958,9.152057999992394,9300,0.047363,-0.080566,1.057373,0.923664,4.503816,-0.687023,1.061495,4.648604,444,820,376,444,0,32.028,8,load
1780604188.554479,9.18204099999275,9331,0.102295,-0.127686,1.049561,2.580153,5.251908,-0.641221,1.062236,5.886501,445,822,377,445,0,32.028,9,load
1780604188.585822,9.21338420000393,9362,0.030518,-0.114746,1.053955,2.610687,1.832061,-1.801527,1.060622,3.663009,446,824,378,446,0,32.028,9,load
1780604188.6161466,9.243708699999843,9393,0.020508,-0.116455,1.059814,1.389313,1.587786,-1.70229,1.066391,2.710913,447,826,379,447,0,32.028,9,load
1780604188.6485102,9.276072199994815,9424,0.077148,-0.074707,1.05542,2.480916,4.61832,-0.160305,1.06087,5.244952,448,828,380,448,0,32.374,9,load
1780604188.699487,9.327049100000295,9455,0.049561,-0.162109,1.047119,1.419847,2.59542,-1.19084,1.060752,3.189086,448,829,381,448,1,32.374,25,load
1780604188.7094953,9.337057400000049,9485,0.066162,0.027344,1.026856,0.725191,3.473282,0.122137,1.029348,3.550283,449,831,382,449,1,32.374,19,load
1780604188.740982,9.368544099997962,9517,0.054688,0.048828,1.076172,1.946565,2.183206,-0.977099,1.078666,3.083866,450,832,382,450,0,32.374,12,load
1780604188.7724154,9.399977399996715,9548,0.093262,0.014648,1.04126,3.061069,3.381679,-0.091603,1.045531,4.562268,452,834,382,452,0,32.374,0,load
1780604188.8046064,9.432168500003172,9580,-0.034912,0.077637,1.03418,1.80916,1.541985,-1.137405,1.037677,2.635236,453,836,383,453,0,32.374,3,load
1780604188.8365169,9.464078999997582,9612,0.019775,0.083984,1.073486,0.282443,1.267176,-0.984733,1.076948,1.62948,454,838,384,454,0,32.374,5,load
1780604188.8673253,9.494887299995753,9643,0.038086,0.080322,1.07251,0.053435,1.839695,-1.053435,1.076187,2.120626,455,840,385,455,0,32.374,7,load
1780604188.8992302,9.5267923999927,9675,0.040283,-0.086426,1.061768,1.961832,2.824427,-0.473282,1.06604,3.471336,456,842,386,456,0,31.873,8,load
1780604188.9290946,9.556656699991436,9706,0.03125,0.005127,1.072998,0.78626,3.122137,-0.778626,1.073465,3.312432,457,844,387,457,0,31.873,8,load
1780604188.9601681,9.587730200000806,9736,0.057617,0.021973,1.063721,0.503817,3.816794,-1.603053,1.065507,4.170315,460,848,388,460,0,31.873,9,load
1780604188.9911401,9.618702199994004,9767,0.06958,-0.076904,1.047363,2.282443,3.984733,-1.885496,1.052485,4.964145,461,850,389,461,0,31.873,8,load
1780604189.0227644,9.650326499991934,9799,0.039062,0.016113,1.053955,1.267176,4.10687,-1.305344,1.054802,4.491774,462,852,390,462,0,31.873,9,load
1780604189.053277,9.680838999993284,9829,0.025635,-0.039795,1.070068,1.129771,3.038168,-0.877863,1.071115,3.358198,463,854,391,463,0,31.873,8,load
1780604189.0830169,9.71057879998989,9860,0.006836,0.066162,1.050781,0.854962,3.396947,-0.732824,1.052884,3.57872,464,856,392,464,0,31.873,8,load
1780604189.113777,9.741338899999391,9890,0.118896,-0.032715,1.068359,1.679389,4.549618,-0.137405,1.075453,4.851624,465,858,393,465,0,31.873,9,load
1780604189.145697,9.773259099994902,9921,0.102295,-0.044189,1.032959,2.274809,5.48855,0.351145,1.038952,5.951658,465,859,394,465,1,31.873,23,load
1780604189.176094,9.803656099989894,9952,0.057617,-0.088623,1.040772,2.51145,3.961832,-0.40458,1.046126,4.708204,466,861,395,466,1,36.101,14,load
1780604189.206358,9.83391999999003,9983,0.029297,0.008057,1.046875,1.137405,0.870229,-1.656489,1.047316,2.189736,468,865,397,468,1,36.101,3,load
1780604189.237739,9.865301199999521,10014,0.005127,-0.054199,1.068604,2.206107,0.496183,-2.030534,1.069989,3.039108,469,867,398,469,1,36.101,18,load
1780604189.2690892,9.89665129999048,10045,0.036133,0.079346,1.054932,0.748092,2.450382,-0.832061,1.058528,2.693759,470,869,399,470,1,36.101,19,load
1780604189.301668,9.929229899993516,10077,0.067139,-0.055176,1.058594,1.648855,3.328244,0.206107,1.062155,3.720002,471,871,400,471,1,36.101,20,load
1780604189.3321939,9.959755899995798,10108,0.115723,-0.131592,1.075684,1.099237,5.137404,0.206107,1.089864,5.25773,472,873,401,472,1,36.101,22,load
1780604189.3636794,9.991241399999126,10139,0.051025,-0.086914,1.045654,2.610687,2.450382,-1.198473,1.0505,3.775764,473,874,401,473,0,36.101,9,load
1780604189.394237,10.021798999994644,10170,0.019043,0.041748,1.035889,1.541985,1.656489,-1.061069,1.036904,2.499508,474,876,402,474,0,36.101,1,load
1780604189.4250574,10.0526194999984,10201,0.057129,0.092529,1.053467,0.274809,3.0,-0.282443,1.059064,3.025772,475,878,403,475,0,36.101,2,load
1780604189.4569461,10.084508200001437,10232,0.037842,-0.032715,1.063721,0.961832,2.435115,-0.618321,1.064896,2.690209,476,880,404,476,0,35.714,5,load
1780604189.4865906,10.114152699999977,10263,0.002686,-0.012451,1.046143,3.068702,2.343511,-1.137405,1.04622,4.025254,477,884,407,477,0,35.714,6,load
1780604189.5185194,10.146081500002765,10294,0.073975,0.043701,1.050537,2.458015,4.625954,-0.969466,1.054045,5.327397,478,886,408,478,0,35.714,8,load
1780604189.5499408,10.177502799997455,10325,0.017578,0.064941,1.053955,1.320611,3.206107,-1.122137,1.0561,3.644493,479,888,409,479,0,35.714,8,load
1780604189.5809875,10.208549499991932,10357,0.001709,-0.093262,1.054443,2.290076,1.977099,-1.351145,1.058561,3.313452,481,892,411,481,0,35.714,8,load
1780604189.6121461,10.23970819999522,10388,0.072266,0.070557,1.0625,1.061069,4.038168,-1.755725,1.06729,4.529375,482,894,412,482,0,35.714,8,load
1780604189.6436107,10.271172699998715,10419,0.023926,0.063232,1.037598,1.374046,3.259542,-0.793893,1.039798,3.625311,483,896,413,483,0,35.714,9,load
1780604189.6753688,10.30293079999683,10450,0.021729,0.094727,1.044434,2.717557,1.770992,-2.21374,1.048946,3.927108,485,900,415,485,0,35.714,9,load
1780604189.7057683,10.333330499997828,10481,0.033203,-0.07666,1.050537,1.824428,3.061069,-0.541985,1.053854,3.604501,485,901,416,485,1,35.714,26,load
1780604189.7374053,10.364967399989837,10513,0.027344,-0.149414,1.06543,2.320611,2.908397,-1.10687,1.076203,3.881903,486,903,417,486,1,35.587,18,load
1780604189.7695305,10.397092699990026,10545,0.041992,-0.019287,1.062256,-0.152672,3.328244,0.053435,1.06326,3.332172,487,904,417,487,0,35.587,14,load
1780604189.8011258,10.428687699997681,10577,0.064941,-0.092285,1.046387,3.145038,2.664122,-1.335878,1.052454,4.332826,489,906,417,489,0,35.587,0,load
1780604189.8321717,10.459733800002141,10608,0.036377,0.028564,1.02002,2.061069,3.908397,-0.48855,1.021068,4.445475,490,908,418,490,0,35.587,5,load
1780604189.8637366,10.491298599998117,10639,0.051514,0.000977,1.025879,3.549618,0.78626,-2.122137,1.027172,4.209686,493,912,419,493,0,35.587,9,load
1780604189.8940043,10.521566299998085,10670,0.022705,0.08252,1.029053,0.664122,2.091603,-1.679389,1.032606,2.763369,494,914,420,494,0,35.587,9,load
1780604189.9256186,10.55318059999263,10701,0.067627,0.069092,1.043701,1.770992,3.061069,-1.022901,1.048169,3.681424,494,915,421,494,1,35.587,27,load
1780604189.9560053,10.583567299996503,10732,0.07959,-0.034912,1.068848,0.061069,4.0229,-0.396947,1.072375,4.042898,495,917,422,495,1,35.587,19,load
1780604189.9879982,10.615560299993376,10763,0.06958,-0.133545,1.07959,2.244275,1.587786,-2.038168,1.090041,3.422274,496,918,422,496,0,40.0,13,load
1780604190.0183973,10.645959300003597,10794,0.042725,-0.135742,1.056885,1.641221,2.51145,-0.526718,1.066422,3.04605,497,920,423,497,0,40.0,2,load
1780604190.0484064,10.675968399998965,10825,0.109375,0.056152,1.067871,0.671756,5.114504,-0.137405,1.074925,5.16026,498,922,424,498,0,40.0,8,load
1780604190.0796545,10.70721659999981,10855,0.067383,-0.015381,1.073486,1.793893,2.458015,-2.114504,1.075709,3.705539,499,924,425,499,0,40.0,8,load
1780604190.1100168,10.737578899992513,10886,0.045166,-0.037109,1.04126,1.549618,3.053435,-1.328244,1.042899,3.67274,500,926,426,500,0,40.0,9,load
1780604190.1413226,10.768884599994635,10917,0.094482,-0.041992,1.080566,0.984733,4.374046,1.08397,1.085502,4.612696,501,928,427,501,0,40.0,9,load
1780604190.1727474,10.800309500002186,10948,0.084473,-0.025391,1.072754,1.274809,3.419847,-0.847328,1.076374,3.746793,501,929,428,501,1,40.0,26,load
1780604190.20322,10.830781900003785,10979,0.046631,0.048584,1.029297,2.091603,2.847328,-0.473282,1.031497,3.564558,502,931,429,502,1,40.0,20,load
1780604190.235555,10.863116900000023,11011,0.082275,-0.034668,1.035644,2.396947,3.374046,0.732824,1.039486,4.203162,503,932,429,503,0,40.0,11,load
1780604190.2666836,10.894245599993155,11042,0.080078,-0.158203,1.087402,2.221374,2.244275,-1.48855,1.101764,3.490996,504,934,430,504,0,28.674,1,load
1780604190.2972932,10.924855199991725,11073,0.077393,0.090088,1.068115,-0.198473,1.78626,-1.21374,1.074698,2.168705,505,936,431,505,0,28.674,5,load
1780604190.3276448,10.955206899991026,11104,0.00708,0.104004,1.053955,0.709924,3.419847,-0.793893,1.059098,3.581845,506,938,432,506,0,28.674,7,load
1780604190.3579135,10.985475599998608,11135,0.076904,0.001709,1.034668,4.0229,4.29771,-0.961832,1.037524,5.964826,507,940,433,507,0,28.674,9,load
1780604190.3893278,11.016889799997443,11165,-0.018311,0.047363,1.040283,0.763359,1.78626,-2.21374,1.041522,2.94518,508,942,434,508,0,28.674,8,load
1780604190.4202495,11.047811500000535,11196,0.027832,0.066406,1.027588,0.839695,3.251908,-0.587786,1.030107,3.409617,509,944,435,509,0,28.674,9,load
1780604190.457179,11.084740999998758,11232,0.093262,-0.1521,1.056641,3.427481,4.51145,0.732824,1.071598,5.712954,511,948,437,511,0,28.674,12,load
1780604190.4881625,11.115724499992211,11264,0.0625,-0.086914,1.074707,1.030534,3.717557,0.526718,1.080026,3.893541,512,950,438,512,0,28.674,9,load
1780604190.5200639,11.14762589999009,11295,0.097656,-0.128662,1.064697,1.610687,4.442748,0.045802,1.07688,4.72593,512,951,439,512,1,31.621,26,load
1780604190.5499086,11.177470700000413,11326,0.028564,0.130615,1.053223,0.709924,2.0,-1.427481,1.061675,2.557674,513,953,440,513,1,31.621,18,load
1780604190.5806234,11.208185499999672,11356,0.060303,-0.130615,1.073242,1.992366,2.931298,1.061069,1.082841,3.699716,516,956,440,516,0,31.621,0,load
1780604190.612027,11.239588900003582,11388,0.068115,-0.145752,1.084473,3.412214,1.656489,-1.839695,1.096341,4.215642,517,958,441,517,0,31.621,0,load
1780604190.6433597,11.27092179999454,11419,-0.008789,-0.165771,1.036865,0.610687,1.687023,-0.778626,1.05007,1.955823,518,960,442,518,0,31.621,4,load
1780604190.6744838,11.30204579999554,11450,0.044922,-0.069336,1.076416,0.847328,2.885496,-1.21374,1.079582,3.243026,519,962,443,519,0,31.621,7,load
1780604190.7047687,11.33233079999627,11481,0.083984,0.031982,1.071777,0.381679,4.740458,-0.427481,1.075538,4.774972,520,964,444,520,0,31.621,8,load
1780604190.7357216,11.363283600003342,11512,0.112061,-0.133789,1.074463,3.244275,4.70229,-1.045802,1.088544,5.807801,521,966,445,521,0,31.621,8,load
1780604190.7670667,11.394628699999885,11543,0.026123,-0.04126,1.063232,1.740458,0.80916,-2.267176,1.064353,2.970525,522,968,446,522,0,31.621,8,load
1780604190.7986004,11.426162399991881,11574,0.028076,0.114014,1.050293,0.099237,2.312977,-1.465649,1.056836,2.740043,523,970,447,523,0,39.427,8,load
1780604190.8296385,11.457200599994394,11606,0.054199,0.020264,1.069092,-0.244275,4.0,0.122137,1.070657,4.009312,524,972,448,524,0,39.427,9,load
1780604190.8611553,11.488717300002463,11637,0.063965,0.061768,1.033691,1.572519,4.358778,0.167939,1.037509,4.636806,524,973,449,524,1,39.427,26,load
1780604190.8925776,11.520139699990978,11668,0.035645,-0.058594,1.044678,1.717557,1.877863,-1.748092,1.046927,3.087425,525,975,450,525,1,39.427,20,load
1780604190.924506,11.55206809999072,11700,0.049561,0.110596,1.04248,0.923664,3.351145,-0.534351,1.049501,3.516939,526,976,450,526,0,39.427,12,load
1780604190.9563038,11.583866000000853,11732,0.073975,0.005859,1.063965,0.740458,3.312977,0.358779,1.066549,3.413622,528,978,450,528,0,39.427,0,load
1780604190.9867914,11.614353500001016,11763,0.067383,0.06958,1.082275,2.427481,2.236641,-1.732824,1.086601,3.72799,529,980,451,529,0,39.427,2,load
1780604191.018689,11.646250999998301,11794,0.052979,-0.161621,1.054932,1.129771,3.022901,-1.160305,1.068554,3.429376,530,982,452,530,0,39.427,5,load
1780604191.0491781,11.676740199996857,11825,0.025146,-0.12085,1.056396,0.480916,2.274809,-0.374046,1.063584,2.354984,531,984,453,531,0,31.873,6,load
1780604191.0812528,11.708814899990102,11857,0.053711,0.115234,1.060059,0.21374,3.557252,-0.854962,1.067655,3.66479,532,986,454,532,0,31.873,9,load
1780604191.1127164,11.740278500001295,11888,0.11792,0.047363,1.044922,0.610687,4.908397,-0.221374,1.05262,4.951192,533,988,455,533,0,31.873,8,load
1780604191.1433392,11.770901199997752,11919,-0.002197,-0.072998,1.063721,4.305344,0.80916,-2.694656,1.066225,5.143141,534,990,456,534,0,31.873,8,load
1780604191.1744096,11.801971599998069,11950,0.047607,-0.087646,1.070312,1.244275,3.274809,-1.10687,1.07495,3.673929,535,992,457,535,0,31.873,9,load
1780604191.2060964,11.833658499992453,11981,0.080566,0.020264,1.067871,1.19084,4.053436,0.877863,1.071098,4.314984,535,993,458,535,1,31.873,27,load
1780604191.2365465,11.86410849999811,12012,0.014404,-0.125732,1.060059,1.801527,2.259542,-1.091603,1.067586,3.089114,536,995,459,536,1,31.873,17,load
1780604191.2679586,11.895520599995507,12043,0.009033,0.044434,1.029297,2.839695,2.847328,-1.099237,1.030295,4.168868,537,996,459,537,0,31.873,13,load
1780604191.2984684,11.92603039999085,12074,0.061279,-0.007813,1.101562,-0.030534,2.122137,-1.145038,1.103293,2.411537,538,998,460,538,0,31.873,1,load
1780604191.329854,11.957416099990951,12105,0.020264,0.091797,1.048828,2.10687,0.442748,-2.351145,1.053033,3.187916,539,1000,461,539,0,28.571,7,load
1780604191.3606899,11.988251999995555,12136,0.043213,0.056152,1.071045,0.122137,4.015268,-0.847328,1.073386,4.105515,540,1002,462,540,0,28.571,9,load
1780604191.3923094,12.01987150000059,12167,0.058594,0.030029,1.04541,2.625954,3.503817,-0.59542,1.047481,4.418924,541,1004,463,541,0,28.571,10,load
1780604191.4223657,12.049927599990042,12198,0.063232,0.001709,1.081787,-0.274809,3.80916,-0.160305,1.083635,3.822423,541,1005,464,541,1,28.571,29,load
1780604191.4541788,12.081740800000262,12229,0.029053,0.11377,1.03418,2.129771,2.763359,-0.320611,1.040824,3.503551,542,1006,464,542,0,28.571,12,load
1780604191.485696,12.113258099998347,12261,0.023926,-0.188232,1.040039,1.091603,2.679389,-0.984733,1.057206,3.05621,543,1008,465,543,0,28.571,5,load
1780604191.5168328,12.144394799994188,12293,0.07666,0.014893,1.080322,1.0,3.946565,-1.519084,1.083141,4.345456,544,1010,466,544,0,28.571,10,load
1780604191.5474744,12.175036499989801,12323,0.037354,-0.151855,1.089111,0.89313,3.083969,-1.389313,1.100281,3.498391,545,1012,467,545,0,28.571,9,load
1780604191.5789094,12.206471400000737,12354,0.124268,0.093506,1.038086,2.48855,4.251908,-1.396947,1.04967,5.120846,545,1013,468,545,1,28.571,29,load
1780604191.609055,12.236617000002298,12385,0.023682,0.049561,1.027588,2.40458,1.442748,-1.396947,1.029055,3.132888,546,1014,468,546,0,25.0,12,load
1780604191.6402926,12.26785469999595,12416,0.068604,-0.21167,1.057129,0.740458,4.076336,0.206107,1.080293,4.148165,547,1016,469,547,0,25.0,6,load
1780604191.6713467,12.298908800003119,12447,0.04248,0.008301,1.092041,0.061069,4.030534,-0.778626,1.092898,4.105508,548,1018,470,548,0,25.0,9,load
1780604191.7206104,12.348172500001965,12478,0.034668,0.120117,1.048828,2.076336,2.145038,-2.29771,1.056253,3.767204,549,1020,471,549,0,25.0,9,load
1780604191.7328427,12.360404799997923,12508,0.034424,0.080078,1.041992,2.206107,2.137405,-0.053435,1.045631,3.072175,549,1021,472,549,1,25.0,29,load
1780604191.7624238,12.389985799993156,12539,0.064209,-0.000244,1.005615,3.519084,3.267176,-0.793893,1.007663,4.8671,550,1022,472,550,0,25.0,14,load
1780604191.7942946,12.421856699991622,12570,0.004395,-0.030518,1.029053,3.160305,2.916031,-0.633588,1.029514,4.346516,551,1024,473,551,0,25.0,2,load
1780604191.824537,12.452099200003431,12601,0.054932,-0.043701,1.028076,2.236641,4.114504,-0.19084,1.03047,4.687016,552,1026,474,552,0,25.0,8,load
1780604191.8562489,12.48381099999824,12632,0.040527,0.023926,1.023193,1.748092,4.114504,-0.076336,1.024275,4.471106,553,1028,475,553,0,25.0,9,load
1780604191.8870187,12.514580799994292,12663,0.052979,0.116455,1.042725,1.358779,4.007634,-1.152672,1.050544,4.385894,554,1030,476,554,0,28.777,9,load
1780604191.9183486,12.54591069999151,12694,0.02124,-0.161621,1.056152,2.625954,2.496183,-1.549618,1.068658,3.940544,554,1031,477,554,1,28.777,28,load
1780604191.9493773,12.576939299993683,12725,0.008789,0.078369,1.03418,1.122137,1.801527,-0.526718,1.037182,2.186806,555,1033,478,555,1,28.777,20,load
1780604191.979501,12.60706310000387,12756,0.200439,0.017578,1.0625,0.740458,4.824428,0.664122,1.081384,4.925895,557,1036,479,557,0,28.777,1,load
1780604192.0120895,12.639651599994977,12787,0.024902,0.061523,1.035889,3.755725,-0.068702,-2.687023,1.038013,4.618472,558,1038,480,558,0,28.777,3,load
1780604192.042337,12.66989889999968,12818,0.027588,0.052246,1.08374,0.503817,2.625954,-1.603053,1.085349,3.117571,559,1040,481,559,0,28.777,7,load
1780604192.0722983,12.699860399996396,12849,0.0625,-0.13623,1.055908,0.610687,3.763359,-0.969466,1.066493,3.933913,560,1042,482,560,0,28.777,8,load
1780604192.1021545,12.729716599991661,12879,0.043945,-0.138428,1.079834,1.70229,2.854962,-1.381679,1.089557,3.599672,561,1044,483,561,0,28.777,9,load
1780604192.1336102,12.761172300000908,12909,0.048096,-0.112549,1.085938,1.961832,2.740458,-1.526718,1.092813,3.699968,561,1045,484,561,1,28.777,28,load
1780604192.1643598,12.791921800002456,12940,0.047363,-0.118164,1.082764,1.129771,2.534351,-0.061069,1.090222,2.775436,563,1049,486,563,1,32.491,4,load
1780604192.195949,12.823511199996574,12971,0.099854,0.019287,1.009522,2.885496,5.08397,-0.740458,1.014631,5.892463,564,1050,486,564,0,32.491,11,load
1780604192.2275558,12.855117799990694,13002,0.032715,0.061768,1.037354,2.251908,2.251908,-1.587786,1.039706,3.558546,565,1052,487,565,0,32.491,4,load
1780604192.2576165,12.88517850000062,13033,0.02124,0.063721,1.032715,1.503817,3.80916,-0.496183,1.034897,4.125211,566,1054,488,566,0,32.491,9,load
1780604192.2889433,12.916505300003337,13064,0.053223,0.068115,1.041992,0.534351,3.274809,-0.175573,1.045572,3.32276,567,1056,489,567,0,32.491,9,load
1780604192.319289,12.946851000000606,13095,0.027588,0.098633,1.031006,1.389313,2.969466,-0.496183,1.03608,3.315738,567,1057,490,567,1,32.491,27,load
1780604192.3503232,12.977885200001765,13126,0.041992,-0.125732,1.077637,-0.396947,2.954198,-0.778626,1.085759,3.080765,568,1059,491,568,1,32.491,19,load
1780604192.381015,13.008577100001276,13157,0.096191,-0.144043,1.073242,0.587786,4.236642,0.198473,1.087129,4.281824,570,1062,492,570,0,32.491,1,load
1780604192.4117448,13.039306899998337,13188,-0.006836,-0.176025,1.053955,2.832061,-0.068702,-2.396947,1.068575,3.710882,571,1064,493,571,0,32.491,3,load
1780604192.443618,13.071180099999765,13219,0.052734,-0.162842,1.066894,1.748092,3.916031,-0.648855,1.080538,4.337296,572,1066,494,572,0,32.258,9,load
1780604192.4740624,13.101624599992647,13250,0.036865,-0.096436,1.061768,1.541985,4.114504,0.114504,1.066775,4.395448,573,1068,495,573,0,32.258,9,load
1780604192.5051613,13.132723399990937,13281,0.061279,-0.181396,1.043213,1.198473,4.183206,-0.450382,1.060638,4.374745,574,1070,496,574,0,32.258,10,load
1780604192.5366046,13.164166799993836,13312,0.050537,-0.148682,1.078125,1.732824,3.038168,-0.908397,1.089502,3.613631,574,1071,497,574,1,32.258,28,load
1780604192.5677867,13.195348699999158,13343,0.064453,-0.096191,1.044922,0.954198,4.236642,0.755725,1.051318,4.408032,575,1072,497,575,0,32.258,13,load
1780604192.5990012,13.22656329999154,13374,-0.011475,-0.131348,1.049805,2.740458,-0.137405,-2.564885,1.058052,3.756012,576,1074,498,576,0,32.258,2,load
1780604192.6436405,13.271202599993558,13405,0.056641,-0.12793,1.051514,2.022901,3.648855,-1.183206,1.06078,4.336617,577,1076,499,577,0,32.258,8,load
1780604192.661559,13.2891210999951,13437,0.062744,0.047363,1.018799,1.954198,4.38168,-0.29771,1.021827,4.806936,579,1080,501,579,0,32.258,9,load
1780604192.6929233,13.320485399992322,13468,0.073486,-0.080322,1.035156,2.770992,3.694656,-0.526718,1.040865,4.64826,580,1082,502,580,0,32.258,9,load
1780604192.7229776,13.35053969999717,13499,0.058838,-0.168213,1.071777,0.877863,3.778626,0.160305,1.086492,3.88257,580,1083,503,580,1,28.571,29,load
1780604192.754196,13.381757900002412,13530,0.055176,-0.145508,1.058838,0.167939,3.732824,-1.007634,1.070212,3.870078,581,1084,503,581,0,28.571,12,load
1780604192.7854965,13.413058599995566,13561,0.054443,0.114258,1.056885,2.328244,2.427481,-1.343511,1.064436,3.621934,582,1086,504,582,0,28.571,4,load
1780604192.8165503,13.444112299999688,13592,0.019043,0.023193,1.03125,1.374046,3.290076,-0.274809,1.031687,3.576049,583,1088,505,583,0,28.571,9,load
1780604192.8478103,13.475372300003073,13623,0.038086,-0.134033,1.050049,3.503817,2.473282,-1.709924,1.059253,4.61711,584,1090,506,584,0,28.571,9,load
1780604192.8782384,13.505800400002045,13655,0.002197,-0.017578,1.01709,3.40458,1.21374,-1.526718,1.017244,3.923672,584,1091,507,584,1,28.571,28,load
1780604192.9090488,13.536610900002415,13685,-0.010986,-0.061768,1.020264,0.755725,2.221374,-0.816794,1.022191,2.484507,585,1093,508,585,1,28.571,22,load
1780604192.940445,13.568006899993634,13716,0.096191,-0.146729,1.026123,2.717557,4.389313,-1.290076,1.041014,5.321229,586,1094,508,586,0,28.571,9,load
1780604192.9711254,13.59868729999289,13747,-0.006836,-0.158203,1.039062,1.885496,3.122137,-0.923664,1.051059,3.762445,587,1096,509,587,0,28.571,6,load
1780604193.0024395,13.630001500001526,13778,0.043213,-0.156738,1.051025,1.152672,4.160306,0.022901,1.063526,4.317096,588,1098,510,588,0,28.674,9,load
1780604193.0331802,13.660742199994274,13809,0.027832,-0.134766,1.074707,2.259542,2.671756,-1.450382,1.083481,3.787798,589,1100,511,589,0,28.674,9,load
1780604193.0641837,13.691745699994499,13840,0.000732,-0.005859,1.022217,3.770992,1.419847,-1.641221,1.022234,4.350857,589,1101,512,589,1,28.674,28,load
1780604193.09646,13.724022099995636,13871,0.026611,-0.010254,1.013672,1.183206,3.793893,0.221374,1.014073,3.980278,590,1103,513,590,1,28.674,21,load
1780604193.1278527,13.75541469999007,13903,0.126465,0.086182,1.072998,0.465649,4.57252,-0.007634,1.083857,4.596175,591,1104,513,591,0,28.674,11,load
1780604193.1584406,13.78600269999879,13934,-0.022217,-0.161133,1.06543,0.946565,-0.015267,-2.916031,1.077774,3.065853,592,1106,514,592,0,28.674,4,load
1780604193.1898546,13.81741659999534,13965,0.073242,-0.155762,1.070557,0.389313,3.748092,-0.931298,1.084305,3.881632,593,1108,515,593,0,28.674,9,load
1780604193.2215028,13.849064900001395,13996,0.050293,-0.149658,1.055664,0.458015,3.717557,-0.419847,1.067405,3.769122,594,1110,516,594,0,28.674,9,load
1780604193.251981,13.87954300000274,14027,0.092285,-0.167725,1.069824,1.992366,4.0229,-0.549618,1.086817,4.522758,595,1112,517,595,0,28.674,9,load
1780604193.2836251,13.911187099991366,14059,0.03418,-0.021729,1.020752,2.793893,3.305344,-0.496183,1.021555,4.356298,595,1113,518,595,1,24.911,27,load
1780604193.3147879,13.942349799996009,14090,0.058105,0.022461,1.041748,1.366412,2.89313,0.129771,1.043609,3.202206,596,1114,518,596,0,24.911,14,load
1780604193.3453884,13.97295049999957,14121,0.009766,0.080811,1.05957,2.816794,2.541985,-2.671756,1.062692,4.640506,597,1116,519,597,0,24.911,1,load
1780604193.3757699,14.003331799991429,14151,0.051514,0.023926,1.032715,2.641221,2.610687,-0.954198,1.034276,3.834349,598,1118,520,598,0,24.911,7,load
1780604193.4064944,14.03405639999255,14182,0.059082,0.04248,1.022949,1.954198,4.70229,0.175573,1.025534,5.095218,599,1120,521,599,0,24.911,9,load
1780604193.4366066,14.064168800003245,14212,0.071533,-0.113281,1.02417,2.80916,3.984733,-0.648855,1.032896,4.918383,600,1122,522,600,0,24.911,9,load
1780604193.4680076,14.095569500001147,14243,0.028564,0.016602,1.020264,2.21374,2.160305,-1.122137,1.020798,3.290404,600,1123,523,600,1,24.911,27,load
1780604193.4984076,14.12596959999064,14274,-0.002686,-0.134766,1.064697,0.038168,1.78626,-0.641221,1.073196,1.898248,601,1125,524,601,1,24.911,22,load
1780604193.5290213,14.156583199990564,14305,0.114502,-0.025391,1.041504,3.160305,4.587786,-0.435114,1.048087,5.587901,602,1126,524,602,0,24.911,9,load
1780604193.559739,14.187301199999638,14336,-0.005127,0.092285,1.062012,1.412214,-0.847328,-2.862595,1.066026,3.302539,603,1128,525,603,0,28.881,4,load
1780604193.6070051,14.234567199993762,14367,0.049561,-0.127441,1.060791,2.305344,2.923664,-1.053435,1.069568,3.869386,604,1130,526,604,0,28.881,9,load
1780604193.6222477,14.249809699991602,14398,0.044434,-0.100342,1.06958,0.244275,3.48855,-0.862595,1.075195,3.601905,605,1132,527,605,0,28.881,9,load
1780604193.6527472,14.280309199995827,14429,0.05249,0.04834,1.033691,1.366412,3.908397,-0.366412,1.036151,4.15655,606,1134,528,606,0,28.881,8,load
1780604193.6829998,14.310561999998754,14460,0.0625,-0.177734,1.05249,1.51145,3.870229,-0.732824,1.06922,4.219026,607,1136,529,607,0,28.881,9,load
1780604193.7145994,14.342161299995496,14490,0.018799,-0.067139,1.029541,3.541985,1.564886,-1.618321,1.031899,4.196842,607,1137,530,607,1,28.881,26,load
1780604193.7447305,14.372292500003823,14521,0.05249,-0.061035,1.07666,0.007634,3.351145,0.015267,1.079665,3.351188,608,1139,531,608,1,28.881,21,load
1780604193.7765708,14.404132900002878,14552,0.059082,0.037598,1.068359,-0.305344,3.496183,0.274809,1.070652,3.520235,609,1140,531,609,0,28.881,10,load
1780604193.8079517,14.435513799995533,14584,0.122803,0.120117,1.036133,1.778626,4.57252,-1.267176,1.050276,5.067265,610,1142,532,610,0,28.881,2,load
1780604193.8394942,14.467056199995568,14615,0.019775,-0.129395,1.064453,2.496183,0.931298,-2.206107,1.072471,3.459068,611,1144,533,611,0,28.674,6,load
1780604193.870391,14.497952999998233,14646,0.037109,-0.131836,1.063232,0.732824,3.022901,-1.282443,1.072017,3.364464,612,1146,534,612,0,28.674,8,load
1780604193.9024189,14.529980899998918,14678,0.032715,0.05249,1.023438,0.854962,3.007634,-0.977099,1.025305,3.275904,613,1148,535,613,0,28.674,8,load
1780604193.9335544,14.561116400000174,14709,0.029541,-0.037354,1.029541,1.778626,3.183206,-0.877863,1.030642,3.750594,614,1150,536,614,0,28.674,9,load
1780604193.9648168,14.592378899993491,14740,0.083496,-0.02124,1.074219,0.900763,4.549618,-0.015267,1.077668,4.637956,615,1152,537,615,0,28.674,9,load
1780604193.997183,14.62474509999447,14772,0.015869,0.089844,1.041504,1.717557,0.89313,-2.450382,1.045492,3.122828,615,1153,538,615,1,28.674,26,load
1780604194.0277932,14.655355199996848,14803,0.079834,-0.114014,1.052734,1.587786,3.603053,-0.076336,1.061896,3.938132,616,1155,539,616,1,28.674,20,load
1780604194.059389,14.686951099996804,14834,0.047363,-0.12915,1.063721,1.053435,2.48855,0.526718,1.072579,2.753187,617,1156,539,617,0,28.674,12,load
1780604194.0909622,14.718524099997012,14866,0.085205,-0.141846,1.07959,1.847328,4.145038,-0.51145,1.092197,4.566787,618,1158,540,618,0,27.888,1,load
1780604194.121515,14.74907720000192,14897,0.004395,0.097168,1.069092,1.465649,1.480916,-2.427481,1.073507,3.199047,619,1160,541,619,0,27.888,4,load
1780604194.1524227,14.779984599997988,14928,0.048828,-0.029053,1.033447,2.603053,2.854962,-1.465649,1.035008,4.132169,620,1162,542,620,0,27.888,8,load
1780604194.1837344,14.811296500003664,14959,0.025146,-0.043701,1.04541,2.229008,2.977099,-1.236641,1.046625,3.919295,621,1164,543,621,0,27.888,8,load
1780604194.2140195,14.841581499989843,14990,0.072021,-0.137939,1.05249,-0.145038,5.328244,0.229008,1.063931,5.335135,622,1166,544,622,0,27.888,9,load
1780604194.245881,14.873443099990254,15021,0.022705,0.164795,1.054688,0.908397,2.083969,-1.564886,1.067726,2.759888,623,1168,545,623,0,27.888,8,load
1780604194.2763484,14.903910299995914,15052,0.030273,-0.145752,1.051025,3.725191,2.679389,-1.007634,1.061515,4.698032,623,1169,546,623,1,27.888,27,load
1780604194.3072278,14.934789799997816,15083,0.023682,-0.123291,1.090332,0.160305,3.198473,-0.832061,1.097536,3.308815,624,1171,547,624,1,27.888,18,load
1780604194.339582,14.967143999994732,15114,0.026855,-0.014404,1.041016,1.473282,2.282443,0.496183,1.041462,2.761576,625,1172,547,625,0,27.888,12,load
1780604194.3707771,14.998339199999464,15145,0.098389,0.095459,1.053955,1.923664,4.366412,-1.175572,1.062833,4.914062,626,1174,548,626,0,28.674,1,load
1780604194.4007041,15.028266099994653,15176,0.022217,-0.164551,1.069336,1.572519,2.328244,-2.473282,1.082151,3.743082,627,1176,549,627,0,28.674,5,load
1780604194.4315813,15.059143399994355,15207,0.026123,0.038086,1.03833,1.80916,3.038168,-1.145038,1.039357,3.716805,628,1178,550,628,0,28.674,9,load
1780604194.4635353,15.091097299999092,15238,0.065918,-0.116943,1.038574,0.89313,5.122138,0.335878,1.047214,5.210258,629,1180,551,629,0,28.674,8,load
1780604194.4933796,15.120941599991056,15269,0.052002,0.14209,1.069092,1.770992,2.290076,-0.954198,1.079746,3.048173,630,1182,552,630,0,28.674,9,load
1780604194.5246108,15.152172699992661,15300,0.046631,-0.150879,1.052978,3.091603,2.587786,-1.10687,1.064755,4.180886,630,1183,553,630,1,28.674,26,load
1780604194.555326,15.18288809999649,15331,0.026123,0.099121,1.061035,0.900763,2.099237,-0.870229,1.065975,2.444477,631,1185,554,631,1,28.674,19,load
1780604194.587006,15.214568199997302,15362,0.029541,-0.054932,1.043213,1.671756,2.862595,0.450382,1.045076,3.345454,632,1186,554,632,0,28.674,12,load
1780604194.6187985,15.246360499993898,15393,0.045898,-0.070312,1.050781,2.198473,3.877863,-0.389313,1.054131,4.47467,634,1188,554,634,0,28.674,1,load
1780604194.6499932,15.277555299995583,15425,0.02832,-0.077393,1.023193,3.465649,4.38168,-1.152672,1.026507,5.704252,635,1190,555,635,0,32.143,3,load
1780604194.6814883,15.30905029999849,15457,0.023438,-0.02417,1.046143,3.396947,0.366412,-2.21374,1.046684,4.071136,636,1192,556,636,0,32.143,6,load
1780604194.7132983,15.340860299998894,15488,0.016357,-0.136719,1.05542,1.801527,2.961832,-1.541985,1.064364,3.794162,637,1194,557,637,0,32.143,8,load
1780604194.7444293,15.37199139999575,15519,0.052002,0.063965,1.064209,0.763359,3.152672,-1.045802,1.067397,3.40819,638,1196,558,638,0,32.143,9,load
1780604194.7757604,15.403322500002105,15550,0.094482,0.030762,1.050781,-0.015267,4.442748,-0.122137,1.055469,4.444453,639,1198,559,639,0,32.143,8,load
1780604194.8060625,15.433624400000554,15581,0.026367,0.095459,1.043457,1.877863,2.946565,-1.198473,1.048146,3.693908,640,1200,560,640,0,32.143,8,load
1780604194.8376915,15.465253599992138,15612,0.025635,-0.091553,1.050293,3.977099,3.145038,-0.78626,1.054587,5.130964,640,1201,561,640,1,32.143,26,load
1780604194.8683708,15.495932699996047,15643,0.012695,-0.144775,1.07251,3.007634,1.900763,-0.984733,1.082312,3.691674,642,1205,563,642,1,32.143,4,load
1780604194.900342,15.52790410000307,15674,0.06665,-0.121094,1.048828,0.755725,4.007634,0.267176,1.057897,4.087008,643,1207,564,643,1,32.143,20,load
1780604194.9317355,15.559297500003595,15706,0.030518,-0.018066,1.049072,1.427481,2.129771,0.183206,1.049672,2.570446,644,1208,564,644,0,32.028,11,load
1780604194.9625924,15.59015439999348,15738,0.072021,0.043945,1.061035,2.328244,4.40458,-0.122137,1.064384,4.98357,646,1210,564,646,0,32.028,0,load
1780604194.9930093,15.62057129999448,15768,0.017822,-0.031006,1.082275,1.984733,0.687023,-2.763359,1.082866,3.470925,647,1212,565,647,0,32.028,3,load
1780604195.0243983,15.651960299990606,15800,0.030029,-0.142334,1.065186,2.839695,2.320611,-2.21374,1.075072,4.28366,648,1214,566,648,0,32.028,7,load
1780604195.0556247,15.683186700000078,15831,0.01709,-0.132324,1.068604,1.435114,2.282443,-1.198473,1.076901,2.950498,649,1216,567,649,0,32.028,9,load
1780604195.0863316,15.713893699998152,15862,0.063721,-0.091797,1.079102,0.938931,3.900763,-0.725191,1.084872,4.077186,650,1218,568,650,0,32.028,8,load
1780604195.1178925,15.745454599993536,15893,0.064697,0.048828,1.054199,0.183206,3.977099,-0.221374,1.057311,3.987466,652,1222,570,652,0,32.028,8,load
1780604195.149952,15.777514000001247,15924,0.061523,0.129639,1.053467,0.908397,2.664122,-1.022901,1.063195,2.994838,653,1224,571,653,0,32.028,8,load
1780604195.180352,15.807913900003769,15955,0.088867,-0.019287,1.074219,1.534351,4.366412,-0.389313,1.078061,4.644498,654,1226,572,654,0,32.028,8,load
1780604195.2122009,15.839762899995549,15987,0.013672,-0.161133,1.047119,1.526718,0.923664,-1.763359,1.059532,2.508676,654,1227,573,654,1,35.587,26,load
1780604195.2428353,15.870397299993783,16018,0.050537,-0.08252,1.082275,0.618321,3.068702,-0.969466,1.086593,3.277059,655,1229,574,655,1,35.587,19,load
1780604195.2735395,15.901101700001163,16049,0.000977,0.075928,1.064941,-0.229008,2.687023,0.053435,1.067645,2.697294,656,1231,575,656,1,35.587,21,load
1780604195.3050275,15.9325894999929,16080,0.085205,0.101318,1.060303,0.183206,3.885496,0.305344,1.068535,3.901779,657,1232,575,657,0,35.587,9,load
1780604195.3361402,15.963702099994407,16111,0.110352,-0.038818,1.05957,1.687023,4.282442,-1.328244,1.066008,4.790573,658,1234,576,658,0,35.587,1,load
1780604195.3675408,15.99510279999231,16142,0.030273,0.056396,1.07251,1.564886,0.160305,-2.877863,1.074418,3.279735,659,1236,577,659,0,35.587,4,load
1780604195.3995607,16.027122799991048,16174,0.0271,-0.129639,1.066406,2.137405,1.664122,-2.442748,1.074599,3.647577,660,1238,578,660,0,35.587,7,load
1780604195.4301414,16.05770350000239,16205,0.037354,-0.068115,1.078369,1.419847,2.740458,-0.969466,1.081164,3.23511,661,1240,579,661,0,35.587,8,load
1780604195.4609213,16.088483400002588,16236,0.05249,-0.012695,1.062012,0.877863,4.282442,-0.862595,1.063384,4.455786,664,1244,580,664,0,35.587,9,load
1780604195.4924765,16.120038599998225,16267,0.088379,-0.115723,1.052734,1.19084,4.57252,0.030534,1.062757,4.725142,665,1246,581,665,0,39.286,8,load
1780604195.5235467,16.151108699996257,16299,0.021729,0.021729,1.022217,1.51145,3.389313,-0.419847,1.022678,3.734728,666,1248,582,666,0,39.286,8,load
1780604195.554354,16.181916100002127,16330,0.031738,0.020996,1.045166,2.061069,2.946565,-1.244275,1.045858,3.805058,668,1252,584,668,0,39.286,9,load
1780604195.5858502,16.213412199998857,16361,0.093994,0.018066,1.070557,2.091603,4.122138,-0.030534,1.074827,4.622526,668,1253,585,668,0,39.286,25,load
1780604195.617804,16.245366199989803,16393,0.044678,-0.118896,1.042725,2.671756,2.244275,-1.343511,1.050432,3.738994,669,1255,586,669,1,39.286,15,load
1780604195.647266,16.274827899993397,16424,0.032227,-0.061523,1.034912,3.29771,1.0,-1.885496,1.03724,3.928102,672,1259,587,672,1,39.286,5,load
1780604195.6794794,16.307041299995035,16454,0.069092,-0.125244,1.059814,1.358779,3.824427,0.137405,1.069423,4.060961,673,1261,588,673,1,39.286,21,load
1780604195.7115748,16.339136900001904,16486,0.064697,-0.056396,1.059814,-0.335878,3.931298,0.251908,1.063284,3.953653,674,1263,589,674,1,39.286,22,load
1780604195.7432005,16.370762599995942,16518,0.045166,-0.098633,1.079346,1.145038,2.496183,0.145038,1.084784,2.750105,676,1266,590,676,0,43.825,1,load
1780604195.7735312,16.401093199994648,16549,0.035156,-0.000977,1.039307,1.687023,3.496183,0.312977,1.039902,3.894522,677,1268,591,677,0,43.825,0,load
1780604195.805298,16.432860100001562,16580,0.093262,-0.013428,1.030273,3.083969,4.526718,-1.21374,1.034573,5.610276,678,1270,592,678,0,43.825,3,load
1780604195.8354475,16.463009699989925,16611,0.010986,0.002197,1.044922,2.801527,0.526718,-2.801527,1.044982,3.996816,679,1272,593,679,0,43.825,6,load
1780604195.8664193,16.49398139999539,16642,-0.006348,-0.047363,1.03125,2.198473,1.748092,-1.633588,1.032357,3.249264,680,1274,594,680,0,43.825,8,load
1780604195.8972566,16.524818599995342,16672,0.055664,-0.082764,1.067383,2.251908,4.137404,-0.900763,1.072033,4.795892,681,1276,595,681,0,43.825,8,load
1780604195.929102,16.556663900002604,16704,0.035156,0.062988,1.040039,1.152672,4.122138,-0.343511,1.042538,4.294028,682,1278,596,682,0,43.825,8,load
1780604195.9597192,16.5872812000016,16735,0.037354,0.049072,1.026367,0.870229,3.946565,-0.473282,1.028218,4.068989,683,1280,597,683,0,43.825,8,load
1780604195.9918962,16.619458100001793,16766,0.05542,-0.010986,1.044922,1.305344,2.946565,-0.954198,1.046448,3.361051,684,1282,598,684,0,43.825,8,load
1780604196.021497,16.649059000003035,16797,0.051025,-0.060547,1.040772,2.519084,3.389313,-0.793893,1.043779,4.296917,684,1283,599,684,1,28.674,25,load
1780604196.0515876,16.679149599993252,16828,0.020264,0.068359,1.046387,2.328244,1.29771,-1.755725,1.048813,3.191762,685,1285,600,685,1,28.674,17,load
1780604196.09068,16.718242000002647,16864,0.054688,-0.070312,1.056641,1.59542,2.564885,-0.221374,1.060389,3.028698,686,1287,601,686,1,28.674,20,load
1780604196.1202486,16.74781059999077,16895,0.017822,-0.031006,1.034424,2.946565,1.664122,-1.755725,1.035042,3.812364,687,1289,602,687,1,28.674,16,load
1780604196.1525378,16.780099800002063,16927,0.007568,-0.129395,1.063232,1.267176,1.671756,-1.465649,1.071104,2.559029,688,1291,603,688,1,28.674,19,load
1780604196.1828554,16.810417499989853,16958,0.071533,0.103516,1.038818,-0.618321,4.633588,0.534351,1.046411,4.705102,689,1292,603,689,1,28.674,12,load
1780604196.2138917,16.84145369999169,16989,0.040771,0.035889,1.077881,-0.129771,2.396947,-0.091603,1.079249,2.402204,691,1294,603,691,0,28.674,1,load
1780604196.24537,16.8729319999984,17020,0.120117,0.090576,1.035156,2.396947,4.305344,-1.099237,1.046031,5.048728,692,1296,604,692,0,28.674,2,load
1780604196.2758615,16.903423499999917,17051,-0.00293,-0.027832,1.041016,3.534351,-0.679389,-2.977099,1.041392,4.670795,693,1298,605,693,0,35.433,6,load
1780604196.30595,16.933511900002486,17082,0.002686,-0.12793,1.043945,2.740458,2.496183,-1.572519,1.051758,4.026643,694,1300,606,694,0,35.433,9,load
1780604196.337932,16.965494199990644,17113,0.039795,0.023682,1.054199,2.610687,3.549618,-1.229008,1.055216,4.574488,695,1302,607,695,0,35.433,9,load
1780604196.3685403,16.996102399993106,17144,0.032471,0.018311,1.030273,1.221374,4.557252,-0.19084,1.030948,4.72194,696,1304,608,696,0,35.433,8,load
1780604196.4004006,17.02796279999893,17175,0.083984,0.074707,1.049316,0.29771,4.954198,0.022901,1.05532,4.963188,697,1306,609,697,0,35.433,8,load
1780604196.4305518,17.058113799997955,17206,0.080811,-0.07959,1.056152,1.396947,3.877863,0.114504,1.062225,4.123396,698,1308,610,698,0,35.433,7,load
1780604196.4606376,17.088199499994516,17237,0.04834,-0.013428,1.050293,0.80916,2.70229,-0.10687,1.051491,2.822859,699,1310,611,699,0,35.433,7,load
1780604196.4917033,17.119265300003462,17267,0.028809,-0.011475,1.053711,1.618321,2.21374,-0.732824,1.054167,2.838422,701,1314,613,701,0,35.433,0,load
1780604196.522804,17.15036610000243,17298,0.072754,-0.026611,1.062256,1.458015,3.137405,-0.603053,1.065077,3.511807,703,1318,615,703,0,35.433,0,load
1780604196.5541499,17.18171180000354,17329,0.055908,-0.031982,1.038574,2.015267,3.625954,-0.900763,1.04057,4.245023,704,1320,616,704,0,39.568,6,load
1780604196.5851564,17.21271859999979,17360,0.049316,-0.010742,1.060303,1.89313,2.648855,-1.59542,1.061503,3.625705,707,1327,620,707,1,39.568,2,load
1780604196.6174083,17.244970400002785,17392,0.05127,-0.015381,1.047607,1.198473,3.290076,-0.885496,1.048974,3.611792,712,1334,622,712,0,39.568,0,load
1780604196.6476808,17.275242899995646,17423,0.049561,-0.013916,1.064209,0.847328,3.114504,-0.564886,1.065453,3.276766,714,1338,624,714,0,39.568,1,load
1780604196.6946437,17.322205799995572,17454,0.019531,-0.015625,1.049805,1.328244,2.839695,-0.961832,1.050103,3.27921,716,1343,627,716,1,39.568,14,load
1780604196.7113197,17.33888169999409,17485,0.043701,-0.014404,1.055908,1.290076,2.648855,-1.389313,1.05691,3.257441,721,1350,629,721,0,39.568,0,load
1780604196.7427943,17.37035630000173,17517,0.037842,-0.034424,1.060303,1.847328,2.458015,-0.89313,1.061536,3.201896,724,1356,632,724,0,39.568,0,load
1780604196.7735786,17.4011407999933,17548,0.025146,-0.013184,1.049561,2.320611,2.977099,-1.19084,1.049944,3.958087,726,1361,635,726,1,39.568,14,load
1780604196.8036354,17.43119740000111,17579,0.037109,0.000977,1.050049,1.458015,2.610687,-0.984733,1.050705,3.148205,729,1366,637,729,0,100.0,1,load
1780604196.8338242,17.461386299997685,17610,0.04248,-0.032959,1.046387,1.641221,2.641221,-1.244275,1.047767,3.34931,731,1370,639,731,0,100.0,1,load
1780604196.86581,17.49337199999718,17640,0.041016,-0.016846,1.048096,1.557252,3.183206,-1.503817,1.049033,3.849584,735,1377,642,735,1,100.0,1,load
1780604196.8965378,17.524099799993564,17671,0.046875,-0.025146,1.057129,1.045802,3.091603,-0.816794,1.058466,3.364352,741,1386,645,741,0,100.0,0,load
1780604196.9274435,17.555005599992,17702,0.045166,-0.016357,1.058838,2.290076,2.419847,-1.473282,1.059927,3.642893,743,1390,647,743,0,100.0,0,load
1780604196.9586203,17.586182300001383,17733,0.056152,-0.018799,1.052734,2.21374,3.221374,-0.610687,1.054398,3.956114,746,1394,648,746,0,100.0,6,load
1780604196.991289,17.61885099999199,17765,0.054443,-0.016357,1.054443,1.908397,3.21374,-0.992366,1.055975,3.867156,750,1400,650,750,0,100.0,1,load
1780604197.0217204,17.6492825000023,17796,0.062744,-0.046631,1.035889,2.274809,3.022901,-0.419847,1.038834,3.806436,752,1405,653,752,1,100.0,13,load
1780604197.0511584,17.678720500000054,17827,0.031982,-0.02002,1.054688,1.557252,2.778626,-0.687023,1.055362,3.258496,757,1412,655,757,1,100.0,6,load
1780604197.083819,17.711381000000983,17858,0.044189,-0.029053,1.062256,1.343511,3.160305,-0.900763,1.063571,3.550201,761,1418,657,761,0,114.695,0,load
1780604197.1135218,17.7410838999931,17889,0.041748,-0.015137,1.053955,1.664122,2.89313,-1.0,1.05489,3.484179,762,1421,659,762,1,114.695,17,load
1780604197.1452029,17.772765000001527,17920,0.040771,-0.008789,1.059814,1.259542,2.389313,-1.328244,1.060635,3.009899,767,1428,661,767,0,114.695,1,load
1780604197.17581,17.803372199996375,17951,0.038818,-0.014648,1.062744,1.320611,2.709924,-0.916031,1.063554,3.150684,769,1432,663,769,0,114.695,0,load
1780604197.2071424,17.834704299995792,17982,0.041992,-0.010498,1.050781,1.89313,3.21374,-1.80916,1.051672,4.145495,772,1439,667,772,1,114.695,1,load
1780604197.238496,17.866058200001135,18014,0.043945,-0.025391,1.052246,1.236641,3.122137,-0.717557,1.053469,3.433935,777,1446,669,777,0,114.695,0,load
1780604197.2695231,17.897085199991125,18045,0.044434,-0.01123,1.063721,1.641221,3.145038,-1.351145,1.064708,3.796112,779,1450,671,779,0,114.695,1,load
1780604197.3008292,17.92839109999477,18076,0.06665,-0.02002,1.058838,1.541985,3.450382,-0.618321,1.061122,3.829513,783,1456,673,783,0,114.695,6,load
1780604197.331419,17.958981100004166,18108,0.055908,-0.013428,1.06543,1.519084,3.083969,-0.633588,1.06698,3.4957,787,1462,675,787,0,104.0,0,load
1780604197.362225,17.989787099999376,18138,0.053955,-0.040771,1.035889,2.0,2.908397,-0.465649,1.038094,3.560281,790,1469,679,790,1,104.0,1,load
1780604197.3931205,18.020682599992142,18169,0.040771,-0.018555,1.062012,1.396947,2.587786,-0.610687,1.062956,3.003504,794,1474,680,794,0,104.0,5,load
1780604197.4247305,18.052292499996838,18200,0.05249,-0.02002,1.058106,1.244275,3.19084,-0.625954,1.059596,3.481594,798,1480,682,798,0,104.0,1,load
1780604197.4560988,18.083660799995414,18231,0.035156,-0.020264,1.052246,1.763359,2.801527,-0.977099,1.053028,3.45148,800,1485,685,800,1,104.0,15,load
1780604197.4883256,18.115887599997222,18263,0.041504,-0.015137,1.05127,1.419847,2.656489,-1.198473,1.052197,3.241795,805,1492,687,805,0,104.0,0,load
1780604197.5184762,18.146038399994723,18294,0.031738,-0.025391,1.05957,1.541985,2.946565,-1.007634,1.06035,3.474952,807,1496,689,807,0,104.0,1,load
1780604197.5493119,18.176873999997042,18325,0.032227,-0.00293,1.054932,2.076336,3.351145,-1.435114,1.055428,4.195342,812,1503,691,812,1,104.0,13,load
1780604197.5809367,18.208498599997256,18356,0.047852,-0.027832,1.044922,0.969466,3.10687,-0.816794,1.046387,3.355542,817,1510,693,817,0,104.0,0,load
1780604197.6120415,18.2396035999991,18387,0.039062,-0.015137,1.052978,1.496183,3.282443,-1.030534,1.053812,3.751666,819,1514,695,819,0,114.695,0,load
1780604197.6428246,18.27038669999456,18418,0.04834,-0.015625,1.043457,2.274809,4.137404,-0.969466,1.044693,4.820035,823,1520,697,823,0,114.695,6,load
1780604197.6742713,18.301833499994245,18450,0.040771,-0.005371,1.056885,1.480916,3.083969,-0.694656,1.057684,3.490921,827,1526,699,827,0,114.695,1,load
1780604197.7065806,18.334142599996994,18481,0.064941,-0.046143,1.034912,1.610687,3.312977,0.038168,1.037974,3.683964,829,1533,704,829,1,114.695,14,load
1780604197.7553475,18.38290959999722,18512,0.040283,-0.027344,1.053223,1.59542,3.374046,-0.954198,1.054347,3.852278,833,1538,705,833,0,114.695,5,load
1780604197.7674022,18.39496419999341,18543,0.03833,-0.031738,1.062988,1.015267,2.59542,-1.053435,1.064152,2.979379,837,1544,707,837,0,114.695,1,load
1780604197.799727,18.42728889999853,18575,0.046875,-0.013428,1.044922,1.442748,2.900763,-0.633588,1.046059,3.301118,839,1556,717,839,1,114.695,0,load
1780604197.830309,18.457870899990667,18606,0.022949,0.001465,1.056396,1.167939,2.473282,-1.458015,1.056647,3.099518,844,1563,719,844,0,114.695,0,load
1780604197.8624747,18.490036799994414,18637,0.059326,-0.024902,1.057129,1.137405,3.48855,-0.038168,1.059085,3.669486,848,1569,721,848,0,116.0,0,load
1780604197.8926523,18.520214299991494,18668,0.035889,-0.023926,1.069824,1.618321,2.374046,-1.732824,1.070693,3.355255,850,1574,724,850,1,116.0,14,load
1780604197.9237127,18.551274700002978,18699,0.039795,-0.008545,1.048828,0.877863,3.167939,-0.603053,1.049618,3.342178,854,1579,725,854,0,116.0,6,load
1780604197.9541907,18.581752700003562,18730,0.040283,-0.027832,1.058594,1.068702,3.40458,0.366412,1.059725,3.587136,856,1583,727,856,0,116.0,0,load
1780604197.9870653,18.61462739999115,18761,0.032715,-0.02002,1.058838,1.854962,2.458015,-1.152672,1.059532,3.288066,859,1590,731,859,1,116.0,3,load
1780604198.0178256,18.645387600001413,18792,0.063965,-0.01123,1.052734,1.274809,3.717557,-0.19084,1.054736,3.93469,864,1597,733,864,0,116.0,0,load
1780604198.0476456,18.675207699998282,18823,0.040771,-0.031982,1.071533,1.839695,3.038168,-1.396947,1.072785,3.816595,866,1601,735,866,0,116.0,0,load
1780604198.0796778,18.707239800001844,18854,0.05249,-0.039795,1.032959,1.015267,3.832061,0.129771,1.035057,3.966396,868,1605,737,868,0,116.0,0,load
1780604198.1098683,18.73743029999605,18885,0.040527,-0.031738,1.072754,2.679389,2.59542,-1.992366,1.073988,4.229049,871,1612,741,871,1,116.0,3,load
1780604198.1388555,18.76641739999468,18915,0.039062,0.004395,1.053467,2.083969,3.29771,-0.839695,1.0542,3.990352,876,1619,743,876,0,100.719,1,load
1780604198.1699,18.797461900001508,18945,0.03125,-0.020508,1.066406,1.236641,2.389313,-1.061069,1.067061,2.892052,877,1621,744,877,0,100.719,6,load
1780604198.2012067,18.828768699997454,18976,0.022949,-0.040039,1.050049,2.229008,1.709924,-1.664122,1.051062,3.265213,880,1627,747,880,0,100.719,1,load
1780604198.2331724,18.86073449999094,19008,0.054688,-0.033203,1.056396,2.099237,3.236641,-1.076336,1.058332,4.00514,883,1632,749,883,1,100.719,16,load
1780604198.264454,18.892015999997966,19039,0.043457,0.029785,1.05835,1.656489,3.244275,-1.274809,1.05966,3.859328,887,1637,750,887,0,100.719,0,load
1780604198.2954612,18.92302319999726,19071,0.034668,-0.031006,1.055908,1.687023,3.312977,-1.603053,1.056932,4.04866,889,1641,752,889,0,100.719,0,load
1780604198.3278708,18.955432799994014,19102,0.045898,0.01001,1.053711,1.175572,3.572519,-0.977099,1.054758,3.885819,890,1643,753,890,0,100.719,7,load
1780604198.3584087,18.98597080000036,19133,0.045898,-0.058594,1.055908,1.519084,3.137405,0.015267,1.058528,3.485851,891,1645,754,891,0,100.719,7,load
1780604198.3897069,19.01726890000282,19164,0.051758,-0.086426,1.056396,1.931298,3.290076,-0.748092,1.061189,3.887693,892,1647,755,892,0,100.719,6,load
1780604198.4217744,19.04933650000021,19196,0.032715,-0.01123,1.043213,1.839695,2.946565,-0.801527,1.043786,3.564992,893,1649,756,893,0,60.498,7,load
1780604198.452236,19.079797899990808,19227,0.03418,0.065674,1.047852,1.48855,3.580153,-0.900763,1.050464,3.980534,894,1651,757,894,0,60.498,8,load
1780604198.4839814,19.111543399994844,19259,0.048828,-0.038086,1.064941,0.51145,3.564885,0.160305,1.06674,3.604953,897,1655,758,897,0,60.498,8,load
1780604198.515403,19.14296509999258,19290,0.044922,0.029053,1.060547,1.160305,3.015267,-1.335878,1.061895,3.4961,898,1657,759,898,0,60.498,9,load
1780604198.5444996,19.1720617999963,19320,0.034912,0.041016,1.018799,1.381679,3.923664,-1.08397,1.020222,4.29874,899,1659,760,899,0,60.498,9,load
1780604198.5917618,19.21932389998983,19351,0.056885,0.074219,1.056396,1.458015,4.442748,-0.763359,1.060527,4.737777,901,1663,762,901,0,60.498,8,load
1780604198.6059911,19.23355309999897,19382,0.019775,0.061523,1.058106,1.931298,2.40458,-0.763359,1.060077,3.177205,902,1665,763,902,0,60.498,9,load
1780604198.6378648,19.265426899990416,19413,0.04126,0.001465,1.0354,2.366412,2.824427,-1.282443,1.036223,3.901532,903,1667,764,903,0,60.498,8,load
1780604198.6676433,19.295205299989902,19444,0.004639,-0.035156,1.053223,2.862595,3.183206,-2.480916,1.053819,4.947949,904,1669,765,904,0,60.498,8,load
1780604198.6990519,19.326613999990514,19474,0.070312,-0.010742,1.061035,2.580153,4.343512,-1.038168,1.063417,5.157623,905,1671,766,905,0,43.165,7,load
1780604198.7299476,19.357509599998593,19505,0.047852,-0.022949,1.040772,2.114504,4.305344,-0.625954,1.042124,4.837244,907,1675,768,907,0,43.165,0,load
1780604198.7613707,19.388932599991676,19536,0.085938,-0.024902,1.046631,1.045802,5.396946,0.389313,1.050448,5.511106,909,1679,770,909,0,43.165,7,load
1780604198.7926984,19.420260400002007,19567,0.052002,0.014404,1.040283,0.908397,3.618321,0.114504,1.041682,3.732364,910,1681,771,910,0,43.165,7,load
1780604198.8246126,19.45217469999625,19599,-0.019043,0.047119,1.061279,1.389313,2.709924,-1.091603,1.062495,3.235038,911,1683,772,911,0,43.165,5,load
1780604198.8559608,19.483523000002606,19631,0.05835,-0.016602,1.034912,1.465649,4.08397,0.244275,1.036689,4.345872,912,1685,773,912,0,43.165,2,load
1780604198.8879795,19.515541599990684,19663,0.065674,-0.078369,1.065918,1.312977,2.679389,0.206107,1.070811,2.990906,913,1687,774,913,0,43.165,1,load
1780604198.9190867,19.546648699993966,19694,0.05127,-0.048584,1.062744,1.351145,2.137405,-0.977099,1.065089,2.71087,915,1689,774,915,0,43.165,1,load
1780604198.951335,19.578897100000177,19726,0.03833,0.04126,1.061768,2.396947,1.496183,-2.427481,1.06326,3.725128,917,1691,774,917,0,47.619,0,load
1780604198.9828756,19.610437600000296,19758,0.033203,0.055176,1.06665,1.564886,1.778626,-2.427481,1.068592,3.391908,920,1696,776,920,1,47.619,3,load
1780604199.0143359,19.641898000001675,19789,0.049561,-0.072021,1.066406,2.717557,2.274809,-1.961832,1.069984,4.05076,921,1697,776,921,0,47.619,10,load
1780604199.0448687,19.672430799997528,19820,0.068359,0.031006,1.046875,1.129771,3.21374,-1.351145,1.049563,3.66471,923,1699,776,923,0,47.619,1,load
1780604199.0765495,19.70411160000367,19851,0.01416,-0.110352,1.064697,1.564886,1.694656,-1.122137,1.070494,2.565136,924,1701,777,924,0,47.619,1,load
1780604199.1077402,19.73530230000324,19882,0.014404,0.0896,1.049561,2.206107,2.175573,-0.847328,1.053477,3.212162,925,1703,778,925,0,47.619,4,load
1780604199.1361449,19.763706999990973,19913,0.032715,0.083008,1.043457,1.0,3.70229,-0.229008,1.047265,3.841796,926,1705,779,926,0,47.619,5,load
1780604199.1681564,19.795718499997747,19943,0.077148,-0.110352,1.054199,1.778626,4.824428,-0.59542,1.062763,5.176209,927,1707,780,927,0,47.619,9,load
1780604199.1987894,19.82635129999835,19974,0.033691,-0.112061,1.063477,1.305344,3.251908,-1.053435,1.069895,3.659037,928,1709,781,928,0,47.619,9,load
1780604199.2299047,19.857466599991312,20005,0.044189,-0.045654,1.059082,2.748092,4.40458,-0.366412,1.060986,5.204478,929,1711,782,929,0,43.011,9,load
1780604199.2606146,19.888176599997678,20036,0.036377,-0.130859,1.038086,2.770992,3.221374,-1.671756,1.046934,4.566226,930,1713,783,930,0,43.011,9,load
1780604199.291935,19.919496999995317,20067,0.014648,-0.153076,1.045166,1.450382,2.503817,-0.778626,1.056418,2.996492,933,1717,784,933,0,43.011,9,load
1780604199.3230143,19.950576199989882,20098,0.050781,-0.111816,1.081299,1.045802,3.51145,-0.335878,1.08825,3.679239,933,1718,785,933,1,43.011,25,load
1780604199.3541806,19.981742599993595,20129,0.053223,-0.128906,1.049561,0.732824,2.70229,-0.419847,1.058786,2.831197,934,1720,786,934,1,43.011,17,load
1780604199.385369,20.012931199991726,20161,0.004639,-0.058594,1.080811,2.068702,2.442748,-1.496183,1.082408,3.533428,935,1727,792,935,1,43.011,0,load
1780604199.4173915,20.044953499993426,20192,0.054199,-0.102051,1.05835,1.503817,2.145038,-1.320611,1.064639,2.933712,936,1728,792,936,0,43.011,9,load
1780604199.4469504,20.074512599996524,20223,0.011719,0.12793,1.05835,1.007634,1.679389,-1.10687,1.066118,2.24963,937,1730,793,937,0,43.011,2,load
1780604199.4787858,20.106347699998878,20254,0.064453,-0.089355,1.051514,2.465649,3.564885,-0.641221,1.05727,4.381666,938,1732,794,938,0,43.011,6,load
1780604199.5098124,20.137374400001136,20285,0.044922,0.128662,1.068848,-0.007634,3.519084,-1.10687,1.0775,3.689061,939,1734,795,939,0,35.714,10,load
1780604199.540938,20.168499999999767,20316,0.023926,0.036133,1.031982,3.122137,3.931298,-0.824427,1.032892,5.087487,941,1738,797,941,0,35.714,10,load
1780604199.5717633,20.19932539999718,20347,0.018311,-0.022949,1.057861,0.763359,2.526718,-1.862595,1.058269,3.230523,942,1740,798,942,0,35.714,10,load
1780604199.6044915,20.232053600004292,20378,0.023682,-0.062256,1.045898,2.412214,2.870229,-0.770992,1.048017,3.827717,942,1741,799,942,1,35.714,26,load
1780604199.6437476,20.271309699994163,20410,0.099854,-0.184082,1.077148,2.503817,3.946565,0.793893,1.097317,4.740753,943,1743,800,943,1,35.714,18,load
1780604199.6652582,20.292820100003155,20441,0.002686,-0.001465,1.071777,1.221374,0.900763,-2.832061,1.071782,3.213051,944,1745,801,944,1,35.714,22,load
1780604199.696623,20.324185199991916,20471,0.013672,-0.158936,1.062012,1.282443,1.763359,-1.274809,1.073926,2.525714,945,1746,801,945,0,35.714,9,load
1780604199.725968,20.35352989999228,20502,0.032471,0.100586,1.03125,0.916031,3.091603,-0.801527,1.036652,3.322584,946,1748,802,946,0,35.714,5,load
1780604199.7565808,20.38414290000219,20532,0.05249,0.000488,1.078369,0.251908,3.961832,-0.51145,1.079646,4.002643,947,1750,803,947,0,35.714,9,load
1780604199.7884657,20.41602769999008,20563,0.049561,0.088623,1.039062,0.717557,3.564885,-1.206107,1.044012,3.831186,948,1752,804,948,0,32.374,10,load
1780604199.8191545,20.446716599995852,20594,0.031982,0.081055,1.061279,1.480916,2.801527,-1.48855,1.06485,3.501063,949,1754,805,949,0,32.374,9,load
1780604199.8501818,20.47774390000268,20625,0.067139,0.083984,1.034424,2.099237,4.32061,-0.931298,1.039997,4.893034,950,1756,806,950,0,32.374,9,load
1780604199.8809924,20.50855450000381,20656,0.055664,0.07959,1.011963,1.030534,3.549618,-0.137405,1.016613,3.698739,950,1757,807,950,1,32.374,24,load
1780604199.9123487,20.539910799998324,20687,0.051514,0.111328,1.045654,0.587786,2.473282,-1.442748,1.052825,2.923036,951,1759,808,951,1,32.374,16,load
1780604199.9429438,20.5705059000029,20718,0.094971,0.018311,1.035644,1.251908,3.877863,0.793893,1.040151,4.151549,952,1761,809,952,1,32.374,19,load
1780604199.9744692,20.602031299989903,20749,0.043213,0.046631,1.081787,1.984733,2.977099,-2.160305,1.083654,4.179618,953,1763,810,953,1,32.374,22,load
1780604200.0048928,20.632454799997504,20780,0.001465,0.085449,1.039551,0.641221,1.030534,-2.030534,1.043058,2.365636,954,1764,810,954,0,32.374,10,load
1780604200.0362928,20.663854899990838,20811,0.020996,0.104492,1.056885,1.641221,2.969466,-0.80916,1.062245,3.48799,955,1766,811,955,0,32.374,3,load
1780604200.0669498,20.694511800000328,20842,0.034424,0.060547,1.047119,1.343511,2.984733,-0.80916,1.049433,3.371705,956,1768,812,956,0,28.674,5,load
1780604200.098613,20.726175000003423,20873,0.046387,0.087891,1.050537,1.320611,3.480916,-0.78626,1.055227,3.805127,957,1770,813,957,0,28.674,9,load
1780604200.1285284,20.756090399998357,20904,0.040039,0.088867,1.039795,1.603053,3.709924,-0.641221,1.044353,4.092002,958,1772,814,958,0,28.674,10,load
1780604200.1607041,20.788266299990937,20935,0.040283,0.053955,1.04541,0.847328,3.923664,-1.389313,1.047576,4.24774,960,1776,816,960,0,28.674,9,load
1780604200.190431,20.81799319999118,20966,0.034912,-0.037842,1.032959,2.992366,3.19084,-1.580153,1.034241,4.651086,961,1778,817,961,0,28.674,9,load
1780604200.222861,20.85042319999775,20997,0.062988,0.085449,1.039795,1.40458,4.114504,-0.816794,1.0452,4.423702,962,1780,818,962,0,28.674,10,load
1780604200.2543821,20.881944199994905,21029,0.055908,-0.093018,1.056641,0.549618,2.625954,-1.312977,1.062199,2.986909,963,1782,819,963,0,28.674,9,load
1780604200.2853985,20.91296049999073,21060,0.020752,-0.058838,1.061035,0.320611,2.030534,-1.244275,1.062868,2.402932,963,1783,820,963,1,28.674,24,load
1780604200.3156834,20.9432453999907,21091,0.085938,-0.132812,1.066406,1.610687,3.816794,0.946565,1.078075,4.249496,964,1785,821,964,1,28.674,18,load
1780604200.3489778,20.976539900002535,21123,0.074219,-0.148193,1.076172,2.992366,4.0229,0.129771,1.08886,5.015458,965,1794,829,965,1,32.028,0,load
1780604200.3791654,21.006727500003763,21154,0.070312,-0.095703,1.076172,1.984733,2.679389,-1.755725,1.082704,3.768403,966,1796,830,966,1,32.028,20,load
1780604200.4118998,21.03946189999988,21186,0.017578,0.027588,1.052246,2.671756,1.328244,-2.679389,1.052754,4.010192,967,1797,830,967,1,32.028,11,load
1780604200.44216,21.069722000000183,21218,0.009521,-0.056641,1.039062,1.221374,1.122137,-1.961832,1.040649,2.568994,969,1799,830,969,0,32.028,0,load
1780604200.4748297,21.102391799999168,21249,0.046387,-0.087646,1.064209,1.427481,3.587786,0.076336,1.068819,3.86209,970,1801,831,970,0,32.028,2,load
1780604200.5056942,21.133256100001745,21281,0.014648,0.104004,1.042236,2.450382,2.40458,-1.145038,1.047515,3.619045,971,1803,832,971,0,32.028,3,load
1780604200.537516,21.16507809999166,21312,0.041016,0.030029,1.034424,2.091603,3.458015,-0.519084,1.035672,4.07457,972,1805,833,972,0,32.028,6,load
1780604200.5681882,21.195750200000475,21343,0.050049,-0.13623,1.067139,2.091603,2.946565,-0.610687,1.076963,3.664694,973,1807,834,973,0,32.028,9,load
1780604200.5996015,21.227163499992457,21374,0.046631,0.015137,1.078369,0.870229,3.396947,-1.931298,1.079483,4.003306,974,1809,835,974,0,35.857,9,load
1780604200.6301036,21.25766570000269,21405,0.050781,0.053955,1.034424,1.78626,3.648855,-0.89313,1.037074,4.159632,975,1811,836,975,0,35.857,9,load
1780604200.6635396,21.29110159999982,21436,0.057373,0.088623,1.025879,1.19084,3.839695,-1.015267,1.031297,4.146338,976,1813,837,976,0,35.857,10,load
1780604200.7091408,21.336702799992054,21468,0.024902,0.04834,1.056152,0.007634,1.648855,-1.778626,1.057551,2.425344,977,1816,839,977,1,35.857,4,load
1780604200.7247825,21.352344600003562,21499,0.099609,0.07373,1.057373,0.641221,4.480916,0.534351,1.064611,4.557994,978,1818,840,978,1,35.857,16,load
1780604200.755493,21.38305489999766,21530,0.088379,0.037842,1.090088,2.450382,2.656489,-1.549618,1.094319,3.932254,979,1820,841,979,1,35.857,18,load
1780604200.7890315,21.416593599991756,21563,0.021973,-0.057861,1.08252,1.137405,1.038168,-2.89313,1.084287,3.27745,980,1829,849,980,1,35.857,0,load
1780604200.8208315,21.448393500002567,21595,0.022949,0.022705,1.012695,2.412214,1.679389,-1.19084,1.01321,3.171312,981,1830,849,981,0,35.857,10,load
1780604200.8520608,21.479622799990466,21627,0.082764,0.056396,1.046387,0.854962,3.312977,-0.007634,1.051169,3.421525,982,1832,850,982,0,31.621,0,load
1780604200.8830066,21.510568700003205,21658,0.032715,-0.088135,1.050781,2.816794,2.061069,-0.900763,1.054978,3.604679,983,1834,851,983,0,31.621,3,load
1780604200.9141986,21.541760799998883,21689,0.032227,-0.011719,1.039307,2.343511,3.137405,-0.656489,1.039872,3.970684,984,1836,852,984,0,31.621,7,load
1780604200.9472375,21.574799599999096,21721,0.057861,0.069824,1.035889,1.748092,3.854962,-0.480916,1.03985,4.260028,985,1840,855,985,0,31.621,9,load
1780604200.9766243,21.60418639999989,21752,0.055908,-0.036865,1.049316,2.061069,3.526718,-0.801527,1.051451,4.162714,986,1842,856,986,0,31.621,9,load
1780604201.0083542,21.635916300001554,21783,0.033203,-0.102539,1.067627,3.076336,2.755725,-1.442748,1.073054,4.374858,987,1844,857,987,0,31.621,9,load
1780604201.039544,21.66710609999427,21814,0.0271,0.010254,1.041992,2.954198,3.671756,-1.290076,1.042395,4.886039,988,1846,858,988,0,31.621,9,load
1780604201.070342,21.697904200002085,21845,0.044678,-0.135742,1.038818,2.473282,3.267176,-1.08397,1.048602,4.238697,989,1848,859,989,0,31.621,10,load
1780604201.1006985,21.728260499992757,21876,0.015137,0.029053,1.032959,2.19084,2.412214,-0.70229,1.033478,3.333432,989,1849,860,989,1,31.621,24,load
1780604201.1319032,21.759465199997067,21907,0.107666,-0.026855,1.053955,2.519084,4.358778,1.068702,1.05978,5.146538,990,1851,861,990,1,28.571,17,load
1780604201.1626434,21.79020540000056,21938,0.04834,-0.00708,1.056152,3.167939,1.977099,-1.862595,1.057282,4.173011,991,1853,862,991,1,28.571,19,load
1780604201.1950912,21.82265339999867,21969,0.010742,0.084717,1.055176,1.152672,1.206107,-2.633588,1.058626,3.117552,992,1855,863,992,1,28.571,22,load
1780604201.2264063,21.85396849999961,22001,0.049316,-0.108398,1.061768,0.557252,3.381679,-0.21374,1.068425,3.433944,993,1856,863,993,0,28.571,10,load
1780604201.2572238,21.884785899994313,22033,0.003418,-0.141357,1.074219,1.221374,1.709924,-1.198473,1.083485,2.419077,994,1858,864,994,0,28.571,1,load
1780604201.2892442,21.916806199995335,22064,0.093994,0.047607,1.077393,0.351145,4.061068,-0.648855,1.082532,4.12754,995,1862,867,995,0,28.571,5,load
1780604201.3216155,21.949177599992254,22096,0.061279,0.089111,1.054688,0.251908,2.89313,-0.48855,1.060218,2.944883,996,1864,868,996,0,28.571,8,load
1780604201.3522727,21.979834800004028,22127,0.054199,-0.120361,1.080811,1.625954,3.603053,-0.793893,1.088841,4.031872,997,1866,869,997,0,28.571,10,load
1780604201.3836021,22.0111642999982,22158,0.05249,0.081299,1.021973,1.503817,3.648855,-0.580153,1.026544,3.989008,998,1868,870,998,0,31.873,10,load
1780604201.4140468,22.04160869999032,22189,0.075684,0.079102,1.065186,1.328244,3.824427,-0.519084,1.070797,4.081658,998,1869,871,998,1,31.873,26,load
1780604201.4453964,22.072958499993547,22220,0.074219,0.036865,1.068115,0.099237,3.10687,-0.473282,1.071325,3.144278,999,1871,872,999,1,31.873,18,load
1780604201.4759483,22.10351030000311,22251,0.000977,-0.093506,1.018555,1.671756,1.496183,-1.160305,1.022838,2.525795,1000,1872,872,1000,0,31.873,13,load
1780604201.5069964,22.134558499994455,22282,0.06665,-0.174072,1.069336,1.641221,3.282443,0.236641,1.08546,3.677504,1001,1874,873,1001,0,31.873,3,load
1780604201.537997,22.1655591000017,22313,0.042236,0.109131,1.054688,1.969466,2.717557,-1.740458,1.061159,3.780622,1002,1876,874,1002,0,31.873,8,load
1780604201.569,22.19656209999812,22344,0.084717,0.014648,1.084961,1.78626,4.312978,-1.320611,1.088362,4.851444,1003,1878,875,1003,0,31.873,9,load
1780604201.6004171,22.22797919998993,22375,0.051514,-0.120361,1.07251,0.725191,3.48855,-0.732824,1.080471,3.637707,1004,1880,876,1004,0,31.873,9,load
1780604201.6311958,22.258757899995544,22406,0.080566,0.083496,1.057861,3.015267,3.687023,-0.236641,1.064205,4.768854,1004,1881,877,1004,1,31.873,27,load
1780604201.669425,22.29698709999502,22437,0.026855,-0.119873,1.080078,1.10687,0.854962,-1.770992,1.087042,2.256664,1005,1883,878,1005,1,25.09,17,load
1780604201.700159,22.32772119999572,22469,0.069092,0.079346,1.063965,0.580153,3.091603,-0.564886,1.069154,3.195885,1006,1885,879,1006,1,25.09,22,load
1780604201.7325459,22.360107799991965,22507,0.043457,-0.144287,1.047119,2.564885,2.763359,-0.51145,1.057906,3.804783,1007,1894,887,1007,1,25.09,1,load
1780604201.7645514,22.39211339999747,22539,0.052002,0.095947,1.038574,2.580153,3.251908,-0.435114,1.044292,4.173898,1008,1895,887,1008,0,25.09,10,load
1780604201.7954113,22.42297339999641,22570,0.0354,0.072266,1.073975,0.526718,2.374046,-1.412214,1.076985,2.812094,1009,1897,888,1009,0,25.09,0,load
1780604201.8257089,22.453270800004248,22601,0.050293,0.090332,1.047607,1.167939,4.045802,0.007634,1.052697,4.211016,1010,1899,889,1010,0,25.09,5,load
1780604201.8570318,22.48459379999258,22632,0.036621,-0.071289,1.057861,2.175573,3.40458,-1.022901,1.060893,4.167806,1011,1901,890,1011,0,25.09,9,load
1780604201.8873188,22.514880999995512,22662,0.056885,0.039307,1.050537,2.145038,4.450382,-1.206107,1.05281,5.085448,1012,1903,891,1012,0,25.09,9,load
1780604201.9191785,22.546740599995246,22693,0.048584,-0.129639,1.051025,1.80916,2.366412,-1.099237,1.060104,3.175105,1014,1907,893,1014,0,35.156,10,load
1780604201.9489512,22.576513399995747,22724,0.060303,0.019531,1.068848,0.419847,3.259542,-0.083969,1.070726,3.287542,1015,1909,894,1015,0,35.156,10,load
1780604201.9804873,22.608049499991466,22755,0.062256,0.026611,1.079346,1.259542,3.335878,-0.977099,1.081467,3.697195,1015,1910,895,1015,1,35.156,25,load
1780604202.0105174,22.638079399999697,22786,0.037842,0.029541,1.030273,2.0,1.816794,-0.854962,1.031391,2.834025,1016,1912,896,1016,1,35.156,19,load
1780604202.0416496,22.669211599990376,22817,0.061768,-0.161865,1.074219,2.816794,3.099237,-0.038168,1.0881,4.188204,1018,1915,897,1018,0,35.156,0,load
1780604202.0731578,22.70071989999269,22848,0.013428,-0.079834,1.07666,0.931298,2.198473,-1.740458,1.079699,2.954622,1019,1917,898,1019,0,35.156,2,load
1780604202.104387,22.731949199995142,22879,0.052979,0.078369,1.038818,1.740458,3.679389,-0.083969,1.043116,4.071136,1020,1919,899,1020,0,35.156,5,load
1780604202.135112,22.76267419999931,22910,0.03833,-0.112061,1.069824,2.671756,3.030534,-1.030534,1.07636,4.169462,1021,1921,900,1021,0,35.156,10,load
1780604202.1659846,22.793546699991566,22941,0.068848,-0.042969,1.078369,1.381679,4.32061,-0.938931,1.081419,4.632311,1022,1923,901,1022,0,35.156,9,load
1780604202.197041,22.824603000000934,22972,-0.00708,0.095459,1.022949,0.78626,2.259542,-2.015267,1.027418,3.128104,1023,1925,902,1023,0,32.258,10,load
1780604202.2288384,22.85640059999423,23003,0.066895,0.118408,1.043945,0.519084,4.290076,-0.412214,1.052766,4.340982,1024,1927,903,1024,0,32.258,10,load
1780604202.2595117,22.887073699996108,23034,0.081055,0.013916,1.046875,2.755725,3.648855,0.320611,1.0501,4.583771,1024,1928,904,1024,1,32.258,24,load
1780604202.2905283,22.91809029999422,23065,0.058838,-0.077148,1.057129,3.198473,2.038168,-1.671756,1.061572,4.144771,1025,1930,905,1025,1,32.258,16,load
1780604202.3193374,22.946899299990037,23096,-0.00415,0.097656,1.03125,2.0,1.335878,-1.366412,1.035872,2.766162,1026,1932,906,1026,1,32.258,20,load
1780604202.350097,22.977658999996493,23125,0.076904,0.028809,1.063721,1.496183,3.557252,-0.114504,1.066886,3.860792,1027,1933,906,1027,0,32.258,10,load
1780604202.3812358,23.008797999995295,23156,0.020752,0.0979,1.062988,1.259542,1.832061,-1.396947,1.067689,2.62571,1028,1935,907,1028,0,32.258,2,load
1780604202.4126232,23.040185299993027,23187,0.062988,0.094238,1.051758,1.114504,3.541985,-0.916031,1.057848,3.824511,1029,1937,908,1029,0,32.258,5,load
1780604202.4428089,23.070370799992816,23218,0.060059,0.090576,1.043945,0.633588,3.709924,-0.152672,1.049587,3.766733,1030,1939,909,1030,0,32.258,7,load
1780604202.4747806,23.102342700003646,23249,0.043457,-0.039551,1.081299,0.832061,3.320611,-1.328244,1.082894,3.671922,1031,1941,910,1031,0,28.881,9,load
1780604202.5050948,23.13265679999313,23280,0.046631,-0.041992,1.079346,1.412214,3.51145,-0.984733,1.081168,3.910797,1032,1943,911,1032,0,28.881,9,load
1780604202.536107,23.163669200002914,23311,0.063477,0.035889,1.05127,1.381679,3.175573,-1.908397,1.053795,3.954147,1033,1945,912,1033,0,28.881,10,load
1780604202.5670729,23.19463499999256,23342,0.051025,0.116211,1.050781,-0.076336,2.206107,-1.183206,1.058418,2.504538,1034,1947,913,1034,0,28.881,9,load
1780604202.5984452,23.22600729999249,23373,0.050293,0.111328,1.060791,1.175572,3.755725,0.045802,1.067802,3.935675,1034,1948,914,1034,1,28.881,25,load
1780604202.6289124,23.25647459999891,23404,0.044922,0.069336,1.048096,1.78626,3.137405,-0.610687,1.051347,3.661553,1036,1952,916,1036,1,28.881,3,load
1780604202.660083,23.287645000003977,23435,0.056152,-0.027588,1.074463,0.954198,1.419847,-2.358779,1.076283,2.913812,1037,1954,917,1037,1,28.881,19,load
1780604202.6907902,23.318352200003574,23466,0.065186,0.000977,1.078613,0.29771,2.801527,-0.29771,1.080582,2.832987,1038,1957,919,1038,1,28.881,0,load
1780604202.72284,23.350401999996393,23497,0.061035,0.057617,1.067627,1.053435,3.48855,-0.229008,1.070921,3.651322,1040,1960,920,1040,0,28.881,1,load
1780604202.7528818,23.38044369999261,23528,0.007568,0.073975,1.046143,0.572519,2.053435,-1.473282,1.048782,2.591319,1041,1962,921,1041,0,35.842,2,load
1780604202.7841206,23.41168249999464,23559,0.041992,0.054199,1.026367,1.954198,4.206106,-0.519084,1.028655,4.66687,1042,1964,922,1042,0,35.842,6,load
1780604202.8151438,23.442705900000874,23590,0.040283,-0.098633,1.071533,1.946565,3.717557,-1.320611,1.076817,4.399245,1043,1966,923,1043,0,35.842,9,load
1780604202.8461282,23.47369020000042,23621,0.055176,0.015381,1.073242,0.984733,3.80916,-0.374046,1.07477,3.952128,1044,1968,924,1044,0,35.842,9,load
1780604202.8770015,23.504563499998767,23652,-0.010254,0.010986,1.026367,1.755725,2.305344,-2.70229,1.026477,3.962266,1047,1972,925,1047,0,35.842,9,load
1780604202.9076748,23.53523690000293,23683,0.052002,-0.030518,1.026856,2.0,3.671756,0.374046,1.028624,4.19782,1048,1974,926,1048,0,35.842,9,load
1780604202.9394639,23.56702580000274,23714,0.069336,-0.092529,1.086182,1.251908,3.305344,-1.053435,1.092318,3.688129,1048,1975,927,1048,1,35.842,26,load
1780604202.9708245,23.598386600002414,23745,0.035645,0.087646,1.05957,2.358779,1.793893,-1.793893,1.063786,3.464093,1049,1977,928,1049,1,35.842,18,load
1780604203.001169,23.628730999989784,23776,0.071045,-0.152832,1.060059,2.091603,3.587786,0.061069,1.073373,4.153402,1050,1978,928,1050,0,35.842,12,load
1780604203.032291,23.65985309999087,23807,0.024902,0.047607,1.067871,0.541985,1.59542,-1.351145,1.069222,2.159793,1051,1980,929,1051,0,35.842,2,load
1780604203.0619085,23.689470500001335,23838,0.030273,0.002686,1.020264,1.70229,4.27481,-0.366412,1.020716,4.615847,1052,1982,930,1052,0,35.842,4,load
1780604203.0931292,23.720691099995747,23868,0.041504,-0.122559,1.085449,1.366412,3.641221,-1.267176,1.093134,4.090392,1053,1984,931,1053,0,35.842,9,load
1780604203.1244733,23.75203529999999,23899,0.05127,0.015137,1.057373,1.160305,3.610687,-0.725191,1.058723,3.861252,1054,1986,932,1054,0,35.842,9,load
1780604203.155242,23.782804100002977,23930,0.026123,0.074707,1.03418,1.099237,3.435115,-2.229008,1.037204,4.239907,1055,1988,933,1055,0,35.842,9,load
1780604203.186115,23.81367709999904,23961,0.057617,-0.012451,1.025879,0.709924,2.19084,-0.473282,1.027571,2.35112,1056,1990,934,1056,0,35.842,9,load
1780604203.2174537,23.845015799990506,23992,0.062988,0.094971,1.042969,2.770992,3.80916,0.664122,1.049176,4.757012,1056,1991,935,1056,1,35.842,25,load
1780604203.247345,23.874906999990344,24023,0.065674,0.049805,1.037354,2.496183,3.534351,-0.625954,1.040623,4.372,1057,1993,936,1057,1,35.842,17,load
1780604203.2798624,23.907424499993795,24054,-0.003906,0.05127,1.030029,1.687023,2.053435,-1.725191,1.031312,3.168426,1058,1995,937,1058,1,35.842,19,load
1780604203.311189,23.938750999994227,24085,0.035889,0.046143,1.04248,1.236641,2.305344,-1.015267,1.044118,2.806182,1059,1997,938,1059,1,28.777,22,load
1780604203.3424368,23.969998799992027,24116,0.054932,-0.068848,1.067383,1.152672,3.496183,0.030534,1.07101,3.681424,1061,2000,939,1061,0,28.777,0,load
1780604203.373794,24.001356099994155,24148,0.035156,-0.011719,1.04834,2.328244,2.633588,-1.007634,1.048995,3.656752,1062,2002,940,1062,0,28.777,1,load
1780604203.40661,24.034172100000433,24180,0.049072,-0.109131,1.073975,2.854962,2.435115,-0.954198,1.08062,3.871832,1063,2004,941,1063,0,28.777,2,load
1780604203.4372663,24.064828499991563,24212,0.0354,0.063721,1.065674,1.458015,2.557252,-0.526718,1.068164,2.990448,1064,2006,942,1064,0,28.777,3,load
1780604203.4685585,24.096120699992753,24243,0.014404,0.05249,1.04541,2.59542,2.679389,-0.839695,1.046826,3.823665,1065,2008,943,1065,0,28.777,3,load
1780604203.4997625,24.12732459999097,24274,0.035889,-0.023926,1.062012,1.328244,2.442748,-1.08397,1.062887,2.984332,1066,2010,944,1066,0,28.777,6,load
1780604203.5302143,24.15777629999502,24305,0.082764,-0.112061,1.067627,1.305344,3.854962,-0.007634,1.076678,4.069977,1067,2012,945,1067,0,28.777,6,load
1780604203.561942,24.18950419999601,24336,0.022217,-0.041016,1.052246,1.732824,3.343511,-0.969466,1.05328,3.888652,1068,2014,946,1068,0,35.857,9,load
1780604203.592112,24.219674099993426,24367,0.04248,0.019287,1.043701,1.473282,3.832061,-1.389313,1.044743,4.334218,1069,2016,947,1069,0,35.857,9,load
1780604203.6384442,24.266006199992262,24398,0.045898,0.0354,1.071533,0.648855,3.435115,-0.740458,1.0731,3.573416,1070,2018,948,1070,0,35.857,9,load
1780604203.6545818,24.2821438999963,24429,0.069092,0.02002,1.055664,1.725191,4.21374,-1.045802,1.058112,4.671787,1071,2020,949,1071,0,35.857,10,load
1780604203.6852224,24.312784499998088,24460,0.014648,0.042725,1.052002,0.938931,3.290076,-1.938931,1.052971,3.932639,1072,2022,950,1072,0,35.857,9,load
1780604203.7160203,24.343582300003618,24491,0.078369,-0.023682,1.064697,0.198473,3.259542,-0.167939,1.06784,3.269894,1073,2024,951,1073,0,35.857,9,load
1780604203.7476761,24.375238199994783,24522,0.066895,-0.070557,1.051514,2.442748,4.244274,0.206107,1.055999,4.901364,1073,2025,952,1073,1,35.857,24,load
1780604203.7789226,24.406484599996475,24554,0.07373,-0.050293,1.039307,2.206107,3.412214,-0.351145,1.043132,4.078408,1074,2027,953,1074,1,35.857,16,load
1780604203.8100665,24.437628600004246,24585,0.033203,0.068115,1.062012,1.664122,2.175573,-1.80916,1.064712,3.282602,1075,2029,954,1075,1,35.857,19,load
1780604203.8422573,24.469819399993867,24616,0.041992,0.082031,1.075928,0.580153,1.938931,-1.725191,1.079867,2.659382,1076,2031,955,1076,1,28.571,21,load
1780604203.8735797,24.501141799992183,24648,0.056396,0.004883,1.053955,2.061069,2.625954,0.503817,1.055474,3.376014,1077,2032,955,1077,0,28.571,11,load
1780604203.905477,24.53303920000326,24679,0.027832,0.026611,1.040527,2.038168,2.419847,-0.717557,1.04124,3.244176,1078,2034,956,1078,0,28.571,1,load
1780604203.9366448,24.56420690000232,24711,0.05249,-0.048828,1.067627,0.900763,2.900763,-1.145038,1.070031,3.246061,1079,2036,957,1079,0,28.571,2,load
1780604203.9683478,24.59590990000288,24743,0.008789,-0.078857,1.048828,2.335878,2.832061,-1.290076,1.051825,3.891168,1080,2038,958,1080,0,28.571,4,load
1780604203.999873,24.62743490000139,24774,0.079834,-0.079834,1.048096,2.572519,3.80916,0.29771,1.054159,4.606104,1081,2040,959,1081,0,28.571,6,load
1780604204.0302896,24.657851600000868,24805,0.03418,-0.030029,1.055176,1.458015,2.396947,-1.412214,1.056156,3.140941,1082,2042,960,1082,0,28.571,9,load
1780604204.0619793,24.68954140000278,24836,0.060059,0.073242,1.068848,0.450382,3.656489,-1.328244,1.073036,3.916246,1083,2044,961,1083,0,28.571,9,load
1780604204.0942113,24.721773299999768,24868,0.053467,-0.08252,1.063965,2.030534,3.458015,-0.992366,1.068499,4.131068,1084,2046,962,1084,0,31.746,9,load
1780604204.1239886,24.75155059999088,24899,0.027344,-0.02002,1.040772,2.633588,3.40458,-0.923664,1.041323,4.402284,1085,2048,963,1085,0,31.746,9,load
1780604204.1550221,24.78258430000278,24929,0.082031,-0.115479,1.043457,2.671756,4.687022,-0.641221,1.053028,5.433012,1086,2050,964,1086,0,31.746,9,load
1780604204.1851828,24.812744900002144,24960,0.087402,-0.056152,1.061279,1.671756,4.442748,-1.526718,1.066352,4.986346,1087,2052,965,1087,0,31.746,8,load
1780604204.217198,24.844759999992675,24991,0.064697,-0.072998,1.049805,2.374046,4.152672,-1.290076,1.054326,4.954298,1088,2054,966,1088,0,31.746,9,load
1780604204.248309,24.87587089999579,25023,0.064697,-0.108887,1.063965,1.969466,3.358779,-1.152672,1.071477,4.060645,1089,2056,967,1089,0,31.746,9,load
1780604204.2790089,24.906570799998008,25054,0.014648,0.069092,1.034424,0.671756,2.503817,-1.564886,1.036832,3.028072,1089,2057,968,1089,1,31.746,24,load
1780604204.310062,24.93762389999756,25085,0.047852,-0.086182,1.061279,1.564886,2.229008,-0.877863,1.065847,2.861466,1091,2061,970,1091,1,31.746,3,load
1780604204.3417513,24.969313499997952,25116,0.069824,0.020996,1.057617,0.251908,3.870229,-0.290076,1.060128,3.889251,1092,2063,971,1092,1,31.746,16,load
1780604204.3738196,25.00138169999991,25147,0.058838,-0.082031,1.057617,2.305344,3.534351,-0.137405,1.062424,4.221982,1093,2065,972,1093,1,32.258,16,load
1780604204.4039135,25.031475600000704,25178,0.063232,0.067871,1.053223,1.427481,2.847328,-0.374046,1.0573,3.207006,1094,2067,973,1094,1,32.258,18,load
1780604204.4353454,25.062907400002587,25210,0.095947,-0.12915,1.059814,2.656489,2.732824,-0.328244,1.071957,3.825311,1095,2076,981,1095,1,32.258,1,load
1780604204.467874,25.095436100004008,25242,0.111572,-0.120117,1.062256,2.954198,3.10687,-0.29771,1.074832,4.297506,1098,2087,989,1098,1,32.258,1,load
1780604204.5001028,25.12766479999118,25274,0.091797,-0.078613,1.046875,3.137405,2.748092,-0.236641,1.053828,4.177478,1099,2089,990,1099,1,32.258,21,load
1780604204.532705,25.160267200000817,25306,0.101074,-0.134766,1.062012,2.290076,2.946565,-0.442748,1.075289,3.758021,1100,2092,992,1100,1,32.258,0,load
1780604204.563497,25.191059000004316,25338,0.080566,-0.059326,1.064941,2.305344,3.526718,-1.022901,1.069631,4.335744,1101,2094,993,1101,1,32.258,20,load
