host_epoch_s,host_elapsed_s,time_ms,ax,ay,az,gx,gy,gz,acc_mag,gyro_mag,pulse_count,edge_count,rise_count,fall_count,state,pulse_rate_hz,last_edge_dt_ms,label
1780591587.9365437,0.024526099994545802,189,0.046875,-0.015869,1.062012,2.053435,2.282443,-0.80916,1.063164,3.17504,16,24,8,16,0,0.0,10,normal
1780591587.9677887,0.05577099999936763,221,0.043213,-0.005859,1.061523,0.610687,2.435115,-1.458015,1.062419,2.903193,17,26,9,17,0,0.0,9,normal
1780591587.9985435,0.08652579999761656,251,0.050781,-0.033691,1.052978,2.839695,2.725191,-0.229008,1.054741,3.942458,18,29,11,18,1,71.713,14,normal
1780591588.0298183,0.11780069999804255,283,0.043701,-0.003906,1.047119,1.0,2.442748,-0.427481,1.048038,2.673903,20,32,12,20,0,71.713,9,normal
1780591588.0605712,0.1485534999956144,313,0.011475,-0.012939,1.056885,0.396947,2.328244,-1.656489,1.057026,2.88483,21,34,13,21,0,71.713,9,normal
1780591588.0925117,0.18049400000018068,345,0.053223,-0.03125,1.050049,3.366412,3.083969,-0.030534,1.051861,4.565581,22,37,15,22,1,71.713,14,normal
1780591588.1230967,0.21107920000213198,376,0.031738,0.003174,1.047852,0.206107,2.992366,-0.641221,1.048337,3.06723,24,40,16,24,0,71.713,9,normal
1780591588.1549475,0.2429299999930663,407,0.035156,-0.03833,1.069824,1.305344,2.557252,-0.877863,1.071088,3.002349,25,42,17,25,0,71.713,9,normal
1780591588.185692,0.27367450000019744,439,0.053467,0.005371,1.067383,3.564885,2.954198,-0.259542,1.068734,4.637139,27,45,18,27,1,71.713,14,normal
1780591588.217227,0.30520940000133123,470,0.037598,0.020996,1.046143,-0.320611,3.145038,-0.610687,1.047029,3.219782,29,48,19,29,0,71.713,9,normal
1780591588.2491243,0.337106799997855,502,0.027832,-0.054443,1.052978,2.396947,2.656489,-0.412214,1.054752,3.601695,30,51,21,30,1,47.809,14,normal
1780591588.2821887,0.37017110000306275,534,0.042969,-0.019531,1.052734,2.450382,2.351145,-0.763359,1.053792,3.480657,32,54,22,32,0,47.809,9,normal
1780591588.3117363,0.3997186999913538,565,0.026855,0.003174,1.060791,-0.152672,2.351145,-1.099237,1.061136,2.599906,33,56,23,33,0,47.809,9,normal
1780591588.3436918,0.43167419999372214,596,0.043945,-0.06543,1.063477,2.916031,2.549618,-0.129771,1.066393,3.875646,34,59,25,34,1,47.809,14,normal
1780591588.3744311,0.46241349999036174,628,0.060791,0.00293,1.030518,1.068702,2.076336,-0.687023,1.032313,2.434193,36,62,26,36,0,47.809,9,normal
1780591588.4071035,0.4950858999945922,659,0.022705,-0.011963,1.048828,0.59542,2.267176,-1.557252,1.049142,2.814186,37,64,27,37,0,47.809,9,normal
1780591588.436389,0.5243714999960503,690,0.047607,-0.037842,1.047363,3.473282,3.0,-0.167939,1.049127,4.592592,38,67,29,38,1,47.809,14,normal
1780591588.4670188,0.5550012000021525,720,0.034424,-0.003174,1.041016,0.961832,2.557252,-0.770992,1.04159,2.838853,40,70,30,40,0,47.809,9,normal
1780591588.498464,0.5864464999904158,751,0.029785,-0.025146,1.05249,0.755725,2.19084,-1.70229,1.053212,2.875533,41,72,31,41,0,47.809,9,normal
1780591588.5296557,0.6176379999960773,782,0.068359,-0.048096,1.048584,3.587786,2.977099,-0.175573,1.05191,4.665421,42,75,33,42,1,42.857,14,normal
1780591588.5607214,0.64870369998971,813,0.055908,-0.007568,1.04248,0.480916,2.854962,-0.175573,1.044006,2.900502,44,78,34,44,0,42.857,10,normal
1780591588.5909586,0.6789408999902662,844,0.034424,-0.036377,1.064941,0.870229,3.129771,-1.007634,1.066118,3.40119,45,80,35,45,0,42.857,9,normal
1780591588.6234868,0.7114692000031937,875,0.035889,-0.041748,1.058838,3.717557,3.236641,0.061069,1.060268,4.929484,46,83,37,46,1,42.857,14,normal
1780591588.652204,0.740186499999254,906,0.047119,0.005615,1.045898,-0.10687,3.076336,-0.480916,1.046974,3.115533,48,86,38,48,0,42.857,9,normal
1780591588.6837964,0.7717788000009023,936,0.052734,-0.035156,1.074707,0.80916,2.435115,-0.725191,1.076574,2.666538,49,88,39,49,0,42.857,8,normal
1780591588.7146263,0.802608699988923,967,0.053467,-0.029297,1.045166,4.259542,3.152672,0.167939,1.046943,5.302004,50,91,41,50,1,42.857,14,normal
1780591588.745268,0.8332504999998491,998,0.037598,0.001953,1.027832,-0.29771,3.045802,-0.267176,1.028521,3.071957,52,94,42,52,0,42.857,9,normal
1780591588.776884,0.8648665999935474,1029,0.026855,-0.057861,1.040283,0.938931,2.656489,-0.977099,1.042237,2.982155,53,97,44,53,1,42.857,14,normal
1780591588.8079333,0.8959156999917468,1061,0.052246,-0.009033,1.071045,3.381679,2.641221,-0.519084,1.072356,4.322181,54,99,45,54,1,43.011,13,normal
1780591588.839445,0.9274274999916088,1092,0.040283,0.007813,1.058594,-0.167939,2.824427,-0.755725,1.059389,2.928603,56,102,46,56,0,43.011,9,normal
1780591588.8716826,0.9596651000028942,1123,0.038818,-0.060303,1.065918,2.099237,2.450382,-0.465649,1.068328,3.26006,57,105,48,57,1,43.011,14,normal
1780591588.902611,0.9905934999987949,1155,0.024658,-0.019287,1.055176,2.709924,2.625954,-0.59542,1.05564,3.820189,66,115,49,66,0,43.011,0,normal
1780591588.9320385,1.020020999989356,1186,0.021973,0.009277,1.059082,0.114504,2.832061,-1.167939,1.059351,3.065577,67,117,50,67,0,43.011,9,normal
1780591588.9640698,1.0520522000006167,1216,0.041016,-0.054443,1.043945,2.564885,2.412214,0.076336,1.046168,3.521824,68,120,52,68,1,43.011,14,normal
1780591588.9950783,1.083060699995258,1247,0.028809,-0.02002,1.052246,2.083969,2.389313,-0.801527,1.052831,3.270197,70,123,53,70,0,43.011,10,normal
1780591589.0264428,1.1144251999940025,1279,0.041504,-0.009766,1.067383,0.572519,2.748092,-1.290076,1.068234,3.08935,71,125,54,71,0,43.011,9,normal
1780591589.056691,1.1446732999902451,1309,0.054443,-0.067139,1.037354,2.580153,2.854962,-0.183206,1.040949,3.852475,72,128,56,72,1,43.011,14,normal
1780591589.0869572,1.1749396999948658,1340,0.047119,0.000244,1.039062,1.526718,2.641221,-0.534351,1.04013,3.097168,74,131,57,74,0,71.685,9,normal
1780591589.1173687,1.205351199998404,1371,0.025879,-0.008057,1.048096,0.870229,2.442748,-1.450382,1.048446,2.971182,75,133,58,75,0,71.685,9,normal
1780591589.149682,1.237664499989478,1402,0.057373,-0.047363,1.053223,2.870229,3.160305,-0.435114,1.055847,4.291278,76,136,60,76,1,71.685,14,normal
1780591589.1801257,1.2681081999908201,1433,0.044434,-0.010254,1.044922,0.519084,2.442748,-0.572519,1.045916,2.562078,78,139,61,78,0,71.685,9,normal
1780591589.2122269,1.3002093999966746,1464,0.026367,-0.03418,1.064697,0.839695,2.709924,-1.221374,1.065572,3.088775,79,141,62,79,0,71.685,9,normal
1780591589.2422526,1.3302350000012666,1495,0.0354,-0.032959,1.058838,3.366412,3.083969,-0.328244,1.059942,4.577264,80,144,64,80,1,71.685,14,normal
1780591589.274027,1.3620094999932917,1526,0.066162,-0.008789,1.050049,0.221374,2.641221,-0.335878,1.052168,2.671679,82,147,65,82,0,71.685,9,normal
1780591589.3047426,1.3927248999971198,1557,0.056396,-0.052979,1.05957,1.335878,2.618321,-0.740458,1.062392,3.031246,83,149,66,83,0,71.685,9,normal
1780591589.3361714,1.4241536999907112,1589,0.066406,-0.005371,1.062988,3.633588,2.801527,-0.312977,1.065074,4.598855,84,152,68,84,1,71.685,14,normal
1780591589.3674712,1.4554535999923246,1620,0.068359,0.009277,1.058838,-0.526718,3.10687,-0.229008,1.061083,3.159512,86,155,69,86,0,42.857,9,normal
1780591589.3985825,1.4865647999977227,1651,0.051758,-0.070557,1.058838,2.10687,2.671756,-0.59542,1.062448,3.45423,87,158,71,87,1,42.857,14,normal
1780591589.4296815,1.517663899998297,1682,0.040771,-0.005859,1.065918,3.320611,2.389313,-0.725191,1.066713,4.154657,89,161,72,89,0,42.857,9,normal
1780591589.460609,1.5485914000018965,1713,0.046387,0.010986,1.053955,-0.358779,3.038168,-0.900763,1.055032,3.189132,90,163,73,90,0,42.857,9,normal
1780591589.4913127,1.5792950999893947,1744,0.021729,-0.058594,1.041748,2.152672,2.526718,-0.259542,1.043621,3.329514,91,166,75,91,1,42.857,14,normal
1780591589.5244408,1.6124233000009554,1776,0.036865,-0.01123,1.063477,2.618321,2.709924,-0.694656,1.064174,3.831689,100,176,76,100,0,42.857,0,normal
1780591589.554356,1.642338399993605,1807,0.03418,0.010742,1.067871,-0.099237,2.717557,-1.541985,1.068472,3.126129,101,178,77,101,0,42.857,9,normal
1780591589.5851488,1.6731312999909278,1838,0.029785,-0.058838,1.047852,2.908397,2.664122,-0.152672,1.049925,3.947104,102,181,79,102,1,42.857,14,normal
1780591589.6164854,1.7044677999947453,1869,0.02002,0.006836,1.038818,1.366412,2.396947,-0.175573,1.039034,2.764645,104,184,80,104,0,42.857,9,normal
1780591589.6468585,1.7348407999961637,1900,0.05127,-0.003662,1.06543,0.496183,2.549618,-1.51145,1.066669,3.005201,105,186,81,105,0,67.857,9,normal
1780591589.6792564,1.7672388999926625,1931,0.054199,-0.052246,1.062744,3.236641,3.320611,-0.10687,1.065407,4.638289,106,189,83,106,1,67.857,14,normal
1780591589.7091653,1.7971476999955485,1962,0.062012,-0.002686,1.030518,0.496183,2.664122,-0.473282,1.032385,2.750953,108,192,84,108,0,67.857,9,normal
1780591589.74083,1.8288123999955133,1993,0.010254,-0.01709,1.057129,0.427481,2.465649,-1.473282,1.057317,2.903916,109,194,85,109,0,67.857,9,normal
1780591589.772242,1.8602244999929098,2025,0.06958,-0.032715,1.067383,3.824427,3.068702,-0.480916,1.070148,4.926912,110,197,87,110,1,67.857,14,normal
1780591589.803329,1.8913114000024507,2056,0.057617,-0.006104,1.043945,-0.549618,3.198473,-0.603053,1.045552,3.300907,112,200,88,112,0,67.857,9,normal
1780591589.8349292,1.9229115999914939,2087,0.056885,-0.05542,1.061279,1.29771,2.946565,-0.694656,1.064247,3.293758,113,203,90,113,1,67.857,14,normal
1780591589.865331,1.953313399993931,2118,0.043213,-0.002441,1.055664,3.70229,2.954198,-0.29771,1.056551,4.745827,114,205,91,114,1,67.857,14,normal
1780591589.8948104,1.9827929000020958,2148,0.052002,-0.000732,1.030273,0.312977,2.679389,-0.290076,1.031585,2.713158,116,208,92,116,0,67.857,9,normal
1780591589.9280453,2.016027599995141,2179,0.047119,-0.073975,1.049805,1.099237,2.328244,-0.435114,1.053462,2.6112,117,211,94,117,1,43.011,14,normal
1780591589.9602914,2.048273899999913,2212,0.032471,-0.013916,1.071533,3.099237,2.625954,-1.183206,1.072115,4.230943,127,222,95,127,0,43.011,0,normal
1780591589.9913743,2.0793565999920247,2244,0.037598,0.008789,1.068115,0.053435,3.007634,-1.236641,1.068813,3.252383,128,224,96,128,0,43.011,9,normal
1780591590.0236712,2.1116535999899497,2275,0.050537,-0.059082,1.041504,2.358779,3.145038,0.022901,1.044402,3.931364,129,227,98,129,1,43.011,14,normal
1780591590.0536997,2.141682100002072,2306,0.0271,-0.000977,1.048096,1.610687,2.381679,-0.59542,1.048446,2.936194,131,230,99,131,0,43.011,9,normal
1780591590.0846088,2.1725910999957705,2337,0.030762,-0.01123,1.071777,0.541985,2.603053,-1.152672,1.072278,2.89798,132,232,100,132,0,43.011,9,normal
1780591590.1151228,2.2031052999955136,2368,0.043945,-0.032471,1.047607,3.061069,2.954198,-0.465649,1.049031,4.279516,133,235,102,133,1,43.011,14,normal
1780591590.1452098,2.233192300001974,2399,0.039307,-0.003174,1.029785,1.21374,2.503817,-0.351145,1.03054,2.804562,135,238,103,135,0,43.011,9,normal
1780591590.1756403,2.2636227999901166,2429,0.01709,-0.000244,1.068604,0.603053,2.465649,-1.160305,1.06874,2.790951,136,240,104,136,0,76.0,9,normal
1780591590.2075684,2.2955509000021266,2460,0.035889,-0.034668,1.056885,3.030534,3.061069,-0.267176,1.058062,4.315746,137,243,106,137,1,76.0,14,normal
1780591590.2378595,2.3258417999895755,2491,0.041016,0.005615,1.036621,1.122137,2.801527,-0.534351,1.037447,3.064845,139,246,107,139,0,76.0,9,normal
1780591590.2700403,2.3580225999903632,2522,0.039795,-0.0354,1.063232,0.618321,2.740458,-1.21374,1.064566,3.060326,140,248,108,140,0,76.0,9,normal
1780591590.2998276,2.3878101000009337,2553,0.040527,-0.036377,1.05127,3.366412,3.183206,-0.320611,1.052679,4.644171,141,251,110,141,1,76.0,14,normal
1780591590.331393,2.4193754000007175,2584,0.054199,-0.014404,1.046875,0.251908,2.778626,-0.48855,1.048376,2.832472,144,256,112,144,0,76.0,0,normal
1780591590.3629565,2.4509390000021085,2615,0.048096,-0.044434,1.075195,1.335878,2.374046,-1.549618,1.077187,3.134004,145,258,113,145,0,76.0,9,normal
1780591590.3948066,2.482789000001503,2647,0.031494,-0.000977,1.056396,3.572519,2.877863,-0.442748,1.056866,4.608797,146,261,115,146,1,76.0,14,normal
1780591590.4255643,2.513546599991969,2678,0.066895,-0.004639,1.048828,-0.122137,3.396947,-0.503817,1.05097,3.436276,148,264,116,148,0,76.0,9,normal
1780591590.4581625,2.5461450000002515,2709,0.049072,-0.068848,1.048096,2.435115,2.709924,-0.419847,1.0515,3.667389,149,267,118,149,1,46.429,14,normal
1780591590.4892404,2.5772228999994695,2741,0.040771,-0.016846,1.055908,2.351145,2.580153,-0.763359,1.056829,3.573204,151,270,119,151,0,46.429,9,normal
1780591590.5200086,2.607990999997128,2773,0.030518,-0.000732,1.053711,0.366412,2.847328,-0.862595,1.054153,2.9976,152,272,120,152,0,46.429,9,normal
1780591590.553329,2.6413113000016892,2804,0.027588,-0.051758,1.039307,2.916031,2.679389,-0.083969,1.04096,3.960986,154,277,123,154,1,46.429,14,normal
1780591590.583135,2.671117299993057,2835,0.021973,-0.010498,1.046875,1.099237,2.435115,-0.885496,1.047158,2.814642,156,280,124,156,0,46.429,9,normal
1780591590.613354,2.7013363000005484,2866,0.046875,-0.012207,1.064453,0.709924,2.725191,-1.29771,1.065555,3.100759,157,282,125,157,0,46.429,9,normal
1780591590.6443117,2.732294000001275,2896,0.052979,-0.052002,1.050293,3.129771,3.267176,0.091603,1.052913,4.525295,158,285,127,158,1,46.429,14,normal
1780591590.6737368,2.7617191999888746,2927,0.031982,0.004639,1.044922,1.59542,2.671756,-0.290076,1.045422,3.125346,160,288,128,160,0,46.429,9,normal
1780591590.706571,2.794553400002769,2958,0.049072,-0.018311,1.075928,0.572519,2.48855,-1.198473,1.077202,2.820815,161,290,129,161,0,46.429,9,normal
1780591590.7360103,2.823992799996631,2989,0.05249,-0.054199,1.051025,3.251908,2.465649,-0.229008,1.05373,4.087392,162,293,131,162,1,46.429,14,normal
1780591590.767303,2.855285500001628,3020,0.050537,-0.005859,1.048096,1.328244,2.633588,-0.59542,1.04933,3.009076,164,296,132,164,0,46.429,9,normal
1780591590.7983556,2.8863378999958513,3051,0.042236,-0.047607,1.061523,0.572519,2.526718,-1.19084,1.06343,2.851347,165,298,133,165,0,46.429,9,normal
1780591590.8287754,2.916757899991353,3082,0.056885,-0.022705,1.066162,3.541985,3.221374,-0.183206,1.06792,4.791291,166,301,135,166,1,46.429,14,normal
1780591590.8594065,2.947388899992802,3112,0.041504,-0.007324,1.04126,0.847328,2.664122,-0.427481,1.042112,2.828118,168,304,136,168,0,46.429,9,normal
1780591590.8910773,2.979059599994798,3143,0.048584,-0.02832,1.067139,0.694656,2.366412,-1.541985,1.068619,2.908637,169,306,137,169,0,46.429,9,normal
1780591590.922151,3.0101333999919007,3174,0.057373,-0.03125,1.04541,3.305344,3.320611,-0.167939,1.04745,4.688278,170,309,139,170,1,46.429,14,normal
1780591590.951613,3.0395952999970177,3205,0.059082,-0.005127,1.024658,0.320611,2.59542,-0.320611,1.026373,2.634727,172,312,140,172,0,46.429,9,normal
1780591590.982821,3.070803499998874,3235,0.021973,-0.036621,1.063232,0.755725,2.51145,-1.274809,1.06409,2.9161,173,314,141,173,0,46.429,9,normal
1780591591.0141711,3.1021535999898333,3266,0.039795,-0.036133,1.056885,3.351145,3.374046,0.099237,1.058251,4.756491,174,317,143,174,1,43.321,13,normal
1780591591.0445497,3.1325320999894757,3297,0.044189,0.007568,1.040772,0.603053,2.152672,-0.618321,1.041737,2.319481,176,320,144,176,0,43.321,9,normal
1780591591.0757077,3.1636900000012247,3328,0.041504,-0.055664,1.057617,0.992366,2.557252,-1.244275,1.059894,3.012067,177,322,145,177,0,43.321,8,normal
1780591591.1059568,3.19393909999053,3359,0.046143,0.00293,1.061523,3.70229,2.732824,-0.221374,1.06253,4.606982,179,325,146,179,1,43.321,13,normal
1780591591.1364503,3.224432799994247,3389,0.038574,-0.005615,1.0271,0.549618,2.740458,-0.221374,1.027839,2.803782,181,328,147,181,0,43.321,10,normal
1780591591.167576,3.2555583999928785,3420,0.027832,-0.042969,1.04834,1.21374,2.152672,-1.625954,1.049589,2.95819,182,330,148,182,0,43.321,9,normal
1780591591.198855,3.2868372999946587,3451,0.050537,-0.004395,1.069092,3.557252,3.19084,0.007634,1.070295,4.778656,184,333,149,184,1,43.321,13,normal
1780591591.2295637,3.317546099991887,3482,0.047852,0.01001,1.043945,-0.496183,3.465649,-0.328244,1.045089,3.516342,186,336,150,186,0,43.321,9,normal
1780591591.26232,3.350302399994689,3514,0.033447,-0.047119,1.049316,1.938931,2.755725,-0.335878,1.050906,3.386191,187,339,152,187,1,43.321,15,normal
1780591591.2936752,3.38165769999614,3546,0.033691,-0.018555,1.058594,2.427481,2.557252,-0.679389,1.059292,3.59079,189,342,153,189,0,53.571,10,normal
1780591591.3263042,3.414286599989282,3578,0.040039,0.000488,1.068604,0.549618,2.824427,-1.183206,1.069353,3.111181,190,344,154,190,0,53.571,10,normal
1780591591.357374,3.4453562999988208,3609,0.055664,-0.04248,1.051025,2.824427,2.671756,-0.450382,1.053355,3.913887,191,347,156,191,1,53.571,14,normal
1780591591.388872,3.476854299995466,3641,0.050781,-0.007568,1.031494,0.801527,2.19084,-0.396947,1.032771,2.366388,193,350,157,193,0,53.571,9,normal
1780591591.420441,3.5084232999943197,3672,0.045898,-0.036621,1.056885,0.748092,2.503817,-1.351145,1.058515,2.941825,194,352,158,194,0,53.571,10,normal
1780591591.4519804,3.5399628000013763,3703,0.056641,-0.019775,1.061523,3.175573,3.229008,-0.099237,1.063217,4.529967,195,355,160,195,1,53.571,14,normal
1780591591.4802175,3.5681998999934876,3734,0.048828,-0.006348,1.034912,0.496183,2.70229,-0.618321,1.036083,2.816184,197,358,161,197,0,53.571,9,normal
1780591591.5123365,3.600318899989361,3764,0.059326,-0.038574,1.072022,1.122137,2.541985,-1.305344,1.074354,3.069984,198,360,162,198,0,53.571,9,normal
1780591591.54233,3.6303123999969102,3795,0.038574,-0.002441,1.050537,3.519084,3.061069,-0.442748,1.051248,4.685096,199,363,164,199,1,53.571,14,normal
1780591591.5743842,3.6623665999941295,3826,0.048096,-0.006348,1.039795,0.122137,3.19084,-0.526718,1.040926,3.236326,201,366,165,201,0,42.857,9,normal
1780591591.604573,3.6925554999907035,3857,0.041016,-0.03418,1.063232,1.641221,2.389313,-1.137405,1.064572,3.113858,202,368,166,202,0,42.857,8,normal
1780591591.6351655,3.7231478999892715,3888,0.061523,-0.003662,1.063232,3.183206,3.259542,-0.442748,1.065017,4.577492,203,371,168,203,1,42.857,13,normal
1780591591.6668317,3.7548142000014195,3919,0.065674,0.000732,1.050537,-0.244275,3.557252,-0.381679,1.052588,3.585999,205,374,169,205,0,42.857,9,normal
1780591591.6977048,3.7856870999967214,3950,0.03418,-0.081055,1.053711,1.580153,2.732824,-0.519084,1.057376,3.199166,206,377,171,206,1,42.857,14,normal
1780591591.7291787,3.817161099999794,3981,0.038818,-0.007568,1.062988,3.137405,2.740458,-0.656489,1.063724,4.217155,207,379,172,207,1,42.857,13,normal
1780591591.760036,3.848018399992725,4012,0.051514,0.003174,1.052978,-0.19084,3.473282,-0.923664,1.054243,3.599064,209,382,173,209,0,42.857,9,normal
1780591591.7904882,3.878470700001344,4043,0.038574,-0.066895,1.065674,2.419847,2.59542,0.221374,1.068468,3.5554,210,385,175,210,1,42.857,14,normal
1780591591.8229275,3.910909999991418,4075,0.054688,-0.026855,1.061279,2.496183,2.083969,-0.885496,1.063027,3.370158,219,395,176,219,0,42.857,1,normal
1780591591.8539882,3.941970499989111,4107,0.033691,-0.009766,1.072022,0.610687,2.557252,-1.59542,1.072595,3.07536,220,397,177,220,0,67.616,9,normal
1780591591.886463,3.9744453000021167,4138,0.047119,-0.058105,1.047852,3.51145,3.366412,0.137405,1.050519,4.866404,221,400,179,221,1,67.616,13,normal
1780591591.9165127,4.004495200002566,4169,0.053955,-0.003418,1.039307,0.870229,2.877863,-0.694656,1.040712,3.085764,223,403,180,223,0,67.616,9,normal
1780591591.9485064,4.036488799989456,4200,0.029053,-0.032471,1.058106,0.900763,2.236641,-1.59542,1.059002,2.891246,224,405,181,224,0,67.616,9,normal
1780591591.9789398,4.066922199999681,4231,0.048828,-0.03418,1.045654,3.137405,2.847328,-0.198473,1.047352,4.24146,225,408,183,225,1,67.616,14,normal
1780591592.0095632,4.097545600001467,4262,0.076172,-0.009521,1.033203,0.664122,2.282443,-0.534351,1.036051,2.436418,227,411,184,227,0,67.616,9,normal
1780591592.0411665,4.129148899999564,4293,0.044189,-0.048096,1.067383,1.320611,2.480916,-1.335878,1.069379,3.111837,228,413,185,228,0,67.616,9,normal
1780591592.0725338,4.160516199990525,4325,0.062988,-0.008057,1.050049,3.473282,2.610687,-0.29771,1.051967,4.355228,229,416,187,229,1,67.616,14,normal
1780591592.104732,4.192714499993599,4356,0.065186,0.005615,1.051025,-0.076336,3.137405,-0.274809,1.05306,3.150342,231,419,188,231,0,67.616,9,normal
1780591592.140283,4.228265600002487,4387,0.036621,-0.068359,1.044678,1.427481,2.412214,-0.725191,1.047552,2.895234,232,422,190,232,1,42.857,14,normal
1780591592.1675365,4.255518999998458,4420,0.0354,-0.010742,1.063721,2.442748,2.40458,-0.908397,1.064364,3.546013,243,434,191,243,0,42.857,0,normal
1780591592.1989536,4.28693599998951,4451,0.026855,0.002197,1.060303,0.19084,2.427481,-1.442748,1.060645,2.830301,244,436,192,244,0,42.857,9,normal
1780591592.2299535,4.317935999992187,4482,0.059082,-0.039551,1.049316,2.900763,2.656489,0.198473,1.051722,3.938369,245,439,194,245,1,42.857,14,normal
1780591592.2601573,4.348139699999592,4513,0.040283,0.002686,1.060547,1.748092,2.320611,-0.648855,1.061315,2.976923,247,442,195,247,0,42.857,9,normal
1780591592.291875,4.379857199994149,4544,0.049072,-0.008301,1.066162,0.610687,2.48855,-1.427481,1.067323,2.933176,248,444,196,248,0,42.857,9,normal
1780591592.3219814,4.409963899990544,4575,0.051025,-0.062988,1.052734,3.0,2.877863,-0.10687,1.055851,4.158547,249,447,198,249,1,42.857,14,normal
1780591592.354665,4.442647499992745,4606,0.062744,-0.000732,1.041016,1.175572,2.152672,-0.503817,1.042905,2.503956,251,450,199,251,0,42.857,9,normal
1780591592.3841572,4.472139699995751,4637,0.025635,-0.011719,1.063477,1.091603,2.519084,-1.503817,1.06385,3.130311,253,454,201,253,0,84.0,1,normal
1780591592.4148958,4.5028782000008505,4667,0.042236,-0.047119,1.033447,3.175573,3.206107,-0.099237,1.035383,4.513672,254,457,203,254,1,84.0,14,normal
1780591592.4447143,4.532696700000088,4698,0.050537,0.007568,1.04834,1.603053,2.389313,-0.175573,1.049584,2.882607,256,460,204,256,0,84.0,9,normal
1780591592.47472,4.562702299997909,4728,0.021484,-0.001221,1.0625,0.717557,2.587786,-1.374046,1.062718,3.016542,257,462,205,257,0,84.0,9,normal
1780591592.5070634,4.595045900001423,4758,0.056152,-0.054688,1.056641,2.89313,2.877863,0.045802,1.059544,4.08098,258,465,207,258,1,84.0,14,normal
1780591592.5355375,4.623519899992971,4789,0.028076,-0.005371,1.055664,1.854962,2.312977,-1.076336,1.056051,3.154242,260,468,208,260,0,84.0,9,normal
1780591592.5679965,4.655978900002083,4819,0.022461,0.011475,1.05542,0.290076,2.80916,-1.435114,1.055721,3.167819,261,470,209,261,0,84.0,9,normal
1780591592.597952,4.685934299996006,4850,0.037354,-0.051758,1.051025,2.549618,2.923664,-0.221374,1.052962,3.885534,262,473,211,262,1,84.0,14,normal
1780591592.6292546,4.717236899989075,4881,0.047852,-0.011963,1.054932,1.641221,2.312977,-0.40458,1.056084,2.864813,264,476,212,264,0,84.0,9,normal
1780591592.6607094,4.74869179999223,4912,0.041748,-0.01001,1.062744,0.770992,2.587786,-1.343511,1.063611,3.015972,265,478,213,265,0,43.636,9,normal
1780591592.692903,4.7808854000031715,4944,0.046387,-0.032227,1.058838,2.763359,3.21374,-0.198473,1.060343,4.243074,266,481,215,266,1,43.636,14,normal
1780591592.7233164,4.811298899992835,4976,0.028076,-0.003174,1.031494,-0.21374,2.839695,-0.534351,1.031881,2.897427,268,484,216,268,0,43.636,9,normal
1780591592.756596,4.844578599993838,5007,0.036377,-0.043701,1.059082,1.450382,2.244275,-1.099237,1.060607,2.889411,269,487,218,269,1,43.636,14,normal
1780591592.786502,4.874484400002984,5039,0.030518,0.005859,1.068604,2.671756,2.557252,-0.923664,1.069055,3.811951,270,489,219,270,1,43.636,13,normal
1780591592.8172712,4.905253599994467,5070,0.041748,0.002441,1.056885,0.129771,3.305344,-0.480916,1.057712,3.342666,272,492,220,272,0,43.636,9,normal
1780591592.8488965,4.936878900000011,5101,0.03833,-0.057129,1.053711,2.015267,2.549618,-0.21374,1.055954,3.256922,273,495,222,273,1,43.636,14,normal
1780591592.8813965,4.969378900001175,5133,0.011719,-0.020752,1.049072,2.412214,2.503817,-0.862595,1.049343,3.58217,282,505,223,282,0,43.636,1,normal
1780591592.9124234,5.0004057999904035,5165,0.046387,-0.019531,1.058594,0.70229,2.740458,-1.29771,1.05979,3.112454,283,507,224,283,0,71.146,9,normal
1780591592.945241,5.033223499995074,5196,0.025635,-0.047119,1.039551,3.206107,2.763359,-0.465649,1.040934,4.25818,284,510,226,284,1,71.146,14,normal
1780591592.9766603,5.064642700002878,5228,0.052002,-0.000488,1.041748,0.549618,2.633588,-0.603053,1.043045,2.757089,286,513,227,286,0,71.146,9,normal
1780591593.007589,5.095571600002586,5259,0.040771,-0.039551,1.055908,1.549618,2.335878,-1.312977,1.057435,3.095408,287,515,228,287,0,71.146,9,normal
1780591593.037856,5.1258383999957005,5291,0.053955,-0.002441,1.063232,3.229008,2.954198,-0.267176,1.064603,4.38465,289,518,229,289,1,71.146,14,normal
1780591593.0691292,5.157111699998495,5322,0.050293,-0.009521,1.046143,-0.427481,3.145038,-0.381679,1.047394,3.196824,291,521,230,291,0,71.146,9,normal
1780591593.100408,5.188390600000275,5353,0.04834,-0.089111,1.046875,1.709924,2.442748,-0.740458,1.051772,3.072317,292,524,232,292,1,71.146,14,normal
1780591593.1317198,5.219702299989876,5384,0.046143,0.000732,1.066162,3.244275,2.412214,-0.465649,1.06716,4.069512,293,526,233,293,1,71.146,13,normal
1780591593.1622484,5.250230799996643,5415,0.065186,0.006348,1.061279,-0.664122,3.572519,-1.068702,1.063298,3.787621,295,529,234,295,0,48.0,9,normal
1780591593.194537,5.282519399988814,5446,0.032959,-0.040527,1.049072,2.557252,2.709924,-0.312977,1.050372,3.739142,296,532,236,296,1,48.0,14,normal
1780591593.2248135,5.312795899997582,5478,0.034668,-0.026123,1.050293,2.19084,2.51145,-0.755725,1.05119,3.41735,305,542,237,305,0,48.0,0,normal
1780591593.2565055,5.344487900001695,5508,0.081543,-0.017334,1.060791,-0.351145,2.916031,-0.847328,1.064062,3.056878,306,544,238,306,0,48.0,9,normal
1780591593.2930255,5.381007999996655,5539,0.058838,-0.047852,1.065674,2.824427,2.549618,0.083969,1.068369,3.805916,307,547,240,307,1,48.0,14,normal
1780591593.3236928,5.411675099996501,5576,0.048096,0.009521,1.058106,-0.458015,3.045802,-1.007634,1.059241,3.240681,309,550,241,309,0,48.0,9,normal
1780591593.3556986,5.443680899988976,5607,0.0354,-0.052734,1.052734,2.114504,2.351145,-0.442748,1.054649,3.192967,310,553,243,310,1,48.0,14,normal
1780591593.3878615,5.475844000000507,5639,0.048584,-0.020264,1.060547,2.496183,2.412214,-0.816794,1.061852,3.56607,317,564,247,317,0,48.0,1,normal
1780591593.4180126,5.50599499999953,5670,0.018311,0.00415,1.048828,0.328244,2.580153,-1.396947,1.048996,2.952354,318,566,248,318,0,90.196,9,normal
1780591593.4487612,5.5367435999942245,5701,0.061279,-0.035156,1.054688,2.687023,2.519084,-0.137405,1.057051,3.68575,319,569,250,319,1,90.196,14,normal
1780591593.479094,5.567076499995892,5732,0.059082,-0.004639,1.056152,1.816794,2.328244,-0.885496,1.057814,3.08311,321,572,251,321,0,90.196,9,normal
1780591593.5106134,5.598595799994655,5763,0.041016,-0.005127,1.057129,0.564886,2.732824,-1.022901,1.057937,2.972163,322,574,252,322,0,90.196,9,normal
1780591593.5425832,5.630565699990257,5794,0.059814,-0.05127,1.036621,3.137405,3.496183,-0.022901,1.03961,4.697566,323,577,254,323,1,90.196,14,normal
1780591593.5734437,5.661425999991479,5826,0.034424,0.004639,1.035156,1.381679,2.80916,-0.40458,1.035739,3.156597,325,580,255,325,0,90.196,10,normal
1780591593.6049943,5.692976699996507,5857,0.039551,-0.0354,1.068359,1.068702,2.763359,-1.503817,1.069677,3.322611,326,582,256,326,0,90.196,9,normal
1780591593.636024,5.724006499993266,5888,0.046875,-0.030762,1.057129,3.061069,3.083969,-0.274809,1.058615,4.35391,327,585,258,327,1,90.196,14,normal
1780591593.6676378,5.755620299998554,5919,0.046631,0.000977,1.040039,0.290076,3.129771,-0.274809,1.041084,3.155176,329,588,259,329,0,90.196,9,normal
1780591593.6977465,5.785728899994865,5950,0.054199,-0.031738,1.079834,1.458015,2.656489,-1.427481,1.081659,3.349693,330,590,260,330,0,42.857,9,normal
1780591593.730054,5.818036399999983,5981,0.055176,-0.017578,1.05249,3.664122,3.152672,-0.167939,1.054082,4.836666,331,593,262,331,1,42.857,14,normal
1780591593.7593691,5.847351599993999,6012,0.05542,-0.012695,1.034668,0.450382,2.954198,-0.580153,1.036229,3.044127,333,596,263,333,0,42.857,9,normal
1780591593.792075,5.880057299989858,6043,0.030762,-0.058838,1.043213,1.396947,2.274809,-1.145038,1.045324,2.904708,334,599,265,334,1,42.857,14,normal
1780591593.8209722,5.908954600003199,6074,0.049561,-0.003174,1.077637,3.335878,3.038168,-0.366412,1.07878,4.526898,335,601,266,335,1,42.857,14,normal
1780591593.8521667,5.940149000001838,6105,0.02417,0.000488,1.036621,0.007634,3.396947,-0.374046,1.036903,3.417487,337,604,267,337,0,42.857,9,normal
1780591593.8840828,5.9720651999959955,6136,0.020508,-0.05835,1.050293,2.114504,2.129771,-0.473282,1.052112,3.038264,338,607,269,338,1,42.857,14,normal
1780591593.9144385,6.002420799995889,6167,0.027344,-0.019287,1.055908,3.175573,2.59542,-0.290076,1.056438,4.111522,340,610,270,340,0,42.857,9,normal
1780591593.9461143,6.034096599993063,6198,0.065674,0.000977,1.066162,0.167939,2.916031,-0.908397,1.068183,3.05886,341,612,271,341,0,42.857,9,normal
1780591593.9770765,6.065058899999713,6229,0.068604,-0.051514,1.046143,2.0,2.755725,-0.282443,1.049654,3.416694,342,615,273,342,1,43.011,14,normal
1780591594.0078106,6.095793000000413,6260,0.037842,-0.032471,1.044922,2.091603,2.343511,-1.198473,1.046111,3.362021,344,618,274,344,0,43.011,9,normal
1780591594.0392473,6.127229799996712,6292,0.051025,-0.008545,1.062012,0.656489,2.496183,-1.152672,1.063271,2.826758,345,620,275,345,0,43.011,9,normal
1780591594.069805,6.157787299991469,6322,0.051025,-0.032471,1.064453,2.755725,2.80916,-0.030534,1.06617,3.935268,346,623,277,346,1,43.011,14,normal
1780591594.1010423,6.18902469999739,6353,0.023926,-0.011963,1.05249,1.931298,2.610687,-0.435114,1.05283,3.276419,348,626,278,348,0,43.011,9,normal
1780591594.1318886,6.219870999993873,6384,0.024414,-0.00708,1.062744,0.221374,2.534351,-1.343511,1.063048,2.876972,349,628,279,349,0,43.011,9,normal
1780591594.162839,6.25082129999646,6415,0.04126,-0.059082,1.032715,2.854962,2.938931,0.053435,1.035226,4.09768,350,631,281,350,1,43.011,14,normal
1780591594.206108,6.294090600000345,6446,0.041504,-0.003418,1.053223,1.305344,2.137405,-0.900763,1.054046,2.66154,352,634,282,352,0,43.011,9,normal
1780591594.2235029,6.311485400001402,6476,0.017578,-0.002441,1.063477,0.221374,2.725191,-1.435114,1.063625,3.087916,353,636,283,353,0,43.011,9,normal
1780591594.2552068,6.343189299994265,6507,0.036621,-0.034668,1.051514,3.122137,3.045802,-0.022901,1.052722,4.361786,354,639,285,354,1,43.165,14,normal
1780591594.2868571,6.374839500000235,6538,0.034668,0.001465,1.05249,1.282443,2.129771,-0.824427,1.053062,2.619211,356,642,286,356,0,43.165,9,normal
1780591594.317631,6.405613499999163,6569,0.027588,-0.021729,1.061279,0.48855,2.48855,-1.206107,1.06186,2.808248,357,644,287,357,0,43.165,9,normal
1780591594.3487327,6.436715199990431,6601,0.032227,-0.031494,1.04541,3.221374,2.694656,-0.572519,1.046381,4.238656,358,647,289,358,1,43.165,14,normal
1780591594.3804395,6.468421899990062,6632,0.046387,-0.01123,1.039307,0.030534,2.832061,-0.580153,1.040402,2.891034,360,650,290,360,0,43.165,9,normal
1780591594.41167,6.499652300000889,6664,0.029053,-0.04248,1.057129,1.396947,2.59542,-0.832061,1.058381,3.062677,361,653,292,361,1,43.165,14,normal
1780591594.4432256,6.531208100001095,6695,0.05127,-0.011963,1.063477,3.366412,2.801527,-0.221374,1.064779,4.385236,362,655,293,362,1,43.165,14,normal
1780591594.4747882,6.562770699994871,6726,0.043701,0.01416,1.0354,0.145038,3.251908,-0.641221,1.036419,3.317696,364,658,294,364,0,43.165,9,normal
1780591594.5066228,6.594605099991895,6758,0.02832,-0.047119,1.056885,2.458015,2.717557,-0.145038,1.058314,3.66715,365,661,296,365,1,43.825,14,normal
1780591594.5386627,6.626645099997404,6790,0.028076,-0.022461,1.054688,2.587786,2.412214,-0.519084,1.0553,3.575592,374,671,297,374,0,43.825,1,normal
1780591594.5688407,6.656823099998292,6821,0.013184,0.0,1.04834,0.221374,2.618321,-0.977099,1.048423,2.80345,375,673,298,375,0,43.825,9,normal
1780591594.5995982,6.687580500001786,6851,0.05127,-0.04248,1.056152,2.603053,2.343511,-0.122137,1.058249,3.50469,376,676,300,376,1,43.825,14,normal
1780591594.629898,6.717880399999558,6883,0.022217,0.003906,1.042236,2.0,2.015267,-0.984733,1.04248,3.005162,378,679,301,378,0,43.825,10,normal
1780591594.6613455,6.749327999990783,6913,0.029785,-0.001709,1.066406,-0.358779,3.038168,-1.267176,1.066824,3.311332,379,681,302,379,0,43.825,10,normal
1780591594.6922078,6.780190199991921,6944,0.063721,-0.053223,1.046143,2.717557,2.908397,0.083969,1.049432,3.981324,380,684,304,380,1,43.825,13,normal
1780591594.7229993,6.810981799993897,6975,0.020508,-0.009033,1.056885,2.114504,2.122137,-0.870229,1.057122,3.119598,382,687,305,382,0,43.825,9,normal
1780591594.7545016,6.842483899992658,7006,0.025146,-0.013184,1.061523,-0.030534,2.320611,-1.587786,1.061903,2.81198,383,689,306,383,0,43.825,8,normal
1780591594.7860074,6.87398979999125,7037,0.054932,-0.056641,1.053467,2.916031,2.664122,-0.335878,1.056418,3.964038,384,692,308,384,1,68.1,13,normal
1780591594.8152647,6.903247199996258,7068,0.057129,0.008057,1.052734,1.465649,2.557252,-0.59542,1.054314,3.007023,386,695,309,386,0,68.1,10,normal
1780591594.8448303,6.932812799990643,7098,0.006836,0.007568,1.066406,0.244275,2.755725,-1.366412,1.066455,3.085575,387,697,310,387,0,68.1,8,normal
1780591594.8758736,6.963856000002124,7128,0.055664,-0.021484,1.0625,2.839695,2.80916,-0.053435,1.064174,3.99476,388,700,312,388,1,68.1,14,normal
1780591594.906418,6.994400600000517,7159,0.045166,-0.02417,1.065186,2.374046,2.801527,-0.549618,1.066417,3.713048,397,710,313,397,0,68.1,0,normal
1780591594.9381459,7.026128299999982,7190,0.037354,-0.015625,1.057861,0.21374,2.580153,-1.221374,1.058636,2.862626,398,712,314,398,0,68.1,9,normal
1780591594.968447,7.056429399992339,7221,0.055908,-0.051025,1.043213,2.519084,3.167939,-0.030534,1.045955,4.047537,399,715,316,399,1,68.1,14,normal
1780591594.9990535,7.087035899996408,7252,0.039062,-0.007324,1.047852,1.351145,2.580153,-0.59542,1.048605,2.972761,401,718,317,401,0,68.1,8,normal
1780591595.0301998,7.118182099991827,7283,0.050049,-0.022217,1.063477,0.70229,2.137405,-1.29771,1.064885,2.59726,402,720,318,402,0,68.1,9,normal
1780591595.0638297,7.151812099997187,7314,0.057373,-0.032959,1.052246,2.816794,3.160305,-0.229008,1.054324,4.239611,403,723,320,403,1,68.592,14,normal
1780591595.0926855,7.180667799999355,7345,0.060059,0.011475,1.055664,1.030534,2.648855,-0.10687,1.057433,2.844267,405,726,321,405,0,68.592,9,normal
1780591595.124622,7.2126044999895385,7376,0.039795,-0.022949,1.060791,1.282443,2.526718,-1.10687,1.061785,3.042059,406,728,322,406,0,68.592,9,normal
1780591595.1545396,7.242522100001224,7407,0.039795,-0.032715,1.065674,2.954198,2.984733,-0.80916,1.066918,4.276758,407,731,324,407,1,68.592,14,normal
1780591595.1851375,7.273119999998016,7438,0.029785,-0.001709,1.023438,0.534351,2.610687,-0.480916,1.023872,2.707858,409,734,325,409,0,68.592,9,normal
1780591595.217804,7.305786299999454,7469,0.035889,-0.041748,1.047119,1.709924,2.519084,-0.732824,1.048565,3.131558,410,736,326,410,0,68.592,9,normal
1780591595.2618573,7.349839699993026,7500,0.035156,-0.012939,1.05249,3.427481,3.221374,-0.450382,1.053157,4.725222,411,739,328,411,1,68.592,14,normal
1780591595.2795155,7.367497899991577,7531,0.053955,-0.006348,1.041504,0.099237,2.763359,-0.694656,1.04292,2.851061,413,742,329,413,0,68.592,9,normal
1780591595.3105206,7.398502999989432,7562,0.051758,-0.066162,1.043945,1.343511,2.847328,-0.801527,1.047319,3.248807,414,745,331,414,1,68.592,14,normal
1780591595.3430421,7.431024499994237,7595,0.032959,-0.005615,1.07251,2.870229,2.618321,-0.587786,1.073031,3.929289,423,756,333,423,0,71.174,0,normal
1780591595.373673,7.461655299994163,7626,0.034668,0.004883,1.065186,0.022901,3.015267,-0.839695,1.065761,3.130087,424,758,334,424,0,71.174,10,normal
1780591595.4052958,7.493278199995984,7657,0.015869,-0.029541,1.061768,2.458015,2.076336,-0.068702,1.062297,3.218342,425,761,336,425,1,71.174,14,normal
1780591595.4364095,7.524391999992076,7688,0.021484,-0.008301,1.048096,1.770992,2.236641,-0.839695,1.048349,2.973897,427,764,337,427,0,71.174,9,normal
1780591595.4676106,7.555593099998077,7720,0.014404,0.004639,1.058838,0.389313,2.343511,-1.236641,1.058946,2.678226,428,766,338,428,0,71.174,9,normal
1780591595.5001462,7.588128499992308,7751,0.0271,-0.04126,1.045166,3.267176,2.832061,-0.152672,1.046331,4.326467,429,769,340,429,1,71.174,14,normal
1780591595.5303745,7.618356999999378,7782,0.048096,-0.004883,1.046631,1.076336,2.244275,-0.473282,1.047747,2.533627,431,772,341,431,0,71.174,10,normal
1780591595.560889,7.648871500001405,7813,0.054688,-0.023193,1.075439,1.175572,2.664122,-1.030534,1.077079,3.088935,432,774,342,432,0,71.174,10,normal
1780591595.5926828,7.680665299994871,7844,0.049072,-0.048096,1.057861,3.519084,3.480916,-0.038168,1.06009,4.949968,433,777,344,433,1,71.174,13,normal
1780591595.6223722,7.710354599999846,7875,0.033691,-0.003174,1.038818,0.832061,3.122137,-0.580153,1.039369,3.28278,435,780,345,435,0,42.857,9,normal
1780591595.6542304,7.74221279998892,7905,0.028564,-0.026855,1.058838,0.732824,2.290076,-1.068702,1.059563,2.631274,436,782,346,436,0,42.857,9,normal
1780591595.6845999,7.772582299992791,7936,0.059082,-0.043213,1.056641,3.48855,2.900763,-0.641221,1.059173,4.582093,439,787,348,439,1,42.857,14,normal
1780591595.71598,7.803962399993907,7967,0.053711,0.005371,1.053955,0.748092,2.793893,-0.59542,1.055336,2.952965,441,790,349,441,0,42.857,9,normal
1780591595.746054,7.834036300002481,7998,0.046143,-0.048096,1.056396,0.931298,2.778626,-1.175572,1.058497,3.157538,442,792,350,442,0,42.857,9,normal
1780591595.7769697,7.864952199990512,8029,0.033691,-0.03125,1.048828,3.358779,3.19084,-0.083969,1.049834,4.633562,443,795,352,443,1,42.857,14,normal
1780591595.8086088,7.8965910999977496,8060,0.05249,-0.015381,1.029297,0.320611,2.458015,-0.816794,1.030749,2.609939,445,798,353,445,0,42.857,9,normal
1780591595.8410945,7.92907679999189,8092,0.030273,-0.044922,1.056885,1.427481,3.198473,-1.015267,1.058272,3.646738,446,800,354,446,0,42.857,9,normal
1780591595.87139,7.9593725000013364,8123,0.046875,-0.015137,1.064697,3.557252,3.030534,-0.29771,1.065836,4.682607,448,803,355,448,1,42.857,13,normal
1780591595.9033012,7.991283600000315,8155,0.061279,0.006592,1.062988,-0.091603,3.396947,-0.641221,1.064774,3.45815,450,806,356,450,0,53.571,9,normal
1780591595.933877,8.021859399988898,8186,0.046631,-0.081055,1.048584,2.267176,2.389313,-0.473282,1.052745,3.327596,451,809,358,451,1,53.571,15,normal
1780591595.9670072,8.054989600001136,8218,0.038574,-0.016846,1.060303,2.977099,2.78626,-0.51145,1.061138,4.109494,460,820,360,460,0,53.571,0,normal
1780591595.9964545,8.084436999997706,8249,0.018799,0.006592,1.052734,-0.061069,2.938931,-1.137405,1.052923,3.151942,461,822,361,461,0,53.571,9,normal
1780591596.028084,8.116066399990814,8280,0.030518,-0.031982,1.054199,2.641221,2.366412,0.030534,1.055126,3.546391,462,825,363,462,1,53.571,13,normal
1780591596.059168,8.147150599994347,8311,0.039551,-0.019287,1.053955,2.167939,2.137405,-0.664122,1.054873,3.11601,464,828,364,464,0,53.571,9,normal
1780591596.096448,8.184430299996166,8342,0.030029,-0.008789,1.058594,0.083969,2.633588,-1.206107,1.059056,2.897849,465,830,365,465,0,53.571,9,normal
1780591596.1207504,8.208732899991446,8372,0.047363,-0.03418,1.052246,2.740458,2.778626,0.366412,1.053866,3.919838,466,833,367,466,1,53.571,14,normal
1780591596.1505318,8.238514099997701,8403,0.037598,-0.007813,1.057617,1.839695,2.587786,-0.381679,1.058314,3.197936,468,836,368,468,0,53.571,10,normal
1780591596.1819289,8.269911399998819,8434,0.038574,0.002197,1.060303,0.183206,2.427481,-1.160305,1.061006,2.696764,469,838,369,469,0,68.1,9,normal
1780591596.2130506,8.301033099996857,8465,0.043701,-0.068604,1.047852,2.526718,2.541985,0.236641,1.051004,3.591934,470,841,371,470,1,68.1,14,normal
1780591596.2445903,8.332572699990124,8497,0.045166,-0.008545,1.051025,1.076336,2.816794,-0.129771,1.05203,3.018222,472,844,372,472,0,68.1,9,normal
1780591596.274923,8.362905399990268,8528,0.047607,-0.026855,1.0625,1.068702,2.839695,-1.030534,1.063905,3.204371,473,846,373,473,0,68.1,9,normal
1780591596.3074663,8.395448600000236,8559,0.069336,-0.036621,1.057129,3.343511,3.007634,-0.412214,1.060033,4.516066,474,849,375,474,1,68.1,14,normal
1780591596.3390048,8.42698720000044,8591,0.062012,0.000488,1.031006,0.244275,2.923664,-0.229008,1.032869,2.942775,476,852,376,476,0,68.1,10,normal
1780591596.3707058,8.458688200000324,8622,0.047363,-0.058594,1.060547,1.755725,2.603053,-0.778626,1.06322,3.234921,477,855,378,477,1,68.1,14,normal
1780591596.4035683,8.49155079999764,8655,0.027588,-0.003906,1.051025,3.045802,2.580153,-0.89313,1.051395,4.09045,486,865,379,486,0,68.1,0,normal
1780591596.4336693,8.521651699993527,8686,0.02832,0.005859,1.063721,0.007634,3.259542,-0.625954,1.064114,3.31911,487,867,380,487,0,71.429,10,normal
1780591596.464729,8.552711600001203,8716,0.040527,-0.061035,1.042969,1.885496,2.801527,-0.053435,1.045539,3.377352,488,870,382,488,1,71.429,13,normal
1780591596.496243,8.584225500002503,8748,0.041992,-0.033691,1.064697,2.48855,2.236641,-0.938931,1.066058,3.475203,497,880,383,497,0,71.429,0,normal
1780591596.5269697,8.614951999988989,8780,0.005127,-0.002441,1.058838,0.374046,2.641221,-1.076336,1.058853,2.876536,498,882,384,498,0,71.429,9,normal
1780591596.5585697,8.646551999991061,8810,0.039795,-0.039062,1.04126,2.748092,2.503817,0.091603,1.042752,3.718804,499,885,386,499,1,71.429,14,normal
1780591596.5892162,8.677198599994881,8841,0.036377,0.006348,1.055908,1.679389,2.022901,-0.977099,1.056554,2.804853,501,888,387,501,0,71.429,9,normal
1780591596.6212168,8.709199199991417,8872,0.032715,-0.006592,1.077393,0.381679,2.412214,-1.519084,1.077909,2.876121,502,890,388,502,0,71.429,9,normal
1780591596.6497884,8.737770799998543,8903,0.031006,-0.038574,1.04834,2.70229,2.748092,-0.183206,1.049507,3.85849,503,893,390,503,1,71.429,14,normal
1780591596.6808817,8.76886419999937,8933,0.038818,0.002441,1.04248,1.885496,2.29771,-1.374046,1.043206,3.274533,505,896,391,505,0,71.429,9,normal
1780591596.7116492,8.799631499990937,8963,0.01001,0.008057,1.045654,-0.083969,2.610687,-1.015267,1.045733,2.802411,506,898,392,506,0,68.592,9,normal
1780591596.7431414,8.83112390000315,8994,0.044434,-0.051514,1.053223,2.885496,2.916031,0.122137,1.055417,4.104174,507,901,394,507,1,68.592,14,normal
1780591596.7738464,8.861828699999023,9026,0.023682,0.005371,1.04126,1.259542,2.229008,-0.709924,1.041543,2.656862,509,904,395,509,0,68.592,9,normal
1780591596.8054266,8.893408899995848,9057,0.036621,-0.022949,1.065918,0.343511,2.343511,-1.435114,1.066794,2.769404,510,906,396,510,0,68.592,9,normal
1780591596.8361533,8.924135799999931,9088,0.053711,-0.045654,1.059326,3.656489,3.122137,-0.183206,1.061669,4.811571,511,909,398,511,1,68.592,14,normal
1780591596.8679116,8.955893899998046,9120,0.051025,0.001221,1.048584,0.312977,2.801527,-0.076336,1.049825,2.819988,513,912,399,513,0,68.592,9,normal
1780591596.8989792,8.986961599992355,9151,0.024902,-0.051514,1.049072,0.992366,2.381679,-1.038168,1.050631,2.781183,514,914,400,514,0,68.592,10,normal
1780591596.931147,9.019129599997541,9182,0.065186,-0.029541,1.060303,3.618321,3.167939,0.022901,1.062715,4.809221,515,917,402,515,1,68.592,13,normal
1780591596.9610677,9.049050200002966,9213,0.063477,-0.001953,1.040039,0.305344,2.687023,-0.885496,1.041976,2.845598,517,920,403,517,0,44.0,9,normal
1780591596.992012,9.07999440000276,9244,0.044189,-0.044678,1.060059,1.389313,2.725191,-1.122137,1.061919,3.258228,518,922,404,518,0,44.0,9,normal
1780591597.0238876,9.11186999999336,9275,0.030762,-0.006836,1.049561,3.610687,2.793893,-0.229008,1.050033,4.571142,519,925,406,519,1,44.0,14,normal
1780591597.0541313,9.142113699999754,9306,0.028076,0.005859,1.033936,-0.267176,3.480916,-0.473282,1.034333,3.523089,521,928,407,521,0,44.0,9,normal
1780591597.0859466,9.17392899999686,9337,0.038086,-0.076416,1.042236,1.305344,2.755725,-0.961832,1.045728,3.197353,522,931,409,522,1,44.0,14,normal
1780591597.1177182,9.205700699996669,9370,0.030762,-0.027588,1.060547,3.389313,2.603053,-0.412214,1.061352,4.293396,531,941,410,531,0,44.0,0,normal
1780591597.1493196,9.23730209999485,9401,0.039795,-0.010254,1.043945,0.122137,2.656489,-1.251908,1.044754,2.939238,532,943,411,532,0,44.0,9,normal
1780591597.183694,9.27167639999243,9433,0.049316,-0.047363,1.059814,2.816794,2.610687,-0.244275,1.062018,3.848336,533,946,413,533,1,44.0,14,normal
1780591597.2192,9.307182199991075,9464,0.020752,0.011719,1.055664,1.78626,2.152672,-1.038168,1.055933,2.983708,535,949,414,535,0,71.713,10,normal
1780591597.2427282,9.330710700000054,9495,0.004883,0.013184,1.060791,0.137405,2.801527,-1.114504,1.060884,3.018203,536,951,415,536,0,71.713,10,normal
1780591597.2735982,9.361580700002378,9526,0.038818,-0.042236,1.046143,2.725191,2.412214,-0.458015,1.047714,3.668136,537,954,417,537,1,71.713,14,normal
1780591597.3046641,9.392646599997533,9557,0.036621,-0.006104,1.050049,1.389313,2.290076,-0.633588,1.050705,2.752467,539,957,418,539,0,71.713,9,normal
1780591597.3364222,9.424404599994887,9588,0.053955,-0.010986,1.074463,0.633588,2.473282,-1.183206,1.075873,2.813989,540,959,419,540,0,71.713,9,normal
1780591597.3673446,9.455326999988756,9619,0.050049,-0.047852,1.059082,2.969466,3.145038,-0.343511,1.061343,4.339008,541,962,421,541,1,71.713,14,normal
1780591597.3992615,9.487243999989005,9650,0.069092,-0.01123,1.040527,0.931298,2.885496,-0.274809,1.042879,3.044491,543,965,422,543,0,71.713,9,normal
1780591597.42899,9.516972400000668,9681,0.040039,-0.030029,1.057373,1.122137,2.938931,-1.145038,1.058557,3.347778,544,967,423,544,0,71.713,9,normal
1780591597.4613032,9.54928559999098,9712,0.049316,-0.028809,1.053711,3.045802,3.351145,-0.045802,1.055258,4.528706,545,970,425,545,1,71.713,14,normal
1780591597.4900563,9.578038699997705,9743,0.058594,-0.003662,1.053223,0.748092,2.633588,-0.412214,1.054858,2.768636,547,973,426,547,0,43.011,9,normal
1780591597.5209181,9.608900499995798,9773,0.045898,-0.031494,1.058838,0.78626,2.717557,-1.267176,1.0603,3.099848,548,975,427,548,0,43.011,9,normal
1780591597.5524743,9.640456599998288,9804,0.044678,-0.016602,1.054688,3.10687,3.282443,-0.641221,1.055764,4.564892,549,978,429,549,1,43.011,13,normal
1780591597.5823464,9.670328899999731,9835,0.04541,-0.009766,1.038086,0.374046,3.0,-0.580153,1.039125,3.078391,551,981,430,551,0,43.011,9,normal
1780591597.6133554,9.701337699996657,9865,0.053223,-0.018311,1.063232,1.21374,2.59542,-1.343511,1.064721,3.164552,552,983,431,552,0,43.011,9,normal
1780591597.6437836,9.73176589999639,9895,0.025391,-0.045654,1.050293,2.679389,2.984733,-0.122137,1.051591,4.012814,553,986,433,553,1,43.011,13,normal
1780591597.673637,9.7616194000002,9926,0.026855,0.001953,1.050537,1.145038,2.366412,-0.763359,1.050882,2.737469,555,989,434,555,0,43.011,10,normal
1780591597.7051687,9.79315119999228,9957,0.055176,-0.02124,1.072754,0.992366,2.366412,-1.290076,1.074382,2.872106,556,991,435,556,0,43.011,9,normal
1780591597.735999,9.823981499997899,9988,0.053223,-0.037842,1.047607,3.221374,2.801527,-0.129771,1.049641,4.27114,557,994,437,557,1,43.011,14,normal
1780591597.7667286,9.854711099993438,10019,0.048584,-0.002441,1.052734,0.946565,2.618321,-0.671756,1.053858,2.864061,559,997,438,559,0,43.478,9,normal
1780591597.799161,9.887143300002208,10050,0.033447,-0.028809,1.069336,1.396947,2.419847,-1.236641,1.070247,3.055553,560,999,439,560,0,43.478,9,normal
1780591597.829544,9.917526599994744,10082,0.065674,-0.003418,1.049805,3.51145,3.305344,-0.312977,1.051862,4.83255,561,1002,441,561,1,43.478,14,normal
1780591597.8616197,9.949602099994081,10113,0.050781,-0.003662,1.053711,-0.458015,2.748092,-0.427481,1.05494,2.818604,563,1005,442,563,0,43.478,9,normal
1780591597.8923197,9.9803019999963,10144,0.022217,-0.060791,1.053711,1.59542,2.664122,-1.29771,1.055697,3.365555,564,1007,443,564,0,43.478,8,normal
1780591597.9227002,10.010682699998142,10174,0.066406,-0.016602,1.051514,3.709924,3.061069,0.053435,1.053739,4.810045,565,1010,445,565,1,43.478,14,normal
1780591597.9544632,10.04244559998915,10206,0.036377,0.009033,1.028564,-0.358779,3.068702,-0.664122,1.029247,3.160176,567,1013,446,567,0,43.478,10,normal
1780591597.9866102,10.074592599994503,10237,0.040039,-0.055664,1.05835,2.045802,2.625954,-0.48855,1.060568,3.364464,568,1016,448,568,1,43.478,14,normal
1780591598.0181434,10.106125899998005,10270,0.028076,-0.02417,1.054199,2.854962,2.793893,-0.717557,1.05485,4.058514,578,1027,449,578,0,75.697,0,normal
1780591598.0503588,10.138341199999559,10301,0.013916,0.00708,1.052734,-0.091603,2.916031,-1.175572,1.05285,3.145409,579,1029,450,579,0,75.697,9,normal
1780591598.080884,10.168866499996511,10332,0.059326,-0.041992,1.052246,3.045802,2.671756,-0.015267,1.054753,4.051595,580,1032,452,580,1,75.697,14,normal
1780591598.110944,10.198926400000346,10363,0.05249,-0.003662,1.053955,1.908397,2.21374,-0.70229,1.055268,3.005967,582,1035,453,582,0,75.697,9,normal
1780591598.1544101,10.242392599990126,10394,0.011719,-0.005615,1.046387,0.320611,2.89313,-1.358779,1.046467,3.212362,583,1037,454,583,0,75.697,9,normal
1780591598.173834,10.26181660000293,10425,0.035889,-0.056152,1.050293,2.824427,2.618321,-0.427481,1.052405,3.875014,584,1040,456,584,1,75.697,14,normal
1780591598.2054837,10.293466099989018,10457,0.053955,-0.01123,1.048096,0.549618,2.954198,-0.343511,1.049544,3.024462,586,1043,457,586,0,75.697,9,normal
1780591598.2369494,10.32493180000165,10488,0.027832,-0.02124,1.065918,0.900763,2.374046,-1.175572,1.066493,2.798114,587,1045,458,587,0,75.697,10,normal
1780591598.2677345,10.355716899997788,10519,0.040527,-0.042969,1.041992,3.21374,3.053435,-0.061069,1.043665,4.433432,588,1048,460,588,1,75.697,13,normal
1780591598.298528,10.386510399999679,10550,0.059082,-0.011963,1.0354,0.473282,2.648855,-0.526718,1.037154,2.741872,592,1053,461,592,0,50.0,9,normal
1780591598.329929,10.41791160000139,10581,0.024414,-0.036621,1.059326,0.946565,2.229008,-1.358779,1.06024,2.776822,593,1055,462,593,0,50.0,8,normal
1780591598.358635,10.446617299996433,10611,0.04541,-0.053223,1.055908,3.007634,3.122137,-0.045802,1.058223,4.3354,594,1058,464,594,1,50.0,14,normal
1780591598.389697,10.477679399991757,10642,0.030273,-0.007324,1.029541,0.931298,2.923664,-0.206107,1.030012,3.075322,596,1061,465,596,0,50.0,9,normal
1780591598.420539,10.508521299998392,10672,0.053711,-0.034668,1.05835,0.89313,2.320611,-1.137405,1.060278,2.734338,597,1063,466,597,0,50.0,9,normal
1780591598.4509807,10.538963099999819,10703,0.055176,-0.052246,1.041504,3.290076,2.862595,-0.221374,1.044272,4.366699,598,1066,468,598,1,50.0,14,normal
1780591598.4814775,10.569459799997276,10734,0.038086,-0.008545,1.033447,0.801527,2.717557,-0.290076,1.034184,2.848106,600,1069,469,600,0,50.0,9,normal
1780591598.5113673,10.599349700001767,10764,0.037598,-0.013428,1.067383,0.519084,2.007634,-1.641221,1.068129,2.644551,601,1071,470,601,0,50.0,9,normal
1780591598.5429068,10.63088909999351,10795,0.030029,-0.057861,1.047607,2.847328,2.755725,0.022901,1.049634,3.962552,602,1074,472,602,1,50.0,13,normal
1780591598.5734067,10.661389000000781,10826,0.02832,-0.002197,1.044434,1.221374,2.78626,-0.015267,1.04482,3.042241,606,1079,473,606,0,50.725,0,normal
1780591598.6052444,10.69322679999459,10857,0.054199,-0.028564,1.07959,1.343511,2.465649,-0.954198,1.081327,2.965627,607,1081,474,607,0,50.725,9,normal
1780591598.6363387,10.724321200003033,10888,0.02417,-0.041504,1.038818,3.129771,2.625954,-0.229008,1.039928,4.091888,608,1084,476,608,1,50.725,14,normal
1780591598.667396,10.755378599991673,10919,0.029785,-0.015137,1.040283,0.885496,2.755725,-0.473282,1.04082,2.932937,610,1087,477,610,0,50.725,10,normal
1780591598.6986387,10.786621199993533,10950,0.027344,-0.032959,1.066894,1.328244,2.473282,-1.480916,1.067754,3.17403,611,1089,478,611,0,50.725,9,normal
1780591598.7293,10.81728239999211,10981,0.055176,-0.016113,1.046387,3.015267,3.587786,-0.259542,1.047964,4.693763,612,1092,480,612,1,50.725,14,normal
1780591598.7612696,10.84925210000074,11012,0.076904,-0.009766,1.032959,0.381679,2.89313,-0.259542,1.035864,2.929717,614,1095,481,614,0,50.725,9,normal
1780591598.7920465,10.880028999992646,11043,0.037842,-0.030762,1.063477,1.343511,2.969466,-1.099237,1.064594,3.439632,615,1097,482,615,0,50.725,9,normal
1780591598.8221498,10.910132199991494,11074,0.044434,-0.001709,1.056152,3.21374,3.305344,-0.748092,1.057088,4.670446,616,1100,484,616,1,50.725,14,normal
1780591598.8533266,10.941309000001638,11105,0.026611,-0.006348,1.033936,0.229008,2.969466,-0.236641,1.034297,2.98767,618,1103,485,618,0,43.011,9,normal
1780591598.8846717,10.97265399999742,11136,0.036865,-0.054199,1.050781,1.732824,2.198473,-1.175572,1.052824,3.036105,619,1105,486,619,0,43.011,8,normal
1780591598.9146314,11.002613699994981,11167,0.069092,-0.006348,1.063477,3.022901,3.145038,-0.450382,1.065738,4.385434,621,1108,487,621,1,43.011,13,normal
1780591598.9518843,11.03986669999722,11198,0.055908,0.007324,1.053711,-0.282443,3.534351,-0.618321,1.055218,3.59913,623,1111,488,623,0,43.011,9,normal
1780591598.9834776,11.07145999999193,11235,0.054199,-0.00415,1.050049,3.068702,3.282443,-0.274809,1.051455,4.501876,624,1114,490,624,1,43.011,14,normal
1780591599.013801,11.10178349999478,11266,0.054443,0.006592,1.051758,-0.007634,2.625954,-0.671756,1.053187,2.710526,626,1117,491,626,0,43.011,10,normal
1780591599.0454621,11.133444599996437,11296,0.026123,-0.039307,1.061035,1.458015,2.671756,-0.961832,1.062084,3.192054,627,1119,492,627,0,43.011,9,normal
1780591599.0754426,11.163424899990787,11327,0.049316,-0.033691,1.047852,3.519084,2.877863,-0.473282,1.049552,4.570563,628,1122,494,628,1,43.011,14,normal
1780591599.106669,11.194651400001021,11358,0.073242,-0.023926,1.029297,-0.076336,2.473282,-0.664122,1.032177,2.562032,630,1125,495,630,0,47.431,9,normal
1780591599.1365921,11.224574499996379,11389,0.05542,-0.055176,1.059814,1.70229,2.534351,-1.08397,1.062696,3.239709,631,1127,496,631,0,47.431,9,normal
1780591599.167528,11.25551029999042,11420,0.047852,0.005127,1.063721,3.755725,3.229008,-0.145038,1.064809,4.955098,632,1130,498,632,1,47.431,14,normal
1780591599.1988842,11.286866599999485,11451,0.029541,0.020752,1.036377,-0.465649,3.221374,-0.526718,1.037006,3.297198,634,1133,499,634,0,47.431,9,normal
1780591599.2301178,11.31810009999026,11482,0.031006,-0.057617,1.05835,1.290076,2.725191,-0.671756,1.06037,3.089048,635,1136,501,635,1,47.431,14,normal
1780591599.2616165,11.349598899992998,11513,0.037842,-0.016113,1.054932,3.519084,2.824427,-0.343511,1.055733,4.52541,636,1138,502,636,1,47.431,13,normal
1780591599.2924352,11.380417499996838,11544,0.047119,0.01001,1.046875,-0.29771,3.015267,-1.068702,1.047983,3.212879,638,1141,503,638,0,47.431,9,normal
1780591599.3238025,11.411784999989322,11575,0.055908,-0.071533,1.058594,1.847328,2.694656,-0.335878,1.06248,3.284297,639,1144,505,639,1,47.431,13,normal
1780591599.3552358,11.443218200001866,11606,0.055908,-0.023438,1.061279,2.961832,2.801527,-0.450382,1.063009,4.101688,640,1146,506,640,1,47.431,12,normal
1780591599.3865979,11.474580399997649,11637,0.024902,0.012451,1.036133,-0.183206,3.305344,-0.725191,1.036507,3.388918,642,1149,507,642,0,43.011,9,normal
1780591599.416494,11.504476199988858,11668,0.036621,-0.074707,1.04834,2.19084,2.641221,-0.396947,1.051636,3.454475,643,1152,509,643,1,43.011,15,normal
1780591599.4486806,11.536662999991677,11699,0.027588,-0.012695,1.057617,2.916031,2.679389,-0.770992,1.058053,4.03445,644,1154,510,644,0,43.011,12,normal
1780591599.4775188,11.56550129999232,11730,0.070068,0.003174,1.064209,-0.541985,3.068702,-0.862595,1.066518,3.233381,646,1159,513,646,0,43.011,0,normal
1780591599.510105,11.598087299993495,11761,0.045654,-0.056641,1.044189,2.442748,2.343511,-0.458015,1.046721,3.415969,647,1162,515,647,1,43.011,14,normal
1780591599.541329,11.629311400000006,11793,0.023926,-0.023682,1.054688,2.374046,2.625954,-0.580153,1.055225,3.587242,656,1172,516,656,0,43.011,1,normal
1780591599.5735416,11.661523999995552,11824,0.0354,0.003174,1.070312,0.458015,2.931298,-1.351145,1.070902,3.260042,657,1174,517,657,0,43.011,9,normal
1780591599.6043334,11.69231579999905,11855,0.03833,-0.060547,1.039795,2.564885,2.916031,-0.091603,1.042261,3.884619,658,1177,519,658,1,43.011,13,normal
1780591599.6348174,11.722799700000905,11886,0.043945,0.003662,1.046143,1.557252,2.603053,-0.564886,1.047072,3.085452,660,1180,520,660,0,43.011,10,normal
1780591599.664994,11.752976299991133,11917,0.014404,0.008545,1.051758,0.442748,2.763359,-1.587786,1.051891,3.217646,661,1182,521,661,0,67.857,9,normal
1780591599.6971102,11.78509249999479,11948,0.040283,-0.050537,1.050049,3.022901,2.824427,-0.412214,1.052036,4.157552,662,1185,523,662,1,67.857,14,normal
1780591599.7271717,11.815154099997017,11979,0.060791,0.002686,1.049316,1.061069,2.473282,-0.633588,1.051079,2.764855,664,1188,524,664,0,67.857,10,normal
1780591599.7592664,11.847248899997794,12010,0.046875,-0.020752,1.072754,0.908397,2.328244,-1.160305,1.073978,2.755397,665,1190,525,665,0,67.857,9,normal
1780591599.7896218,11.877604299996165,12041,0.065674,-0.059326,1.040039,3.244275,2.877863,-0.083969,1.043798,4.337564,666,1193,527,666,1,67.857,14,normal
1780591599.8193889,11.907371299996157,12072,0.036133,-0.002686,1.032715,0.664122,2.519084,-0.679389,1.03335,2.692288,668,1196,528,668,0,67.857,9,normal
1780591599.8519266,11.939908899992588,12103,0.042969,-0.027832,1.057617,1.259542,2.969466,-1.152672,1.058856,3.425321,669,1198,529,669,0,67.857,9,normal
1780591599.8830934,11.971075699999346,12134,0.022949,-0.016602,1.046143,3.358779,2.984733,-0.290076,1.046526,4.502684,670,1201,531,670,1,67.857,14,normal
1780591599.9144726,12.002455099995132,12165,0.047119,-0.022461,1.034912,0.206107,2.847328,-0.717557,1.036228,2.943577,672,1204,532,672,0,67.857,9,normal
1780591599.9439924,12.031974899990018,12196,0.050293,-0.040527,1.063721,1.763359,2.40458,-0.877863,1.06568,3.108389,673,1206,533,673,0,43.011,9,normal
1780591599.976071,12.064053299996885,12227,0.061035,0.00415,1.064453,3.59542,3.167939,-0.282443,1.06621,4.800277,674,1209,535,674,1,43.011,14,normal
1780591600.0049477,12.092929999998887,12257,0.032227,-0.012451,1.030029,0.343511,2.923664,-0.305344,1.030608,2.959569,676,1212,536,676,0,43.011,9,normal
1780591600.0368028,12.124785299994983,12288,0.052246,-0.041992,1.068115,1.358779,2.335878,-1.221374,1.070216,2.965528,677,1214,537,677,0,43.011,10,normal
1780591600.0676818,12.155664099991554,12319,0.056641,-0.022461,1.05957,3.129771,3.083969,-0.320611,1.061321,4.405578,678,1217,539,678,1,43.011,13,normal
1780591600.0980356,12.186017899992294,12350,0.042236,-0.011719,1.047607,0.343511,2.664122,-0.40458,1.048524,2.716474,682,1222,540,682,0,43.011,9,normal
1780591600.1296556,12.21763810000266,12381,0.038086,-0.04248,1.074951,1.778626,2.763359,-0.854962,1.076464,3.395677,683,1224,541,683,0,43.011,8,normal
1780591600.1594138,12.24739619999309,12412,0.048828,0.007324,1.054932,3.679389,3.137405,-0.137405,1.056086,4.837364,684,1227,543,684,1,43.011,14,normal
1780591600.1915514,12.279533799999626,12443,0.026123,0.005859,1.031738,-0.358779,3.007634,-0.587786,1.032086,3.085462,686,1230,544,686,0,43.011,9,normal
1780591600.223603,12.311585499992361,12474,0.026611,-0.072021,1.043945,1.923664,2.381679,-0.709924,1.046765,3.142749,687,1233,546,687,1,50.36,14,normal
1780591600.254924,12.34290649999457,12507,0.031494,-0.000488,1.064209,2.89313,2.580153,-0.80916,1.064675,3.960067,696,1244,548,696,0,50.36,0,normal
1780591600.2862306,12.374213000002783,12538,0.032227,-0.007568,1.057373,0.19084,2.755725,-1.167939,1.057891,2.999087,697,1246,549,697,0,50.36,9,normal
1780591600.3178103,12.4057926999958,12569,0.046631,-0.035889,1.057617,3.145038,2.641221,0.099237,1.059253,4.108182,698,1249,551,698,1,50.36,14,normal
1780591600.3513215,12.439303799998015,12601,0.046387,0.017578,1.054199,1.374046,2.458015,-0.503817,1.055366,2.860712,700,1252,552,700,0,50.36,9,normal
1780591600.3800478,12.46803029999137,12632,0.013672,-0.007813,1.062256,0.465649,2.763359,-1.29771,1.062373,3.088209,701,1254,553,701,0,50.36,9,normal
1780591600.4107258,12.498708200000692,12662,0.037842,-0.063232,1.040283,3.061069,2.519084,-0.175573,1.04289,3.968218,702,1257,555,702,1,50.36,14,normal
1780591600.442317,12.530299399993964,12693,0.049805,0.002686,1.054199,1.610687,2.480916,-0.549618,1.055378,3.008544,704,1260,556,704,0,50.36,9,normal
1780591600.4726741,12.560656499990728,12724,0.031982,-0.012451,1.070068,0.465649,2.587786,-1.587786,1.070619,3.071568,705,1262,557,705,0,72.0,9,normal
1780591600.5038464,12.59182879999571,12755,0.040527,-0.070312,1.060059,3.427481,3.015267,-0.198473,1.063161,4.569338,706,1265,559,706,1,72.0,13,normal
1780591600.532603,12.620585500000743,12786,0.03125,0.002197,1.040283,1.458015,2.610687,-0.519084,1.040755,3.034954,708,1268,560,708,0,72.0,10,normal
1780591600.563834,12.651816400000826,12816,0.01123,0.001709,1.068359,0.282443,2.519084,-1.175572,1.06842,2.794196,709,1270,561,709,0,72.0,9,normal
1780591600.5953734,12.68335589999333,12846,0.036865,-0.055176,1.040527,2.625954,2.496183,-0.099237,1.042641,3.624419,710,1273,563,710,1,72.0,14,normal
1780591600.6253297,12.713312199994107,12877,0.029297,0.006836,1.050293,2.015267,2.832061,-0.938931,1.050724,3.600481,712,1276,564,712,0,72.0,9,normal
1780591600.6559854,12.743967699992936,12908,0.040527,-0.000244,1.069336,0.40458,2.671756,-1.549618,1.070104,3.115009,713,1278,565,713,0,72.0,9,normal
1780591600.6869946,12.774976899992907,12939,0.041016,-0.043701,1.052002,2.80916,2.778626,-0.183206,1.053708,3.955466,714,1281,567,714,1,72.0,14,normal
1780591600.7177632,12.805745699995896,12970,0.024902,0.001465,1.036621,1.633588,2.450382,-0.534351,1.036921,2.993077,716,1284,568,716,0,72.0,9,normal
1780591600.7476425,12.835624899991672,13000,0.012695,0.000732,1.060547,0.160305,2.442748,-1.068702,1.060623,2.671112,717,1286,569,717,0,43.478,9,normal
1780591600.7799559,12.867938299998059,13031,0.054199,-0.043701,1.065918,2.671756,2.969466,-0.175573,1.068189,3.998354,718,1289,571,718,1,43.478,14,normal
1780591600.8102546,12.898237000001245,13063,0.044434,-0.001465,1.052002,1.198473,2.458015,-0.458015,1.052941,2.772716,720,1292,572,720,0,43.478,10,normal
1780591600.840729,12.92871139998897,13093,0.014404,-0.007324,1.060791,0.366412,2.557252,-1.274809,1.060914,2.880787,721,1294,573,721,0,43.478,10,normal
1780591600.8718355,12.959818000002997,13123,0.058594,-0.039307,1.061768,2.839695,2.671756,0.114504,1.064109,3.900674,722,1297,575,722,1,43.478,15,normal
1780591600.9015882,12.989570499994443,13154,0.040771,0.001221,1.048096,1.977099,2.648855,-0.465649,1.048889,3.337991,724,1300,576,724,0,43.478,9,normal
1780591600.933346,13.021328399991035,13185,0.025635,0.000244,1.061035,0.351145,2.633588,-1.458015,1.061345,3.03066,725,1302,577,725,0,43.478,9,normal
1780591600.9639466,13.051928899993072,13216,0.036377,-0.046875,1.053223,3.022901,2.877863,-0.007634,1.054893,4.173737,726,1305,579,726,1,43.478,14,normal
1780591600.9944556,13.082438099998399,13247,0.04248,0.012939,1.057861,1.396947,2.59542,-0.671756,1.058793,3.023065,728,1308,580,728,0,43.478,9,normal
1780591601.0253382,13.113320699994802,13277,0.031494,-0.001709,1.058838,0.59542,2.572519,-1.19084,1.059308,2.896632,729,1310,581,729,0,43.321,9,normal
1780591601.0584836,13.146466099991812,13308,0.04541,-0.050049,1.055908,2.664122,2.801527,-0.068702,1.058068,3.866629,730,1313,583,730,1,43.321,14,normal
1780591601.0884778,13.17646029999014,13340,0.064941,-0.012695,1.0354,0.854962,2.396947,-0.198473,1.037513,2.552588,732,1316,584,732,0,43.321,9,normal
1780591601.119989,13.207971299998462,13371,0.040771,-0.019775,1.06543,0.961832,2.412214,-1.160305,1.066393,2.844329,733,1318,585,733,0,43.321,9,normal
1780591601.1501808,13.238163199988776,13402,0.043701,-0.035645,1.050537,3.40458,2.900763,-0.320611,1.05205,4.484237,734,1321,587,734,1,43.321,13,normal
1780591601.180067,13.268049499994959,13433,0.04834,-0.023926,1.03833,0.221374,3.0,-0.526718,1.03973,3.053922,736,1324,588,736,0,43.321,9,normal
1780591601.2117422,13.299724600001355,13463,0.04248,-0.017578,1.06543,1.068702,1.969466,-1.374046,1.066421,2.628483,737,1326,589,737,0,43.321,9,normal
1780591601.2422493,13.33023159998993,13494,0.057617,-0.039307,1.065918,3.10687,2.931298,-0.358779,1.068198,4.286475,738,1329,591,738,1,43.321,13,normal
1780591601.272485,13.360467399994377,13525,0.041992,0.003418,1.043457,0.755725,2.80916,-0.549618,1.044307,2.960504,740,1332,592,740,0,43.321,10,normal
1780591601.3045578,13.392540100001497,13556,0.041748,-0.0271,1.065674,1.198473,2.923664,-1.320611,1.066836,3.42464,741,1334,593,741,0,43.011,9,normal
1780591601.3354769,13.423459199999343,13587,0.048096,-0.03418,1.056396,3.335878,3.198473,-0.503817,1.058043,4.648886,742,1337,595,742,1,43.011,14,normal
1780591601.366238,13.45422059998964,13618,0.043945,-0.007813,1.048584,0.022901,2.473282,-0.717557,1.049534,2.575372,744,1340,596,744,0,43.011,9,normal
1780591601.3975792,13.48556169999938,13649,0.042236,-0.026367,1.072022,1.664122,2.236641,-1.076336,1.073177,2.988372,745,1342,597,745,0,43.011,9,normal
1780591601.4276245,13.515606899993145,13680,0.05957,-0.011475,1.0625,3.396947,3.167939,-0.389313,1.06423,4.661185,746,1345,599,746,1,43.011,14,normal
1780591601.4579167,13.545899199991254,13710,0.049316,-0.008545,1.027832,-0.175573,2.648855,-0.587786,1.02905,2.718962,748,1348,600,748,0,43.011,9,normal
1780591601.490518,13.578500399991754,13741,0.040039,-0.031982,1.064209,1.564886,2.51145,-1.206107,1.065442,3.195457,749,1350,601,749,0,43.011,9,normal
1780591601.5197835,13.607765900000231,13772,0.040039,-0.008301,1.05542,3.946565,2.870229,-0.19084,1.056212,4.883647,750,1353,603,750,1,43.011,14,normal
1780591601.5506542,13.638636599993333,13803,0.053467,0.006348,1.024658,-0.137405,2.763359,-0.717557,1.026072,2.858307,752,1356,604,752,0,43.011,9,normal
1780591601.5824435,13.67042589999619,13834,0.01001,-0.033447,1.059814,1.656489,2.664122,-1.053435,1.060389,3.309264,753,1358,605,753,0,43.165,9,normal
1780591601.6132045,13.701186899997992,13865,0.057373,-0.018066,1.054932,3.923664,3.152672,-0.198473,1.056645,5.037248,755,1361,606,755,1,43.165,13,normal
1780591601.644047,13.732029399994644,13896,0.029541,0.010498,1.031006,-0.419847,2.664122,-0.717557,1.031482,2.790825,757,1364,607,757,0,43.165,9,normal
1780591601.6755252,13.763507700001355,13927,0.042236,-0.075684,1.05542,1.51145,2.496183,-0.671756,1.058973,2.99444,758,1367,609,758,1,43.165,15,normal
1780591601.706392,13.794374499993864,13958,0.035156,-0.009033,1.058838,3.122137,2.725191,-0.519084,1.05946,4.176584,759,1369,610,759,1,43.165,13,normal
1780591601.7361746,13.824157099996228,13989,0.029785,0.002441,1.037354,-0.251908,3.59542,-0.480916,1.037784,3.636177,761,1372,611,761,0,43.165,9,normal
1780591601.7660265,13.854008800000884,14019,0.046387,-0.066895,1.0625,1.29771,2.656489,-0.603053,1.065614,3.017392,762,1375,613,762,1,43.165,14,normal
1780591601.797682,13.885664399989764,14049,0.047363,-0.010742,1.045898,3.89313,2.854962,-0.167939,1.047025,4.83068,763,1377,614,763,1,43.165,14,normal
1780591601.827833,13.915815300002578,14080,0.033203,0.011719,1.034668,0.114504,2.946565,-0.48855,1.035267,2.988986,765,1380,615,765,0,43.165,10,normal
1780591601.8596232,13.947605499997735,14111,0.026855,-0.043945,1.062256,1.282443,2.389313,-0.870229,1.063504,2.847942,766,1382,616,766,0,46.931,8,normal
1780591601.8909945,13.978976899990812,14142,0.042725,-0.01001,1.047119,3.290076,2.900763,-0.137405,1.048038,4.388384,768,1385,617,768,1,46.931,13,normal
1780591601.9211516,14.009134099993389,14173,0.051025,-0.008301,1.040283,-0.381679,2.687023,-0.603053,1.041567,2.780188,770,1388,618,770,0,46.931,9,normal
1780591601.952418,14.040400600002613,14204,0.049805,-0.083008,1.050781,1.496183,2.374046,-0.763359,1.055231,2.908157,771,1391,620,771,1,46.931,15,normal
1780591601.9837177,14.071700000000419,14235,0.033203,-0.003662,1.057129,3.335878,2.694656,-0.374046,1.057656,4.304552,772,1393,621,772,1,46.931,13,normal
1780591602.0138,14.101782400000957,14266,0.049072,0.00415,1.051514,0.175573,3.389313,-0.137405,1.052666,3.396638,774,1396,622,774,0,46.931,9,normal
1780591602.0463536,14.134335900002043,14297,0.030029,-0.061279,1.02832,2.267176,2.740458,-0.10687,1.030582,3.558317,775,1399,624,775,1,46.931,14,normal
1780591602.0776992,14.165681699989364,14330,0.041504,-0.020752,1.06665,2.076336,2.366412,-1.0,1.067659,3.303192,784,1409,625,784,0,46.931,1,normal
1780591602.1093044,14.197286900001927,14361,0.043457,0.000488,1.066894,0.312977,2.687023,-1.496183,1.067779,3.091377,785,1411,626,785,0,76.0,9,normal
1780591602.140101,14.228083399997558,14392,0.019775,-0.029053,1.041748,2.755725,3.305344,-0.21374,1.042341,4.308712,786,1414,628,786,1,76.0,13,normal
1780591602.1711526,14.259135000000242,14423,0.02417,0.006348,1.052978,1.381679,2.274809,-0.748092,1.053275,2.764676,788,1417,629,788,0,76.0,10,normal
1780591602.2014847,14.289466999995057,14454,0.026611,-0.005615,1.056396,0.526718,2.709924,-1.030534,1.056746,2.946713,789,1419,630,789,0,76.0,9,normal
1780591602.2339969,14.321979399988777,14485,0.038818,-0.046631,1.04834,2.900763,3.045802,-0.183206,1.050094,4.210095,790,1422,632,790,1,76.0,14,normal
1780591602.2635524,14.351534799992805,14516,0.029053,0.012451,1.045898,1.160305,2.679389,-0.870229,1.046376,3.046758,792,1425,633,792,0,76.0,9,normal
1780591602.2957969,14.383779199997662,14547,0.045654,-0.017578,1.072022,1.198473,2.458015,-1.351145,1.073137,3.050208,793,1427,634,793,0,76.0,9,normal
1780591602.3259847,14.413967100001173,14578,0.037842,-0.04541,1.04248,3.137405,3.068702,0.305344,1.044155,4.399258,794,1430,636,794,1,76.0,14,normal
1780591602.3576536,14.445635999989463,14609,0.054443,-0.011963,1.041748,0.48855,2.694656,-0.51145,1.043238,2.785935,796,1433,637,796,0,76.0,9,normal
1780591602.3887758,14.476758199991309,14640,0.029785,-0.029541,1.056885,1.290076,2.778626,-0.89313,1.057717,3.19104,797,1435,638,797,0,43.011,9,normal
1780591602.4186902,14.506672699993942,14671,0.048584,-0.021973,1.054932,2.89313,3.030534,-0.480916,1.056278,4.2173,798,1438,640,798,1,43.011,14,normal
1780591602.4503188,14.538301199994748,14702,0.061279,-0.013184,1.048096,0.183206,2.160305,-0.549618,1.049968,2.236641,800,1441,641,800,0,43.011,9,normal
1780591602.4817336,14.56971589999739,14733,0.04834,-0.046387,1.058106,1.633588,2.312977,-1.038168,1.060224,3.016002,801,1443,642,801,0,43.011,8,normal
1780591602.5126789,14.60066119999101,14764,0.052246,-0.005859,1.060303,3.450382,2.961832,-0.526718,1.061605,4.577665,802,1446,644,802,1,43.011,14,normal
1780591602.544336,14.632318599993596,14795,0.028076,0.000488,1.039062,0.076336,2.633588,-0.526718,1.039442,2.686828,804,1449,645,804,0,43.011,9,normal
1780591602.57547,14.663452299995697,14826,0.038574,-0.042236,1.054688,1.709924,2.496183,-0.923664,1.056237,3.16353,805,1451,646,805,0,43.011,8,normal
1780591602.6052532,14.693235599988839,14857,0.033203,-0.000244,1.05542,3.351145,2.877863,-0.450382,1.055942,4.44017,807,1454,647,807,1,43.011,13,normal
1780591602.634645,14.72262729999784,14888,0.045654,-0.000244,1.045166,-0.21374,3.076336,-0.458015,1.046163,3.11758,809,1457,648,809,0,43.011,10,normal
1780591602.667221,14.755203599997913,14918,0.032227,-0.041016,1.067139,1.557252,2.648855,-1.068702,1.068413,3.253243,810,1459,649,810,0,46.763,8,normal
1780591602.6965058,14.784488299992518,14949,0.044922,-0.002686,1.049072,3.572519,3.099237,-0.274809,1.050037,4.737476,812,1462,650,812,1,46.763,14,normal
1780591602.728134,14.816116399990278,14980,0.019287,0.015625,1.041748,-0.557252,2.770992,-0.458015,1.042044,2.863338,814,1465,651,814,0,46.763,9,normal
1780591602.7595785,14.847561000002315,15011,0.044922,-0.064453,1.053711,1.679389,2.175573,-1.068702,1.056636,2.948828,815,1468,653,815,1,46.763,14,normal
1780591602.7905397,14.878522200000589,15042,0.05542,0.001953,1.061523,3.343511,2.351145,-0.717557,1.062971,4.14992,816,1470,654,816,1,46.763,13,normal
1780591602.821627,14.909609399997862,15073,0.068604,0.016602,1.051025,-0.129771,3.175573,-0.618321,1.053393,3.237812,818,1473,655,818,0,46.763,9,normal
1780591602.8531337,14.941116199988755,15104,0.046143,-0.070068,1.04541,2.160305,2.229008,-0.19084,1.048771,3.109954,819,1476,657,819,1,46.763,14,normal
1780591602.8832428,14.971225200002664,15135,0.027832,-0.016357,1.052002,3.0,2.641221,-0.549618,1.052497,4.034616,820,1478,658,820,0,46.763,12,normal
1780591602.9151323,15.00311459999648,15166,0.021484,-0.000244,1.051758,-0.664122,3.19084,-0.572519,1.051977,3.309123,822,1481,659,822,0,46.763,9,normal
1780591602.9462004,15.034182699993835,15197,0.060059,-0.062256,1.054443,2.877863,2.625954,-0.045802,1.057986,3.89613,823,1484,661,823,1,46.595,13,normal
1780591602.9782662,15.066248599992832,15229,0.038818,-0.02124,1.057373,2.274809,2.671756,-0.374046,1.058298,3.528873,832,1494,662,832,0,46.595,1,normal
1780591603.008734,15.09671649998927,15261,0.029053,0.000977,1.061523,0.435114,2.603053,-1.267176,1.061921,2.927618,833,1496,663,833,0,46.595,9,normal
1780591603.040578,15.128560199998901,15292,0.028809,-0.075195,1.040283,3.503817,3.145038,0.045802,1.043395,4.708513,834,1499,665,834,1,46.595,13,normal
1780591603.0717978,15.159780299989507,15324,0.031006,0.0,1.04834,0.442748,2.687023,-0.450382,1.048798,2.760247,836,1502,666,836,0,46.595,10,normal
1780591603.103213,15.191195599996718,15355,0.026611,-0.012207,1.057129,1.19084,3.045802,-1.305344,1.057534,3.521211,837,1504,667,837,0,46.595,9,normal
1780591603.1339335,15.221915999994962,15386,0.031006,-0.016113,1.053467,3.854962,3.122137,-0.557252,1.054046,4.991894,838,1507,669,838,1,46.595,15,normal
1780591603.1650045,15.252986899999087,15417,0.040527,0.003418,1.040527,0.40458,2.320611,-0.770992,1.041322,2.478578,840,1510,670,840,0,46.595,9,normal
1780591603.2151065,15.303088999993633,15448,0.026611,-0.05127,1.055908,1.740458,2.29771,-1.145038,1.057487,3.101576,841,1512,671,841,0,71.713,9,normal
1780591603.2275255,15.31550789999892,15479,0.042725,-0.002686,1.057129,3.801527,2.885496,-0.290076,1.057995,4.781406,842,1515,673,842,1,71.713,14,normal
1780591603.2581606,15.346143100003246,15510,0.040039,-0.006104,1.044678,-0.236641,3.145038,-0.465649,1.045462,3.188118,844,1518,674,844,0,71.713,9,normal
1780591603.2898722,15.377854699996533,15541,0.027344,-0.052734,1.058838,1.389313,2.648855,-0.870229,1.060503,3.115112,845,1521,676,845,1,71.713,14,normal
1780591603.3239908,15.411973299997044,15575,0.041748,-0.017334,1.050049,2.732824,2.664122,-0.816794,1.051021,3.902951,854,1534,680,854,0,71.713,1,normal
1780591603.3548605,15.442842899996322,15606,0.028564,0.000732,1.059082,0.503817,2.755725,-1.099237,1.059467,3.009348,855,1536,681,855,0,71.713,9,normal
1780591603.3863764,15.474358699997538,15637,0.02124,-0.052734,1.056641,2.656489,2.694656,0.015267,1.058169,3.783958,856,1539,683,856,1,71.713,14,normal
1780591603.4159453,15.50392770000326,15668,0.036621,0.006592,1.051758,1.40458,2.832061,-0.625954,1.052416,3.222613,858,1542,684,858,0,71.713,9,normal
1780591603.448704,15.536686499995994,15699,0.048096,-0.016846,1.072998,0.473282,2.687023,-1.19084,1.074208,2.976942,859,1544,685,859,0,71.713,9,normal
1780591603.4794898,15.567472299997462,15731,0.062012,-0.049072,1.042236,3.167939,3.343511,-0.152672,1.045232,4.608494,860,1547,687,860,1,71.713,14,normal
1780591603.5118177,15.599800099997083,15762,0.060303,-0.01001,1.0354,0.282443,2.740458,-0.503817,1.037203,2.800663,862,1550,688,862,0,71.713,10,normal
1780591603.5412219,15.62920419999864,15793,0.038086,-0.03833,1.074707,1.167939,2.770992,-0.969466,1.076065,3.159485,863,1552,689,863,0,71.713,9,normal
1780591603.5735717,15.661553999991156,15824,0.047852,-0.02124,1.065918,3.580153,3.274809,-0.29771,1.067203,4.861121,864,1555,691,864,1,71.713,14,normal
1780591603.6029139,15.69089630000235,15855,0.036377,-0.012695,1.034912,0.19084,2.519084,-0.603053,1.035629,2.597283,866,1558,692,866,0,71.713,9,normal
1780591603.6342704,15.722252799998387,15886,0.035889,-0.04126,1.057617,1.29771,2.618321,-1.015267,1.05903,3.09361,867,1560,693,867,0,71.713,9,normal
1780591603.6650727,15.753054999993765,15916,0.053955,-0.013184,1.063965,3.21374,3.442748,-0.305344,1.065414,4.71952,868,1563,695,868,1,71.713,14,normal
1780591603.693472,15.781454399999348,15947,0.046387,-0.003662,1.043213,-0.015267,2.48855,-1.045802,1.04425,2.69941,870,1566,696,870,0,71.713,9,normal
1780591603.7265007,15.814483199996175,15977,0.033691,-0.036133,1.064941,1.389313,2.610687,-1.145038,1.066087,3.171276,871,1568,697,871,0,43.165,9,normal
1780591603.7567506,15.844733099991572,16008,0.045898,-0.031006,1.047852,3.305344,3.374046,-0.122137,1.049314,4.72487,872,1571,699,872,1,43.165,14,normal
1780591603.7869668,15.874949299992295,16039,0.062988,-0.010742,1.051514,0.305344,2.687023,-0.679389,1.053453,2.78835,874,1574,700,874,0,43.165,9,normal
1780591603.818481,15.906463299994357,16069,0.054932,-0.017822,1.079346,1.259542,2.534351,-1.320611,1.08089,3.123042,875,1576,701,875,0,43.165,9,normal
1780591603.848154,15.936136499993154,16100,0.053467,-0.023193,1.056641,3.358779,3.137405,-0.282443,1.058247,4.604832,876,1579,703,876,1,43.165,13,normal
1780591603.879916,15.967898299990338,16131,0.065674,-0.011963,1.046875,0.061069,2.519084,-0.320611,1.049001,2.540139,878,1582,704,878,0,43.165,9,normal
1780591603.9113405,15.999322899995605,16162,0.046387,-0.037109,1.074463,1.175572,2.435115,-1.526718,1.076104,3.105257,879,1584,705,879,0,43.165,9,normal
1780591603.9414792,16.029461699989042,16193,0.037109,-0.026367,1.034668,3.793893,3.10687,-0.061069,1.035669,4.90408,881,1589,708,881,1,43.165,13,normal
1780591603.9740348,16.062017099990044,16224,0.041992,-0.010742,1.032959,0.129771,2.664122,-0.59542,1.033868,2.732931,883,1592,709,883,0,43.165,10,normal
1780591604.002032,16.09001439998974,16255,0.023682,-0.052002,1.063477,1.961832,2.40458,-1.183206,1.065011,3.32126,884,1594,710,884,0,46.763,9,normal
1780591604.0343134,16.12229590000061,16285,0.053467,-0.015625,1.059082,4.167938,3.282443,0.328244,1.060546,5.315439,885,1597,712,885,1,46.763,14,normal
1780591604.0652878,16.15327019999677,16317,0.023926,0.012451,1.034424,-0.816794,3.038168,-0.633588,1.034775,3.209214,887,1600,713,887,0,46.763,9,normal
1780591604.0967288,16.184711299996707,16348,0.0354,-0.064453,1.050537,1.80916,2.473282,-0.847328,1.053108,3.179332,888,1603,715,888,1,46.763,14,normal
1780591604.1275592,16.215541500001564,16379,0.036865,-0.005859,1.064941,3.381679,2.908397,-0.458015,1.065595,4.483782,889,1605,716,889,1,46.763,13,normal
1780591604.1725526,16.260534899993218,16410,0.069092,0.015869,1.047119,0.068702,3.641221,-0.59542,1.049516,3.690222,891,1608,717,891,0,46.763,9,normal
1780591604.1902328,16.278215199999977,16441,0.016357,-0.071045,1.041504,2.320611,2.427481,-0.251908,1.044052,3.367693,892,1611,719,892,1,46.763,14,normal
1780591604.222789,16.310771399992518,16474,0.052979,-0.022949,1.069824,2.335878,2.244275,-0.816794,1.071381,3.340696,904,1624,720,904,0,46.763,0,normal
1780591604.2550042,16.34298659999331,16506,0.026855,-0.018555,1.062256,0.610687,2.664122,-0.824427,1.062757,2.85485,905,1626,721,905,0,83.665,9,normal
1780591604.2863066,16.37428910000017,16537,0.035889,-0.036865,1.050293,3.687023,3.198473,0.229008,1.051552,4.88639,906,1629,723,906,1,83.665,14,normal
1780591604.3173602,16.405342500002007,16569,0.030029,-0.001709,1.031738,0.099237,2.725191,-1.022901,1.032177,2.912531,908,1632,724,908,0,83.665,9,normal
1780591604.3478422,16.435824699990917,16600,0.044922,-0.057373,1.053955,1.374046,2.519084,-1.0,1.056471,3.038715,909,1634,725,909,0,83.665,9,normal
1780591604.380333,16.468315299993264,16631,0.033691,0.000488,1.039307,3.839695,3.274809,-0.038168,1.039853,5.046691,910,1637,727,910,1,83.665,14,normal
1780591604.409983,16.497965299990028,16662,0.024414,0.007324,1.036621,-0.076336,2.694656,-0.648855,1.036934,2.772726,912,1640,728,912,0,83.665,9,normal
1780591604.442687,16.530669400002807,16693,0.030273,-0.05542,1.066894,1.427481,2.083969,-1.091603,1.068762,2.751768,914,1644,730,914,0,83.665,0,normal
1780591604.473968,16.561950499992236,16724,0.050293,-0.00708,1.063477,3.450382,3.465649,-0.465649,1.064689,4.912503,916,1647,731,916,1,83.665,13,normal
1780591604.5035346,16.591516899992712,16755,0.027588,0.007324,1.044434,-0.435114,3.19084,-0.534351,1.044824,3.264401,918,1650,732,918,0,83.665,9,normal
1780591604.5346673,16.622649700002512,16786,0.026611,-0.076904,1.046143,1.931298,2.167939,-0.557252,1.049303,2.956417,919,1653,734,919,1,50.0,14,normal
1780591604.57147,16.659452499996405,16823,0.024658,-0.009521,1.061523,2.656489,2.603053,-0.656489,1.061852,3.776744,921,1656,735,921,0,50.0,15,normal
1780591604.6020246,16.69000689999666,16854,0.031494,-0.050049,1.057129,1.70229,2.633588,-1.267176,1.058782,3.382205,922,1658,736,922,0,50.0,8,normal
1780591604.631861,16.719843500002753,16885,0.051758,-0.004639,1.051025,3.473282,3.206107,-0.206107,1.052309,4.73131,923,1661,738,923,1,50.0,14,normal
1780591604.6633463,16.751328799990006,16915,0.037598,-0.011963,1.029053,0.198473,2.305344,-1.007634,1.029809,2.523752,925,1664,739,925,0,50.0,9,normal
1780591604.6943545,16.782336899996153,16946,0.027344,-0.043457,1.062012,1.824428,2.801527,-1.114504,1.063252,3.52409,926,1666,740,926,0,50.0,9,normal
1780591604.7245967,16.812579199991887,16977,0.04834,-0.000244,1.061035,3.526718,3.007634,-0.229008,1.062136,4.640694,927,1669,742,927,1,50.0,14,normal
1780591604.7547297,16.842712099998607,17007,0.064453,-0.015381,1.029297,0.0,2.709924,-0.557252,1.031428,2.766626,929,1672,743,929,0,50.0,9,normal
1780591604.7853632,16.87334559998999,17037,0.041016,-0.018555,1.06665,1.290076,2.603053,-0.610687,1.0676,2.96869,930,1674,744,930,0,43.825,9,normal
1780591604.8172374,16.90521979999903,17068,0.058594,-0.030762,1.063721,3.206107,3.312977,-0.229008,1.065777,4.615992,931,1677,746,931,1,43.825,14,normal
1780591604.8478143,16.93579679999675,17099,0.041016,-0.007813,1.033936,0.099237,2.381679,-0.748092,1.034778,2.498377,933,1680,747,933,0,43.825,9,normal
1780591604.8789244,16.966906899993774,17130,0.061279,-0.034912,1.065918,1.427481,2.709924,-1.122137,1.068249,3.26199,934,1682,748,934,0,43.825,9,normal
1780591604.9093862,16.99736860000121,17161,0.064209,-0.006348,1.069336,3.48855,3.290076,0.145038,1.071281,4.79746,935,1685,750,935,1,43.825,13,normal
1780591604.9410791,17.029061499997624,17192,0.049805,0.002197,1.054932,0.29771,2.427481,-0.48855,1.056109,2.493988,937,1688,751,937,0,43.825,9,normal
1780591604.9727185,17.060700899994117,17223,0.02417,-0.029297,1.064697,1.671756,2.633588,-0.969466,1.065374,3.26656,938,1690,752,938,0,43.825,8,normal
1780591605.00262,17.090602299998864,17254,0.049072,-0.002686,1.050293,3.229008,3.427481,-0.259542,1.051442,4.716088,939,1693,754,939,1,43.825,13,normal
1780591605.03358,17.121562599990284,17285,0.031982,0.010742,1.040772,-0.206107,2.923664,-0.641221,1.041318,3.000243,941,1696,755,941,0,43.825,10,normal
1780591605.0645146,17.152497099988977,17316,0.035156,-0.067383,1.051514,1.358779,2.427481,-0.748092,1.054257,2.880726,942,1699,757,942,1,43.011,15,normal
1780591605.095245,17.183227299989085,17347,0.062256,-0.009521,1.066894,3.389313,2.770992,-0.633588,1.068752,4.423491,943,1701,758,943,1,43.011,13,normal
1780591605.1265209,17.214503399998648,17378,0.025879,0.01001,1.029785,-0.099237,3.473282,-0.580153,1.030159,3.522799,945,1704,759,945,0,43.011,9,normal
1780591605.158117,17.246099399999366,17409,0.041016,-0.067871,1.057617,2.572519,2.992366,0.091603,1.060586,3.947214,946,1707,761,946,1,43.011,14,normal
1780591605.1886573,17.27663959999336,17440,0.029785,-0.017334,1.054199,2.969466,2.839695,-0.381679,1.054762,4.126412,947,1709,762,947,1,43.011,12,normal
1780591605.2193778,17.307360099992366,17471,0.065674,0.006104,1.061523,-0.549618,3.21374,-0.900763,1.06357,3.382541,949,1712,763,949,0,43.011,9,normal
1780591605.2507443,17.33872669999255,17502,0.04834,-0.046387,1.067627,2.801527,2.618321,-0.137405,1.069727,3.837061,950,1715,765,950,1,43.011,14,normal
1780591605.2830994,17.37108189999708,17534,0.032471,0.020752,1.05127,1.954198,2.427481,-0.687023,1.051976,3.191168,952,1718,766,952,0,43.011,10,normal
1780591605.314329,17.402311400001054,17566,0.031738,-0.010254,1.064453,0.603053,2.709924,-1.236641,1.064976,3.039184,953,1720,767,953,0,44.0,9,normal
1780591605.345426,17.43340840000019,17597,0.046631,-0.062256,1.051514,3.335878,3.160305,-0.099237,1.054387,4.596244,954,1723,769,954,1,44.0,14,normal
1780591605.3769326,17.46491499998956,17628,0.050537,0.004883,1.036133,0.984733,2.648855,-0.664122,1.037376,2.902962,956,1726,770,956,0,44.0,9,normal
1780591605.4067733,17.49475579999853,17659,0.049805,-0.008301,1.077637,0.519084,2.572519,-1.129771,1.078819,2.857216,957,1728,771,957,0,44.0,9,normal
1780591605.4375947,17.525577099993825,17689,0.034912,-0.063721,1.030762,2.839695,2.748092,0.137405,1.033319,3.954081,958,1731,773,958,1,44.0,14,normal
1780591605.467556,17.55553830000281,17720,0.018555,0.0,1.049072,1.549618,2.328244,-0.664122,1.049236,2.87456,960,1734,774,960,0,44.0,9,normal
1780591605.4986138,17.586596199995256,17750,0.037842,-0.000488,1.070312,0.21374,2.793893,-1.465649,1.070981,3.162222,961,1736,775,961,0,44.0,9,normal
1780591605.5292623,17.617244799999753,17781,0.033936,-0.046387,1.049561,2.78626,3.221374,-0.152672,1.051133,4.261901,962,1739,777,962,1,44.0,14,normal
1780591605.5608609,17.648843199989642,17812,0.039551,0.006348,1.047363,1.366412,2.633588,-0.412214,1.048129,2.995461,964,1742,778,964,0,44.0,9,normal
1780591605.590511,17.67849340000248,17842,0.033447,-0.000977,1.055176,0.312977,2.725191,-1.519084,1.055706,3.13564,965,1744,779,965,0,43.478,10,normal
1780591605.621479,17.709461499995086,17873,0.031494,-0.047852,1.049316,2.969466,2.732824,-0.137405,1.050879,4.037937,966,1747,781,966,1,43.478,14,normal
1780591605.6532958,17.74127810000209,17904,0.026611,0.013916,1.050781,1.557252,2.587786,-0.793893,1.05121,3.122809,968,1750,782,968,0,43.478,9,normal
1780591605.6846123,17.77259480000066,17935,0.026367,-0.006104,1.072022,0.763359,2.610687,-1.51145,1.072363,3.111734,969,1752,783,969,0,43.478,9,normal
1780591605.7154398,17.803422099997988,17966,0.051025,-0.056152,1.041992,2.862595,3.328244,-0.221374,1.044751,4.395528,970,1755,785,970,1,43.478,14,normal
1780591605.7455666,17.833549099988886,17997,0.052246,-0.012939,1.04541,1.198473,2.755725,-0.465649,1.046795,3.040919,972,1758,786,972,0,43.478,10,normal
1780591605.7781026,17.866085000001476,18028,0.05249,-0.024414,1.065918,0.89313,2.526718,-1.198473,1.067489,2.935698,973,1760,787,973,0,43.478,9,normal
1780591605.8083446,17.896327099995688,18059,0.02832,-0.047852,1.036377,3.160305,2.877863,-0.526718,1.037868,4.306629,974,1763,789,974,1,43.478,14,normal
1780591605.8380218,17.926004199995077,18090,0.063232,0.002686,1.037842,0.717557,3.480916,-0.335878,1.03977,3.569941,976,1766,790,976,0,43.478,9,normal
1780591605.868907,17.956889399996726,18121,0.044189,-0.020752,1.080811,1.152672,2.648855,-0.847328,1.081912,3.01049,977,1768,791,977,0,43.011,9,normal
1780591605.9015033,17.989485699989018,18152,0.054199,-0.030029,1.041748,3.175573,3.083969,-0.10687,1.043589,4.427928,978,1771,793,978,1,43.011,13,normal
1780591605.931317,18.019299499996123,18183,0.074707,-0.024658,1.058106,0.59542,2.656489,-0.625954,1.061026,2.793434,980,1774,794,980,0,43.011,9,normal
1780591605.9628484,18.05083089999971,18214,0.043701,-0.029053,1.069336,1.206107,2.656489,-0.961832,1.070623,3.071929,981,1776,795,981,0,43.011,9,normal
1780591605.9940534,18.08203579999099,18245,0.026367,-0.018311,1.044189,3.358779,3.496183,-0.541985,1.044683,4.878364,982,1779,797,982,1,43.011,14,normal
1780591606.0241685,18.112150799992378,18276,0.034424,-0.01001,1.033447,0.396947,2.473282,-0.526718,1.034069,2.559712,984,1782,798,984,0,43.011,9,normal
1780591606.0562277,18.144209999998566,18307,0.037842,-0.049805,1.060547,2.076336,2.435115,-1.099237,1.06239,3.383678,985,1784,799,985,0,43.011,9,normal
1780591606.0861871,18.174169599995366,18338,0.060059,-0.008301,1.05542,3.282443,3.206107,-0.465649,1.05716,4.611982,986,1787,801,986,1,43.011,14,normal
1780591606.1176796,18.205661999993026,18369,0.037842,0.003662,1.038818,0.312977,2.954198,-0.725191,1.039514,3.057964,988,1790,802,988,0,43.011,9,normal
1780591606.151023,18.239005299998098,18400,0.044434,-0.077637,1.04834,1.847328,2.419847,-0.625954,1.052149,3.10807,989,1793,804,989,1,43.011,14,normal
1780591606.181643,18.26962549999007,18433,0.033203,-0.016602,1.06665,2.450382,2.572519,-0.862595,1.067296,3.655994,992,1802,810,992,0,43.011,0,normal
1780591606.2126367,18.300619200002984,18464,0.038818,-0.013916,1.063965,-0.267176,2.89313,-0.984733,1.064764,3.067781,993,1804,811,993,0,43.011,9,normal
1780591606.2432487,18.331231099989964,18495,0.064941,-0.047852,1.059082,2.862595,2.656489,-0.335878,1.06215,3.919719,994,1807,813,994,1,43.011,14,normal
1780591606.2749474,18.36292980000144,18526,0.019775,0.010986,1.044189,1.862595,2.244275,-0.763359,1.044434,3.014755,996,1810,814,996,0,43.011,9,normal
1780591606.3063807,18.394363200000953,18558,0.020264,-0.006348,1.060547,0.450382,2.167939,-1.564886,1.060759,2.711396,997,1812,815,997,0,43.011,9,normal
1780591606.3386981,18.42668049999338,18589,0.062744,-0.070557,1.050293,3.442748,3.099237,-0.068702,1.054528,4.632764,998,1815,817,998,1,43.011,14,normal
1780591606.3696678,18.45765019999817,18621,0.065674,-0.001953,1.046875,-0.022901,2.748092,-0.717557,1.048935,2.84032,1000,1818,818,1000,0,43.011,10,normal
1780591606.4023423,18.490324699989287,18652,0.054443,-0.031982,1.070312,1.099237,2.343511,-1.137405,1.072173,2.827376,1001,1820,819,1001,0,47.619,10,normal
1780591606.4317088,18.519691199995577,18683,0.068359,-0.040527,1.041016,3.435115,3.374046,0.091603,1.044044,4.815868,1002,1823,821,1002,1,47.619,14,normal
1780591606.4632854,18.551267799994093,18714,0.060303,-0.007324,1.043457,0.19084,2.969466,-0.755725,1.045224,3.07006,1004,1826,822,1004,0,47.619,9,normal
1780591606.4947708,18.58275319999666,18745,0.040527,-0.037109,1.070557,1.389313,2.770992,-1.236641,1.071966,3.337345,1005,1828,823,1005,0,47.619,9,normal
1780591606.5262678,18.61425009999948,18777,0.044189,-0.005127,1.065186,3.091603,2.755725,-0.465649,1.066114,4.167596,1006,1831,825,1006,1,47.619,14,normal
1780591606.5571856,18.64516809998895,18808,0.063477,0.008301,1.040039,0.022901,3.427481,-0.580153,1.042007,3.47631,1008,1834,826,1008,0,47.619,9,normal
1780591606.5892477,18.67723020000267,18839,0.042236,-0.062988,1.064453,1.419847,2.572519,-0.664122,1.067151,3.012454,1009,1837,828,1009,1,47.619,14,normal
1780591606.619552,18.707534200002556,18870,0.044678,-0.00708,1.068115,3.022901,2.793893,-0.572519,1.069073,4.155905,1010,1839,829,1010,1,47.619,13,normal
1780591606.6496277,18.737610199998016,18901,0.071533,0.009033,1.055908,-0.114504,3.267176,-0.366412,1.058367,3.289651,1012,1842,830,1012,0,47.619,10,normal
1780591606.6820571,18.77003960000002,18932,0.050049,-0.047119,1.04834,2.175573,2.274809,-0.305344,1.050591,3.162453,1013,1845,832,1013,1,42.857,14,normal
1780591606.7142076,18.802190000002156,18965,0.028076,0.003418,1.059326,2.435115,2.564885,-0.442748,1.059704,3.56433,1022,1855,833,1022,0,42.857,1,normal
1780591606.744006,18.83198839999386,18996,0.007324,0.000732,1.064209,0.557252,2.290076,-1.587786,1.064234,2.841838,1023,1857,834,1023,0,42.857,9,normal
1780591606.7765772,18.864559599998756,19027,0.034912,-0.056641,1.052734,2.923664,2.358779,0.022901,1.054835,3.756617,1024,1860,836,1024,1,42.857,14,normal
1780591606.8070848,18.8950671999919,19058,0.040771,0.012207,1.053223,1.648855,2.145038,-0.473282,1.054082,2.746618,1026,1863,837,1026,0,42.857,9,normal
1780591606.8378077,18.92579009999463,19089,0.013672,0.000732,1.068359,0.78626,2.633588,-1.335878,1.068447,3.055906,1027,1865,838,1027,0,42.857,10,normal
1780591606.8686838,18.956666199999745,19120,0.040771,-0.046875,1.049805,3.0,3.152672,-0.068702,1.051641,4.352478,1028,1868,840,1028,1,42.857,14,normal
1780591606.8982565,18.986238999990746,19150,0.054199,0.005371,1.05542,1.793893,2.045802,-0.961832,1.056824,2.88591,1030,1871,841,1030,0,42.857,8,normal
1780591606.9299119,19.017894299991895,19181,0.026855,-0.012939,1.062256,0.389313,2.557252,-1.519084,1.062674,2.999786,1032,1875,843,1032,0,42.857,0,normal
1780591606.960896,19.048878399989917,19212,0.030029,-0.052246,1.039307,3.022901,3.038168,0.068702,1.041052,4.286387,1033,1878,845,1033,1,71.429,14,normal
1780591606.9917538,19.079736200001207,19243,0.052979,-0.00708,1.044922,1.183206,2.89313,-0.816794,1.046288,3.230686,1035,1881,846,1035,0,71.429,9,normal
1780591607.023146,19.111128399992594,19274,0.025635,-0.017334,1.061279,1.030534,2.458015,-1.335878,1.06173,2.981344,1036,1883,847,1036,0,71.429,9,normal
1780591607.0550027,19.14298509999935,19306,0.051758,-0.02417,1.052002,3.343511,3.526718,-0.282443,1.053552,4.867913,1037,1886,849,1037,1,71.429,14,normal
1780591607.0856826,19.1736649999948,19337,0.046387,-0.023926,1.040039,-0.167939,3.175573,-0.183206,1.041348,3.185283,1039,1889,850,1039,0,71.429,10,normal
1780591607.1174731,19.205455599993,19368,0.050537,-0.026855,1.068359,1.534351,2.694656,-1.053435,1.069891,3.274925,1040,1891,851,1040,0,71.429,10,normal
1780591607.148653,19.236635499997647,19399,0.055908,-0.031494,1.058838,3.51145,3.145038,-0.183206,1.06078,4.717532,1041,1894,853,1041,1,71.429,13,normal
1780591607.179902,19.267884599990794,19430,0.054932,-0.013672,1.040039,-0.022901,2.687023,-0.641221,1.041578,2.762568,1043,1897,854,1043,0,71.429,9,normal
1780591607.2102373,19.29821969999466,19461,0.037109,-0.047607,1.044678,1.91603,2.580153,-0.778626,1.04642,3.306754,1044,1899,855,1044,0,71.429,8,normal
1780591607.2411022,19.329084700002568,19492,0.023926,0.005371,1.056641,3.564885,3.358779,-0.458015,1.056925,4.919307,1045,1902,857,1045,1,42.857,14,normal
1780591607.2729075,19.36088999999629,19523,0.020752,0.012207,1.041992,-0.045802,2.984733,-0.969466,1.04227,3.138565,1047,1905,858,1047,0,42.857,9,normal
1780591607.3023055,19.39028779999353,19554,0.023682,-0.08252,1.042969,1.801527,2.40458,-0.824427,1.046496,3.115636,1048,1908,860,1048,1,42.857,14,normal
1780591607.3335724,19.421554699991248,19585,0.047852,-0.010986,1.060791,3.29771,2.725191,-0.824427,1.061926,4.356746,1049,1910,861,1049,1,42.857,14,normal
1780591607.3649757,19.452958099995158,19616,0.056396,-0.006104,1.049072,-0.152672,3.267176,-0.541985,1.050605,3.315342,1051,1913,862,1051,0,42.857,9,normal
1780591607.397425,19.485407300002407,19647,0.041992,-0.088623,1.051514,2.236641,3.022901,-0.900763,1.056077,3.866764,1052,1916,864,1052,1,42.857,14,normal
1780591607.4268608,19.514843299999484,19678,0.044189,-0.006104,1.070557,2.839695,2.839695,-0.396947,1.071486,4.035505,1053,1918,865,1053,1,42.857,13,normal
1780591607.4589794,19.54696169999079,19709,0.04248,0.013672,1.043945,-0.419847,3.015267,-0.603053,1.044899,3.103511,1055,1921,866,1055,0,42.857,9,normal
1780591607.4909594,19.5789417999913,19741,0.033691,-0.040527,1.055176,3.099237,2.946565,-0.099237,1.056491,4.277542,1056,1924,868,1056,1,42.857,14,normal
1780591607.5229135,19.610895799996797,19773,0.046875,0.009277,1.059082,1.328244,2.366412,-0.885496,1.060159,2.854513,1058,1927,869,1058,0,46.263,10,normal
1780591607.5526211,19.64060359999712,19804,0.006104,-0.004639,1.056641,0.183206,2.412214,-1.465649,1.056668,2.82851,1059,1929,870,1059,0,46.263,10,normal
1780591607.5836782,19.671660599997267,19834,0.042236,-0.030273,1.057617,2.877863,2.40458,-0.160305,1.058893,3.753638,1060,1932,872,1060,1,46.263,14,normal
1780591607.6130083,19.700990700002876,19865,0.046875,0.007324,1.048584,1.687023,2.221374,-0.694656,1.049657,2.87456,1062,1935,873,1062,0,46.263,9,normal
1780591607.6444848,19.73246719999588,19895,0.028564,-0.006592,1.054688,0.114504,3.129771,-0.549618,1.055095,3.179726,1063,1937,874,1063,0,46.263,9,normal
1780591607.6758637,19.763846200003172,19926,0.047119,-0.028076,1.051025,3.267176,2.687023,0.236641,1.052456,4.236806,1064,1940,876,1064,1,46.263,14,normal
1780591607.7079809,19.79596329999913,19958,0.019287,0.010254,1.051758,1.229008,2.236641,-0.755725,1.051985,2.661606,1066,1943,877,1066,0,46.263,9,normal
1780591607.7383087,19.82629119999183,19989,0.018555,-0.006348,1.061279,0.312977,2.748092,-1.480916,1.06146,3.137368,1067,1945,878,1067,0,46.263,10,normal
1780591607.769276,19.857258399992133,20020,0.054443,-0.068359,1.047119,3.427481,2.78626,0.007634,1.050759,4.417118,1068,1948,880,1068,1,46.263,14,normal
1780591607.8007638,19.888746299999184,20051,0.047607,0.000244,1.053467,1.396947,2.854962,-0.59542,1.054542,3.233696,1070,1951,881,1070,0,43.165,9,normal
1780591607.8307917,19.918774199992185,20082,0.030762,0.00708,1.067871,0.778626,2.740458,-1.137405,1.068338,3.067582,1071,1953,882,1071,0,43.165,10,normal
1780591607.8636613,19.951643699998385,20113,0.046387,-0.057129,1.061035,3.160305,3.167939,-0.267176,1.063584,4.482716,1072,1956,884,1072,1,43.165,14,normal
1780591607.8929775,19.980960000000778,20144,0.041504,-0.000977,1.03833,0.412214,3.290076,-0.450382,1.03916,3.346246,1074,1959,885,1074,0,43.165,9,normal
1780591607.9251196,20.013102099997923,20175,0.04834,-0.022705,1.061523,1.022901,2.381679,-0.938931,1.062866,2.756867,1075,1961,886,1075,0,43.165,9,normal
1780591607.955745,20.043727399999625,20207,0.045654,-0.000244,1.05957,3.549618,3.045802,-0.206107,1.060553,4.681792,1076,1964,888,1076,1,43.165,14,normal
1780591607.9875371,20.075519499994698,20238,0.065918,-0.015381,1.034424,-0.030534,2.496183,-0.580153,1.036636,2.562897,1078,1967,889,1078,0,43.165,9,normal
1780591608.0176501,20.10563259999617,20269,0.034668,-0.052246,1.056396,1.51145,2.29771,-0.954198,1.058256,2.911091,1079,1969,890,1079,0,43.165,9,normal
1780591608.0500863,20.13806859999022,20300,0.065674,-0.004639,1.068115,3.251908,2.847328,-0.59542,1.070142,4.363108,1080,1972,892,1080,1,43.165,13,normal
1780591608.0798151,20.16779749999114,20331,0.043213,0.007324,1.045166,-0.137405,3.114504,-0.412214,1.046084,3.144668,1082,1975,893,1082,0,42.857,9,normal
1780591608.1112437,20.19922619999852,20362,0.012207,-0.049316,1.046387,1.641221,2.274809,-0.984733,1.047619,2.972888,1083,1978,895,1083,1,42.857,14,normal
1780591608.1420355,20.230017900001258,20393,0.045166,-0.005615,1.058106,3.389313,2.839695,-0.526718,1.059084,4.452948,1084,1980,896,1084,1,42.857,13,normal
1780591608.1740344,20.26201669999864,20424,0.035156,0.008057,1.041992,0.21374,3.274809,-0.549618,1.042616,3.327482,1086,1983,897,1086,0,42.857,9,normal
1780591608.2039802,20.291962699993746,20455,0.038086,-0.079834,1.052734,1.984733,2.320611,-0.458015,1.056444,3.087746,1087,1986,899,1087,1,42.857,14,normal
1780591608.2375047,20.325487199996132,20487,0.05127,-0.013916,1.064209,3.030534,2.572519,-0.610687,1.065534,4.021807,1096,1996,900,1096,0,42.857,0,normal
1780591608.2666957,20.354678099989542,20518,0.075195,-0.005859,1.05957,-0.229008,3.198473,-1.19084,1.062251,3.42064,1097,1998,901,1097,0,42.857,9,normal
1780591608.2987864,20.386768700001994,20549,0.060547,-0.045654,1.058838,2.419847,2.618321,-0.290076,1.06155,3.577067,1098,2001,903,1098,1,42.857,13,normal
1780591608.3290648,20.417047199996887,20580,0.031006,-0.009521,1.054199,2.091603,2.320611,-0.717557,1.054698,3.205453,1100,2004,904,1100,0,42.857,10,normal
1780591608.3596952,20.447677599993767,20611,0.009521,0.005615,1.051758,0.305344,2.916031,-1.007634,1.051816,3.10029,1101,2006,905,1101,0,67.857,9,normal
1780591608.391373,20.47935539999162,20641,0.064209,-0.040039,1.058106,2.801527,2.587786,-0.10687,1.060808,3.815313,1102,2009,907,1102,1,67.857,14,normal
1780591608.4206793,20.508661699990625,20672,0.029297,-0.02002,1.059814,2.015267,2.557252,-0.496183,1.060408,3.293484,1104,2012,908,1104,0,67.857,9,normal
1780591608.4535885,20.54157089999353,20703,0.045898,-0.016113,1.067627,0.519084,2.503817,-1.061069,1.068734,2.768468,1105,2014,909,1105,0,67.857,9,normal
1780591608.4829953,20.570977800001856,20734,0.041016,-0.0271,1.047852,2.656489,2.290076,-0.259542,1.049004,3.516922,1107,2019,912,1107,1,67.857,14,normal
1780591608.5149493,20.60293169999204,20765,0.030273,-0.007568,1.054199,1.961832,2.450382,-0.51145,1.054661,3.180368,1109,2022,913,1109,0,67.857,9,normal
1780591608.5457048,20.63368719999562,20796,0.014893,-0.007324,1.051758,0.267176,2.21374,-1.419847,1.051889,2.643482,1110,2024,914,1110,0,67.857,9,normal
1780591608.5770798,20.665062200001557,20827,0.053467,-0.04834,1.044922,2.862595,2.725191,0.038168,1.047405,3.95254,1111,2027,916,1111,1,67.857,14,normal
1780591608.6055765,20.69355889999133,20858,0.042725,0.00708,1.049805,1.412214,2.274809,-0.946565,1.050698,2.83991,1113,2030,917,1113,0,67.857,10,normal
1780591608.6369023,20.724884700000985,20888,0.018066,0.000977,1.06958,0.21374,2.603053,-1.236641,1.069733,2.889784,1114,2032,918,1114,0,46.931,10,normal
1780591608.669354,20.757336399998167,20919,0.020508,-0.056885,1.049805,2.648855,2.717557,-0.251908,1.051545,3.803289,1115,2035,920,1115,1,46.931,14,normal
1780591608.6992872,20.787269699998433,20951,0.028564,0.007813,1.053955,0.877863,2.725191,-0.312977,1.054371,2.88015,1117,2038,921,1117,0,46.931,9,normal
1780591608.7315185,20.81950089999009,20982,0.02002,-0.02417,1.068359,0.992366,2.312977,-1.221374,1.06882,2.797572,1118,2040,922,1118,0,46.931,9,normal
1780591608.7615983,20.849580800000695,21013,0.065186,-0.050049,1.039307,3.412214,2.641221,0.145038,1.042551,4.31744,1119,2043,924,1119,1,46.931,14,normal
1780591608.7941742,20.8821564999962,21044,0.049561,-0.003174,1.041992,0.709924,2.343511,-0.236641,1.043175,2.460089,1123,2048,925,1123,0,46.931,9,normal
1780591608.8251064,20.913088799992693,21075,0.032471,-0.019287,1.071289,1.053435,2.541985,-1.465649,1.071955,3.117617,1124,2050,926,1124,0,46.931,9,normal
1780591608.8565562,20.94453870000143,21106,0.040527,-0.011963,1.062012,3.694656,3.053435,-0.236641,1.062852,4.798954,1125,2053,928,1125,1,46.931,14,normal
1780591608.8865507,20.97453300000052,21137,0.035889,-0.003418,1.037109,0.061069,2.748092,-0.366412,1.037736,2.773084,1127,2056,929,1127,0,46.931,9,normal
1780591608.9169683,21.00495069999306,21168,0.033691,-0.046387,1.059082,1.145038,2.496183,-1.152672,1.060633,2.978371,1128,2058,930,1128,0,50.0,9,normal
1780591608.947648,21.0356305000023,21199,0.065674,-0.021729,1.061523,3.923664,3.022901,-0.183206,1.063775,4.956474,1129,2061,932,1129,1,50.0,13,normal
1780591608.979889,21.067871299994295,21230,0.039551,0.009277,1.039795,-0.091603,2.870229,-0.80916,1.040588,2.983512,1131,2064,933,1131,0,50.0,9,normal
1780591609.009877,21.09785939998983,21261,0.044189,-0.039307,1.058838,1.183206,2.78626,-0.954198,1.060488,3.173912,1132,2066,934,1132,0,50.0,8,normal
1780591609.041414,21.129396499993163,21292,0.039062,-0.009033,1.059326,3.480916,3.206107,-0.29771,1.060085,4.741785,1133,2069,936,1133,1,50.0,13,normal
1780591609.0718746,21.159857099992223,21323,0.027344,0.003418,1.040527,0.152672,3.19084,-0.687023,1.040892,3.267532,1136,2074,938,1136,0,50.0,0,normal
1780591609.1029835,21.1909658999939,21354,0.04126,-0.047852,1.064941,1.328244,2.580153,-1.290076,1.066814,3.175802,1137,2077,940,1137,1,50.0,14,normal
1780591609.134166,21.222148300003028,21385,0.058594,-0.009277,1.058106,3.358779,2.770992,-0.496183,1.059767,4.382464,1138,2079,941,1138,1,50.0,14,normal
1780591609.1645403,21.252522700000554,21415,0.028076,0.013672,1.043213,0.152672,3.022901,-0.236641,1.04368,3.03599,1140,2082,942,1140,0,50.0,9,normal
1780591609.1962624,21.284244800001034,21446,0.040039,-0.070312,1.053711,1.419847,2.381679,-0.923664,1.056813,2.922588,1141,2084,943,1141,1,46.763,7,normal
1780591609.2261846,21.31416699998954,21477,0.055664,0.001221,1.065186,3.435115,3.068702,-0.770992,1.06664,4.670265,1143,2087,944,1143,1,46.763,13,normal
1780591609.2566366,21.344619099996635,21508,0.058594,0.000977,1.046875,-0.48855,3.290076,-0.679389,1.048514,3.394827,1145,2090,945,1145,0,46.763,9,normal
1780591609.2888231,21.37680559999717,21539,0.037354,-0.077148,1.055908,1.900763,2.603053,-0.267176,1.059382,3.234219,1146,2093,947,1146,1,46.763,14,normal
1780591609.32134,21.409322599996813,21571,0.040771,-0.023193,1.055908,2.854962,2.625954,-0.862595,1.05695,3.973728,1147,2095,948,1147,1,46.763,12,normal
1780591609.3503149,21.438297200002125,21602,0.063965,-0.004639,1.068604,-0.137405,3.320611,-0.961832,1.070526,3.459835,1149,2098,949,1149,0,46.763,10,normal
1780591609.3827496,21.47073190000083,21633,0.059326,-0.044189,1.054688,2.557252,3.038168,-0.198473,1.057279,3.976103,1151,2103,952,1151,1,46.763,14,normal
1780591609.4139886,21.50197109999135,21665,0.030029,-0.016602,1.053223,2.21374,2.603053,-0.740458,1.053781,3.4964,1160,2113,953,1160,0,46.763,1,normal
1780591609.4444957,21.532477999993716,21696,0.007813,-0.002686,1.054443,0.10687,2.51145,-0.80916,1.054476,2.640747,1161,2115,954,1161,0,80.0,9,normal
1780591609.475366,21.563348499999847,21726,0.05835,-0.042236,1.04126,2.610687,2.633588,0.236641,1.043748,3.71584,1162,2118,956,1162,1,80.0,14,normal
1780591609.5058227,21.59380499999679,21757,0.055908,-0.007568,1.060547,1.900763,2.076336,-1.053435,1.062046,3.005628,1164,2121,957,1164,0,80.0,10,normal
1780591609.537677,21.625659400000586,21788,0.026855,0.004639,1.062988,0.282443,2.343511,-1.320611,1.063338,2.704779,1165,2123,958,1165,0,80.0,9,normal
1780591609.5678368,21.655819099993096,21819,0.041016,-0.05957,1.052002,2.923664,2.618321,-0.091603,1.054485,3.925787,1166,2126,960,1166,1,80.0,14,normal
1780591609.6002388,21.68822129999171,21850,0.045898,-0.014404,1.040772,1.320611,2.328244,-0.709924,1.041883,2.769246,1168,2129,961,1168,0,80.0,9,normal
1780591609.6314783,21.719460699998308,21882,0.030273,-0.019775,1.070312,1.068702,2.374046,-1.412214,1.070923,2.961852,1169,2131,962,1169,0,80.0,10,normal
1780591609.6621225,21.750104899998405,21913,0.040771,-0.03833,1.058594,3.167939,2.908397,-0.167939,1.060072,4.303814,1170,2134,964,1170,1,80.0,13,normal
1780591609.6928375,21.780819899999187,21944,0.031006,-0.003906,1.025146,0.412214,2.862595,-0.305344,1.025623,2.908196,1172,2137,965,1172,0,80.0,9,normal
1780591609.7255228,21.81350519999978,21975,0.053467,-0.020752,1.073486,1.389313,2.732824,-0.908397,1.075017,3.197453,1173,2139,966,1173,0,43.011,8,normal
1780591609.7555997,21.843582100002095,22006,0.036377,-0.023193,1.051025,3.10687,3.251908,-0.221374,1.05191,4.50295,1174,2142,968,1174,1,43.011,14,normal
1780591609.7867086,21.87469099998998,22037,0.06543,-0.007568,1.04126,0.267176,2.633588,-0.603053,1.043341,2.714929,1176,2145,969,1176,0,43.011,9,normal
1780591609.817291,21.905273399999714,22068,0.036621,-0.037598,1.064453,1.748092,2.259542,-1.038168,1.065746,3.039596,1177,2147,970,1177,0,43.011,9,normal
1780591609.8492239,21.937206299990066,22099,0.06665,-0.001465,1.055176,3.748092,3.19084,-0.229008,1.05728,4.927686,1178,2150,972,1178,1,43.011,14,normal
1780591609.8790777,21.96706009999616,22130,0.046143,0.005127,1.044189,-0.40458,3.305344,-0.152672,1.045221,3.33351,1180,2153,973,1180,0,43.011,9,normal
1780591609.910367,21.99834939998982,22161,0.044189,-0.05835,1.071045,1.725191,2.740458,-0.854962,1.073543,3.349232,1181,2155,974,1181,0,43.011,8,normal
1780591609.9406152,22.028597600001376,22192,0.036133,-0.002197,1.062256,3.877863,2.725191,-0.648855,1.062872,4.783879,1182,2158,976,1182,1,43.011,13,normal
1780591609.973444,22.061426300002495,22223,0.049072,0.010498,1.03833,-1.030534,3.381679,-0.580153,1.039542,3.582504,1184,2163,979,1184,0,43.011,0,normal
1780591610.0034168,22.091399099997943,22254,0.039551,-0.055176,1.063721,1.633588,2.603053,-0.732824,1.065885,3.159356,1185,2166,981,1185,1,43.011,14,normal
1780591610.0337746,22.121757000000798,22285,0.047607,-0.009766,1.056152,3.419847,2.801527,-0.450382,1.05727,4.443732,1186,2168,982,1186,1,43.011,12,normal
1780591610.065282,22.153264599997783,22316,0.047119,0.015869,1.052002,-0.351145,3.19084,-0.801527,1.053176,3.308656,1188,2171,983,1188,0,43.011,9,normal
1780591610.0965977,22.184580000001006,22348,0.060059,-0.046875,1.060303,2.603053,3.030534,-0.282443,1.063036,4.004972,1189,2174,985,1189,1,43.011,13,normal
1780591610.1281881,22.21617059998971,22379,0.039551,-0.019531,1.058594,2.572519,2.801527,-0.564886,1.059512,3.845192,1191,2177,986,1191,0,43.011,9,normal
1780591610.1646154,22.252597799990326,22416,-0.001953,0.010254,1.055908,-0.076336,2.610687,-1.198473,1.05596,2.873648,1192,2180,988,1192,1,43.011,14,normal
1780591610.197758,22.28574029999436,22448,0.021973,-0.026123,1.050537,2.977099,2.854962,-0.656489,1.051091,4.17671,1202,2191,989,1202,0,43.011,0,normal
1780591610.2281275,22.31610979999823,22480,0.016602,0.005127,1.065186,0.0,2.435115,-1.679389,1.065327,2.958062,1203,2193,990,1203,0,43.011,9,normal
1780591610.2610984,22.349080799991498,22510,0.039795,-0.054443,1.05835,2.419847,2.412214,-0.450382,1.060496,3.446343,1204,2196,992,1204,1,74.219,14,normal
1780591610.291623,22.379605499998434,22542,0.037842,-0.006348,1.04834,1.19084,2.328244,-0.450382,1.049042,2.653613,1208,2201,993,1208,0,74.219,9,normal
1780591610.323135,22.411117399999057,22573,0.048584,-0.011963,1.072266,0.541985,2.526718,-1.221374,1.073432,2.858287,1209,2203,994,1209,0,74.219,9,normal
1780591610.3538992,22.441881599996123,22604,0.066895,-0.033203,1.057861,3.022901,3.030534,-0.40458,1.060494,4.299506,1210,2206,996,1210,1,74.219,14,normal
1780591610.3850074,22.47298979999323,22636,0.048096,-0.012207,1.033691,0.496183,2.717557,-0.526718,1.034882,2.81225,1212,2209,997,1212,0,74.219,10,normal
1780591610.4170725,22.505054900000687,22667,0.029785,-0.025635,1.058106,0.961832,2.709924,-1.687023,1.058835,3.333895,1213,2211,998,1213,0,74.219,10,normal
1780591610.448128,22.53611039998941,22698,0.048096,-0.017578,1.070312,3.167939,3.366412,-0.328244,1.071537,4.634254,1214,2214,1000,1214,1,74.219,14,normal
1780591610.477663,22.565645499998936,22729,0.036621,0.003906,1.031982,0.267176,2.656489,-0.450382,1.032639,2.707611,1216,2217,1001,1216,0,74.219,9,normal
1780591610.5101612,22.598143499999424,22760,0.049561,-0.039062,1.065674,1.564886,2.610687,-0.793893,1.06754,3.145603,1217,2219,1002,1217,0,52.0,9,normal
1780591610.5412476,22.629230099992128,22791,0.065674,-0.015137,1.058594,3.366412,3.282443,0.038168,1.060737,4.70198,1218,2222,1004,1218,1,52.0,14,normal
1780591610.5728438,22.660826099992846,22822,0.062988,-0.021973,1.026856,0.122137,2.816794,-0.21374,1.02902,2.827531,1220,2225,1005,1220,0,52.0,9,normal
1780591610.6029868,22.690969199989922,22853,0.037354,-0.055908,1.046631,1.549618,2.656489,-1.152672,1.048788,3.284342,1221,2228,1007,1221,1,52.0,14,normal
1780591610.6355717,22.723554199998034,22886,0.042969,-0.004395,1.069824,2.48855,2.740458,-0.687023,1.070696,3.764969,1230,2239,1009,1230,0,52.0,0,normal
1780591610.6659372,22.75391959999979,22917,0.00415,0.001709,1.053467,0.129771,2.679389,-0.954198,1.053476,2.847185,1231,2241,1010,1231,0,52.0,9,normal
1780591610.6979327,22.78591520000191,22948,0.056641,-0.056396,1.053955,2.51145,2.51145,0.038168,1.056982,3.551932,1232,2244,1012,1232,1,52.0,13,normal
1780591610.728455,22.81643739998981,22980,0.011475,-0.012939,1.063232,2.267176,2.519084,-0.389313,1.063373,3.411368,1241,2254,1013,1241,0,52.0,0,normal
1780591610.7604868,22.848469299991848,23011,0.047363,-0.01001,1.068848,0.343511,2.618321,-1.572519,1.069943,3.073503,1242,2256,1014,1242,0,99.602,9,normal
1780591610.7919207,22.879903099994408,23042,0.036621,-0.055664,1.03833,2.557252,2.854962,-0.290076,1.040466,3.84376,1243,2259,1016,1243,1,99.602,14,normal
1780591610.8226347,22.910617100002128,23073,0.023438,0.011963,1.043213,1.29771,2.687023,-0.519084,1.043545,3.028794,1245,2262,1017,1245,0,99.602,9,normal
1780591610.8515704,22.939552900003036,23103,0.021484,0.004639,1.074951,0.053435,2.206107,-1.603053,1.075176,2.727553,1246,2264,1018,1246,0,99.602,9,normal
1780591610.883742,22.97172459999274,23134,0.035645,-0.054443,1.041748,2.839695,2.534351,-0.259542,1.043778,3.814992,1247,2267,1020,1247,1,99.602,14,normal
1780591610.914204,23.002186300000176,23165,0.053711,-0.006836,1.049316,1.045802,2.312977,-0.740458,1.050712,2.644209,1249,2270,1021,1249,0,99.602,9,normal
1780591610.9456272,23.033609599995543,23196,0.032471,-0.020508,1.075195,1.022901,2.519084,-1.412214,1.075881,3.063733,1250,2272,1022,1250,0,99.602,9,normal
1780591610.975899,23.063881299996865,23227,0.020752,-0.051514,1.039307,3.099237,2.664122,-0.335878,1.040789,4.100686,1251,2275,1024,1251,1,99.602,14,normal
1780591611.00713,23.09511239999847,23258,0.041504,0.001465,1.055908,0.961832,2.854962,-0.648855,1.056725,3.081711,1253,2278,1025,1253,0,99.602,9,normal
1780591611.0384452,23.12642760000017,23289,0.05127,-0.031494,1.072998,0.725191,2.366412,-1.610687,1.074684,2.952985,1254,2280,1026,1254,0,43.165,10,normal
1780591611.0692828,23.157265200003167,23320,0.065186,-0.054443,1.05127,3.335878,3.061069,-0.259542,1.054695,4.534929,1255,2283,1028,1255,1,43.165,14,normal
1780591611.1000576,23.188039999993634,23351,0.048096,-0.010254,1.041748,-0.122137,2.381679,-0.748092,1.042908,2.499391,1257,2286,1029,1257,0,43.165,9,normal
1780591611.1317675,23.21974990000308,23382,0.02832,-0.030518,1.053955,1.274809,2.969466,-1.030534,1.054777,3.391882,1258,2288,1030,1258,0,43.165,10,normal
1780591611.1613412,23.249323700001696,23413,0.054199,-0.005371,1.065186,3.740458,3.282443,0.0,1.066577,4.97649,1259,2291,1032,1259,1,43.165,13,normal
1780591611.19186,23.27984239999205,23443,0.051514,-0.003662,1.046875,0.129771,2.78626,-0.435114,1.048148,2.823014,1261,2294,1033,1261,0,43.165,9,normal
1780591611.2242556,23.312237899997854,23474,0.044434,-0.022705,1.064209,1.045802,2.274809,-1.221374,1.065378,2.785716,1262,2296,1034,1262,0,43.165,9,normal
1780591611.2542803,23.342262699996354,23505,0.044922,-0.02417,1.056396,3.687023,3.015267,0.083969,1.057627,4.76372,1263,2299,1036,1263,1,43.165,13,normal
1780591611.285395,23.3733773999993,23536,0.050293,-0.006104,1.033936,0.389313,2.519084,-0.633588,1.035176,2.626553,1265,2302,1037,1265,0,43.165,9,normal
1780591611.316521,23.404503300000215,23567,0.038086,-0.047363,1.061279,1.290076,2.717557,-1.114504,1.063018,3.208042,1266,2304,1038,1266,0,43.165,9,normal
1780591611.3485212,23.436503699995228,23599,0.039551,0.007568,1.057129,3.572519,3.061069,-0.709924,1.057896,4.757838,1267,2307,1040,1267,1,43.165,14,normal
1780591611.3796802,23.46766249999928,23630,0.067383,0.014404,1.056152,-0.030534,3.503817,-0.351145,1.058398,3.521501,1269,2310,1041,1269,0,43.165,9,normal
1780591611.4130418,23.5010242999997,23662,0.062744,-0.046631,1.06958,2.244275,2.778626,0.015267,1.072433,3.571802,1270,2313,1043,1270,1,43.165,14,normal
1780591611.4426932,23.53067559999181,23693,0.023682,-0.02124,1.053955,2.778626,2.969466,-0.694656,1.054435,4.125656,1272,2316,1044,1272,0,43.165,9,normal
1780591611.4740946,23.562077099995804,23724,0.020996,-0.004883,1.053223,-0.236641,3.076336,-0.694656,1.053443,3.162655,1273,2318,1045,1273,0,43.165,9,normal
1780591611.5043778,23.59236019999662,23754,0.039795,-0.071289,1.036133,2.198473,2.938931,-0.503817,1.039344,3.70465,1274,2321,1047,1274,1,43.165,15,normal
1780591611.536713,23.624695199992857,23787,0.05127,-0.025391,1.064209,2.10687,2.259542,-0.610687,1.065746,3.149186,1283,2331,1048,1283,0,43.165,0,normal
1780591611.5670764,23.65505889999622,23818,0.037354,-0.005127,1.066406,0.656489,3.038168,-1.328244,1.067072,3.380188,1284,2333,1049,1284,0,71.713,9,normal
1780591611.6003053,23.688287799988757,23849,0.049316,-0.085693,1.041504,2.885496,2.832061,0.099237,1.046186,4.044318,1285,2336,1051,1285,1,71.713,14,normal
1780591611.6294265,23.717408800002886,23880,0.052979,-0.008789,1.053467,1.580153,2.366412,-0.610687,1.054835,2.91028,1287,2339,1052,1287,0,71.713,9,normal
1780591611.660731,23.748713499997393,23911,0.035889,-0.01709,1.053223,0.908397,2.236641,-1.030534,1.053972,2.624833,1288,2341,1053,1288,0,71.713,9,normal
1780591611.6913416,23.779324099989026,23942,0.049561,-0.029297,1.065186,2.954198,3.091603,0.053435,1.06674,4.276465,1289,2344,1055,1289,1,71.713,14,normal
1780591611.7227437,23.810726099996828,23974,0.057129,-0.018555,1.040039,0.312977,2.725191,-0.648855,1.041772,2.8188,1291,2347,1056,1291,0,71.713,10,normal
1780591611.75463,23.842612399996142,24005,0.026367,-0.044922,1.062988,1.251908,2.954198,-1.137405,1.064264,3.404152,1292,2349,1057,1292,0,71.713,9,normal
1780591611.7852697,23.87325219999184,24036,0.028809,-0.026123,1.045654,3.740458,3.229008,-0.015267,1.046377,4.941432,1293,2352,1059,1293,1,71.713,13,normal
1780591611.8169281,23.90491060000204,24067,0.052246,-0.023193,1.030518,-0.038168,2.946565,-0.51145,1.032102,2.990867,1295,2355,1060,1295,0,71.713,9,normal
1780591611.8467014,23.934683899991796,24098,0.047607,-0.057129,1.070312,1.465649,2.412214,-1.29771,1.072893,3.106598,1296,2357,1061,1296,0,42.857,7,normal
1780591611.8789713,23.966953800001647,24129,0.064209,-0.004395,1.061768,3.610687,2.839695,-0.389313,1.063716,4.610042,1297,2360,1063,1297,1,42.857,14,normal
1780591611.9094632,23.997445499990135,24160,0.03418,0.004395,1.029297,-0.229008,2.870229,-0.381679,1.029874,2.904538,1299,2363,1064,1299,0,42.857,9,normal
1780591611.941492,24.029474399998435,24192,0.029785,-0.08374,1.037598,1.740458,2.458015,-0.931298,1.041397,3.152514,1300,2366,1066,1300,1,42.857,14,normal
1780591611.9736404,24.061622799999896,24223,0.030762,-0.004883,1.066406,3.083969,2.877863,-0.328244,1.066861,4.230922,1301,2368,1067,1301,1,42.857,13,normal
1780591612.0045235,24.092505900000106,24254,0.067383,0.012207,1.061523,-0.076336,3.076336,-0.931298,1.06373,3.215118,1303,2371,1068,1303,0,42.857,9,normal
1780591612.0358977,24.12388009999995,24285,0.036133,-0.061035,1.037354,2.419847,2.610687,0.053435,1.039776,3.560084,1304,2374,1070,1304,1,42.857,14,normal
1780591612.0672238,24.155206199997338,24317,0.012695,-0.01709,1.047119,2.183206,3.0,-0.473282,1.047336,3.740372,1306,2377,1071,1306,0,42.857,9,normal
1780591612.0956483,24.18363079999108,24347,0.079346,0.00293,1.064697,0.091603,3.083969,-0.694656,1.067654,3.162563,1307,2379,1072,1307,0,42.857,9,normal
1780591612.1274087,24.215391099991393,24378,0.056396,-0.049316,1.063965,2.557252,2.816794,-0.366412,1.066599,3.822058,1308,2382,1074,1308,1,42.857,14,normal
1780591612.1753876,24.263370000000577,24410,0.038818,-0.022949,1.050781,2.198473,2.580153,-0.793893,1.051748,3.481485,1320,2396,1076,1320,0,42.857,0,normal
1780591612.1916335,24.279615799998282,24442,0.042236,-0.014648,1.073242,0.473282,2.603053,-1.19084,1.074173,2.901376,1321,2398,1077,1321,0,42.857,9,normal
1780591612.2225616,24.31054399999266,24473,0.043457,-0.064453,1.058106,3.091603,2.732824,-0.29771,1.060957,4.137024,1322,2401,1079,1322,1,42.857,14,normal
1780591612.2542717,24.342254099989077,24504,0.045166,0.006592,1.04248,1.08397,2.534351,-0.473282,1.043479,2.79677,1324,2404,1080,1324,0,42.857,9,normal
1780591612.2849216,24.37290399998892,24535,0.029785,-0.014404,1.064941,0.534351,2.717557,-1.358779,1.065455,3.084952,1325,2406,1081,1325,0,42.857,9,normal
1780591612.315869,24.40385139999853,24566,0.040771,-0.049561,1.04834,3.419847,2.748092,0.412214,1.050302,4.406504,1326,2409,1083,1326,1,42.857,14,normal
1780591612.3450718,24.433054299996,24597,0.032471,-0.00708,1.04248,0.419847,2.977099,-0.435114,1.04301,3.03788,1328,2412,1084,1328,0,42.857,9,normal
1780591612.3783247,24.466307199996663,24627,0.046875,-0.023926,1.081299,0.778626,2.19084,-1.59542,1.082579,2.819823,1329,2414,1085,1329,0,42.857,9,normal
1780591612.4078732,24.495855599991046,24658,0.062012,-0.045166,1.065186,3.717557,3.053435,0.053435,1.067944,4.811086,1330,2417,1087,1330,1,78.571,14,normal
1780591612.4401956,24.528177999993204,24690,0.071777,-0.01416,1.040039,0.030534,2.778626,-0.954198,1.042609,2.938059,1332,2420,1088,1332,0,78.571,9,normal
1780591612.472859,24.560841300000902,24722,0.055908,-0.056885,1.063477,1.335878,2.206107,-1.137405,1.066463,2.818717,1333,2422,1089,1333,0,78.571,9,normal
1780591612.5038545,24.59183699999994,24753,0.057129,-0.017822,1.074219,3.603053,2.580153,-0.038168,1.075884,4.431776,1335,2425,1090,1335,1,78.571,13,normal
1780591612.5340524,24.622034799991525,24785,0.042236,0.018066,1.045654,-0.290076,3.015267,-0.572519,1.046663,3.082817,1337,2428,1091,1337,0,78.571,9,normal
1780591612.5656435,24.65362599999935,24816,0.040283,-0.063965,1.052978,2.198473,2.816794,-0.374046,1.055688,3.592704,1338,2431,1093,1338,1,78.571,14,normal
1780591612.598223,24.686205299993162,24848,0.039062,-0.029541,1.054932,3.137405,2.755725,-0.419847,1.056068,4.196856,1347,2441,1094,1347,0,78.571,1,normal
