host_epoch_s,host_elapsed_s,time_ms,ax,ay,az,gx,gy,gz,acc_mag,gyro_mag,pulse_count,edge_count,rise_count,fall_count,state,pulse_rate_hz,last_edge_dt_ms,label
1780604662.452377,0.019033599994145334,222044,0.04126,-0.019531,1.056396,2.320611,2.709924,-0.351145,1.057382,3.585,7002,12275,5272,7002,0,75.269,5,normal
1780604662.4835453,0.05020179999701213,222076,0.044678,-0.031738,1.053467,-0.229008,2.946565,-0.900763,1.054891,3.089671,7003,12277,5273,7003,0,75.269,5,normal
1780604662.5149796,0.08163609998882748,222107,0.068848,-0.051514,1.045898,3.435115,3.549618,-0.389313,1.049427,4.954934,7004,12280,5275,7004,1,75.269,18,normal
1780604662.5453088,0.11196549999294803,222138,0.071533,0.006104,1.043945,1.343511,3.045802,-0.229008,1.046411,3.336821,7008,12285,5276,7008,0,75.269,5,normal
1780604662.5776665,0.14432300000044052,222169,0.052979,-0.061279,1.063477,0.015267,2.587786,-1.045802,1.066557,2.79116,7009,12288,5278,7009,1,75.269,14,normal
1780604662.608317,0.1749734999903012,222201,0.07373,-0.035645,1.05957,3.70229,3.625954,-0.244275,1.06273,5.187886,7013,12293,5279,7013,0,75.269,5,normal
1780604662.6396983,0.2063549000013154,222232,0.044189,-0.006104,1.037354,0.068702,2.206107,-0.732824,1.038312,2.325652,7014,12295,5280,7014,0,64.0,5,normal
1780604662.6697738,0.2364303999929689,222263,0.046143,-0.028076,1.07251,1.0,2.412214,-0.641221,1.073869,2.688855,7015,12297,5281,7015,0,64.0,5,normal
1780604662.7025182,0.26917479999247007,222293,0.049072,-0.030762,1.061768,3.709924,3.21374,-0.572519,1.063346,4.941602,7019,12303,5283,7019,0,64.0,5,normal
1780604662.7325299,0.299186499993084,222325,0.039062,0.013672,1.037354,0.145038,2.198473,-0.900763,1.038179,2.380272,7021,12307,5285,7021,0,64.0,5,normal
1780604662.7639983,0.330654899997171,222356,0.030029,-0.044434,1.054932,2.259542,2.21374,-0.259542,1.056294,3.173884,7022,12311,5288,7022,0,64.0,3,normal
1780604662.794479,0.36113549998844974,222387,0.022949,-0.023438,1.05835,2.587786,2.625954,-0.618321,1.058858,3.738261,7027,12317,5289,7027,0,64.0,5,normal
1780604662.8267288,0.39338539999153,222418,0.05249,-0.006592,1.054199,-0.091603,3.152672,-0.862595,1.055526,3.269832,7028,12319,5290,7028,0,64.0,5,normal
1780604662.8566742,0.42333079999662004,222449,0.032715,-0.072266,1.043213,2.396947,2.129771,-0.503817,1.046224,3.245783,7029,12322,5292,7029,1,64.0,18,normal
1780604662.8875015,0.4541579999931855,222480,0.0354,-0.021484,1.0625,2.366412,2.503817,-0.450382,1.063307,3.474456,7032,12327,5294,7032,0,64.0,5,normal
1780604662.9180899,0.48474639999039937,222510,0.050537,0.01001,1.047607,-0.076336,3.091603,-0.961832,1.048873,3.238666,7034,12331,5296,7034,0,71.942,5,normal
1780604662.9499102,0.5165667999972356,222541,0.030273,-0.068115,1.053711,2.114504,2.679389,-0.160305,1.056344,3.417009,7036,12336,5299,7036,1,71.942,14,normal
1780604662.9815598,0.5482162999978755,222573,0.067871,-0.015625,1.054443,1.854962,2.328244,-0.21374,1.056741,2.984508,7038,12339,5300,7038,0,71.942,5,normal
1780604663.0124547,0.5791113000013866,222604,0.027588,-0.027588,1.05835,0.076336,2.282443,-1.160305,1.059068,2.561578,7039,12341,5301,7039,0,71.942,5,normal
1780604663.0435343,0.6101908999989973,222635,0.052734,-0.036133,1.044189,3.541985,3.351145,-0.412214,1.046144,4.89344,7041,12346,5304,7041,1,71.942,4,normal
1780604663.0735343,0.6401907999970717,222666,0.051514,0.006836,1.044189,0.793893,3.419847,0.099237,1.045482,3.512189,7044,12351,5306,7044,0,71.942,5,normal
1780604663.1049454,0.6716019000014057,222697,0.032959,-0.05957,1.055176,0.541985,2.450382,-1.221374,1.05737,2.791034,7045,12353,5307,7045,0,71.942,5,normal
1780604663.1359463,0.7026028999971459,222728,0.022217,-0.014648,1.042725,4.099236,3.541985,0.21374,1.043064,5.421723,7047,12356,5308,7047,1,71.942,17,normal
1780604663.1679177,0.7345743999903789,222759,0.040527,0.012207,1.029541,-0.091603,2.526718,-0.503817,1.030411,2.578086,7051,12361,5309,7051,0,71.942,6,normal
1780604663.1989148,0.7655712999985553,222790,0.050537,-0.051758,1.067383,0.320611,2.541985,-1.21374,1.069831,2.835074,7054,12365,5310,7054,0,71.429,0,normal
1780604663.230383,0.7970395000011194,222822,0.039551,-0.029785,1.05127,3.671756,3.442748,-0.335878,1.052435,5.044514,7057,12369,5311,7057,0,71.429,6,normal
1780604663.2625356,0.8291921999916667,222854,0.060059,0.014893,1.048096,0.335878,3.137405,-0.801527,1.049921,3.255544,7058,12371,5312,7058,0,71.429,5,normal
1780604663.2947855,0.861442099994747,222885,0.031982,-0.063721,1.051514,1.824428,2.450382,-0.29771,1.053928,3.069452,7059,12374,5314,7059,1,71.429,18,normal
1780604663.325485,0.8921414999931585,222916,0.04541,-0.016113,1.048584,2.091603,2.519084,-0.580153,1.04969,3.325232,7063,12379,5315,7063,0,71.429,5,normal
1780604663.3551707,0.9218271999998251,222947,0.044922,-0.000488,1.056885,-0.076336,3.053435,-1.129771,1.057839,3.256636,7066,12383,5316,7066,0,71.429,5,normal
1780604663.3861737,0.9528303999977652,222978,0.040039,-0.067627,1.04248,2.725191,2.755725,-0.381679,1.045439,3.894402,7067,12388,5320,7067,1,71.429,18,normal
1780604663.418178,0.9848345999926096,223010,0.064697,0.014893,1.051758,1.29771,2.305344,-0.541985,1.053851,2.700446,7071,12393,5321,7071,0,71.429,5,normal
1780604663.4494445,1.0161010999872815,223041,0.029297,-0.041016,1.051514,0.053435,2.343511,-1.244275,1.052721,2.653888,7072,12395,5322,7072,0,71.713,5,normal
1780604663.4805267,1.047183299990138,223072,0.039795,-0.023682,1.043457,3.900763,4.0229,-0.320611,1.044484,5.612706,7074,12398,5323,7074,1,71.713,17,normal
1780604663.5113065,1.0779631999903359,223104,0.040527,-0.00293,1.032471,0.076336,2.290076,-0.946565,1.03327,2.479165,7077,12403,5325,7077,0,71.713,5,normal
1780604663.542986,1.1096424999996088,223135,0.045654,-0.032227,1.061035,1.465649,2.48855,-0.717557,1.062506,2.975886,7080,12407,5326,7080,0,71.713,5,normal
1780604663.574141,1.1407974999892758,223167,0.048096,-0.018311,1.055664,3.167939,2.29771,-0.564886,1.056918,3.954036,7083,12413,5329,7083,0,71.713,5,normal
1780604663.6058176,1.1724740999925416,223198,0.045166,0.017334,1.035889,0.045802,3.267176,-1.08397,1.037018,3.442604,7084,12415,5330,7084,0,71.713,5,normal
1780604663.636772,1.2034283999964828,223229,0.039062,-0.0625,1.064209,2.206107,2.076336,-0.053435,1.066758,3.030006,7085,12418,5332,7085,1,71.713,18,normal
1780604663.6680067,1.2346632999979192,223260,0.027344,-0.025391,1.04541,2.572519,2.259542,-0.465649,1.046076,3.455461,7088,12423,5334,7088,0,71.713,5,normal
1780604663.6980097,1.2646663999912562,223291,0.04834,0.005371,1.052978,0.022901,2.465649,-0.748092,1.054101,2.57674,7090,12427,5336,7090,0,72.0,6,normal
1780604663.7304237,1.2970802999916486,223322,0.039307,-0.06665,1.047607,2.534351,2.236641,-0.885496,1.050461,3.494224,7091,12430,5338,7091,1,72.0,18,normal
1780604663.7607048,1.327361399991787,223353,0.031738,-0.021484,1.059814,1.862595,2.374046,-0.541985,1.060507,3.065796,7095,12435,5339,7095,0,72.0,0,normal
1780604663.7924175,1.3590740999934496,223384,0.017578,-0.022217,1.05249,-0.152672,2.625954,-1.068702,1.052871,2.839202,7096,12437,5340,7096,0,72.0,5,normal
1780604663.8234513,1.3901077999908011,223415,0.058838,-0.061523,1.031738,2.587786,3.557252,-0.557252,1.035244,4.434096,7098,12442,5343,7098,1,72.0,3,normal
1780604663.855884,1.4225406999903498,223446,0.052734,0.021973,1.042969,1.59542,2.801527,-0.137405,1.044532,3.226886,7100,12445,5344,7100,0,72.0,5,normal
1780604663.8860476,1.452704099996481,223478,0.041748,-0.040283,1.073242,0.625954,2.198473,-1.145038,1.074809,2.556602,7101,12447,5345,7101,0,72.0,5,normal
1780604663.9174857,1.4841423999896506,223509,0.043213,-0.019775,1.057129,3.496183,4.076336,-0.114504,1.058197,5.371492,7103,12450,5346,7103,1,72.0,16,normal
1780604663.9483485,1.5150051999953575,223540,0.040527,-0.00415,1.036377,0.045802,2.78626,-0.89313,1.037177,2.926264,7107,12455,5347,7107,0,72.0,5,normal
1780604663.979646,1.5463025999924866,223570,0.040039,-0.047607,1.060303,0.427481,2.78626,-0.984733,1.062126,2.985914,7111,12461,5349,7111,0,75.269,0,normal
1780604664.010868,1.5775245999975596,223602,0.049561,-0.029785,1.05249,3.10687,3.709924,-0.335878,1.054077,4.850669,7114,12465,5350,7114,0,75.269,5,normal
1780604664.0431173,1.6097737999953097,223634,0.029297,0.024902,1.045898,0.167939,3.198473,-0.885496,1.046605,3.323032,7117,12469,5351,7117,0,75.269,5,normal
1780604664.0748186,1.64147519999824,223666,0.026123,-0.064453,1.052978,2.236641,2.152672,-0.160305,1.055273,3.108417,7118,12472,5353,7118,1,75.269,18,normal
1780604664.1062555,1.672912099995301,223698,0.068359,-0.003662,1.049316,1.305344,3.10687,-0.030534,1.051547,3.370088,7120,12475,5354,7120,0,75.269,5,normal
1780604664.1380713,1.7047278999962145,223729,0.0354,-0.034668,1.049805,0.427481,2.312977,-1.015267,1.050973,2.561908,7122,12479,5356,7122,0,75.269,5,normal
1780604664.1692026,1.735859199994593,223761,0.04834,-0.021484,1.044189,3.687023,3.412214,-0.229008,1.045528,5.028895,7125,12484,5358,7125,1,75.269,18,normal
1780604664.2007887,1.7674453999934485,223792,0.059814,0.010254,1.038574,0.412214,2.870229,-0.503817,1.040346,2.943122,7129,12489,5359,7129,0,75.269,5,normal
1780604664.2309055,1.7975621999939904,223823,0.032227,-0.052002,1.069336,0.793893,2.442748,-1.022901,1.071084,2.764708,7131,12493,5361,7131,0,79.051,1,normal
1780604664.2616446,1.8283010999875842,223854,0.042725,-0.015381,1.046387,3.961832,3.40458,-0.152672,1.047372,5.225953,7133,12496,5362,7133,1,79.051,16,normal
1780604664.2935617,1.8602181999885943,223885,0.038574,0.00415,1.033203,-0.137405,2.885496,-0.931298,1.033931,3.035174,7136,12501,5364,7136,0,79.051,5,normal
1780604664.3244505,1.8911069999885513,223916,0.032227,-0.033203,1.060303,1.549618,2.603053,-0.900763,1.061312,3.160471,7137,12503,5365,7137,0,79.051,5,normal
1780604664.3564138,1.923070499993628,223948,0.041504,-0.019775,1.050537,2.961832,3.251908,-0.40458,1.051542,4.41713,7140,12507,5366,7140,0,79.051,5,normal
1780604664.3872623,1.9539188999915496,223979,0.025391,0.011963,1.039062,0.358779,2.717557,-0.900763,1.039442,2.885344,7142,12511,5368,7142,0,79.051,0,normal
1780604664.418293,1.9849494999944,224010,0.050293,-0.034668,1.055908,2.366412,2.625954,-0.312977,1.057674,3.548732,7144,12516,5371,7144,1,79.051,3,normal
1780604664.4489284,2.0155850000010105,224041,0.016602,-0.022705,1.054932,2.381679,2.816794,-0.412214,1.055306,3.71169,7147,12521,5373,7147,0,79.051,5,normal
1780604664.4809792,2.047635700000683,224072,0.058105,-0.004883,1.064697,0.343511,2.78626,-1.099237,1.066293,3.01489,7148,12523,5374,7148,0,79.051,5,normal
1780604664.5112872,2.0779436999873724,224103,0.040283,-0.070068,1.045898,2.053435,3.244275,-0.167939,1.049017,3.843191,7149,12526,5376,7149,1,64.286,18,normal
1780604664.5426612,2.109317700000247,224135,0.034424,-0.009277,1.062256,1.221374,3.091603,0.229008,1.062854,3.331998,7151,12529,5377,7151,0,64.286,5,normal
1780604664.5803938,2.147050399988075,224172,0.018799,-0.02124,1.06665,0.175573,2.122137,-1.08397,1.067027,2.38941,7152,12534,5381,7152,1,64.286,1,normal
1780604664.6232507,2.1899071999941953,224204,0.04248,-0.018311,1.053467,1.343511,2.854962,-0.21374,1.054482,3.162517,7155,12539,5383,7155,0,64.286,5,normal
1780604664.6431315,2.209788199994364,224235,0.023438,-0.025635,1.054932,0.305344,2.068702,-1.0,1.055503,2.317922,7157,12543,5385,7157,0,64.286,0,normal
1780604664.67475,2.241406699991785,224266,0.047119,-0.055176,1.04126,3.610687,3.267176,-0.366412,1.043785,4.883212,7158,12546,5387,7158,1,64.286,18,normal
1780604664.7046778,2.271334499993827,224297,0.057129,0.019531,1.043701,1.221374,3.290076,-0.274809,1.045446,3.52021,7160,12549,5388,7160,0,64.286,5,normal
1780604664.7370143,2.3036710000014864,224328,0.036865,-0.044922,1.063232,0.396947,2.229008,-1.274809,1.064819,2.598303,7161,12552,5390,7161,1,64.286,14,normal
1780604664.76865,2.3353066999989096,224360,0.037598,-0.02002,1.050293,3.748092,4.053436,-0.114504,1.051156,5.521924,7165,12557,5391,7165,0,62.257,5,normal
1780604664.8003,2.366956499987282,224392,0.043213,-0.019531,1.04126,-0.045802,2.503817,-0.984733,1.042339,2.690891,7166,12559,5392,7166,0,62.257,5,normal
1780604664.8311815,2.3978379999898607,224423,0.055176,-0.039795,1.059814,2.183206,2.167939,-0.290076,1.061996,3.090387,7167,12561,5393,7167,0,62.257,4,normal
1780604664.8622692,2.428925699990941,224454,0.037842,-0.021729,1.052978,3.007634,3.022901,-0.122137,1.053882,4.265994,7172,12567,5394,7172,0,62.257,5,normal
1780604664.893463,2.4601196000003256,224485,0.032715,0.027344,1.052734,0.045802,3.267176,-1.068702,1.053597,3.437828,7173,12569,5395,7173,0,62.257,5,normal
1780604664.9248338,2.4914902999880724,224516,0.037598,-0.030762,1.053955,2.206107,2.80916,-0.030534,1.055074,3.572005,7174,12574,5399,7174,1,62.257,18,normal
1780604664.9550123,2.52166899999429,224547,0.01709,-0.019043,1.055664,2.022901,2.854962,-0.519084,1.055974,3.537285,7176,12577,5400,7176,0,62.257,5,normal
1780604664.9855886,2.552245099999709,224578,0.050293,-0.003906,1.059814,-0.068702,2.908397,-1.08397,1.061014,3.10459,7177,12579,5401,7177,0,62.257,5,normal
1780604665.0180037,2.5846602999954484,224609,0.044434,-0.070068,1.05249,2.641221,2.389313,-0.442748,1.055755,3.588996,7178,12582,5403,7178,1,62.257,18,normal
1780604665.0487118,2.6153683999873465,224640,0.041748,-0.02124,1.065186,1.923664,2.114504,-0.167939,1.066215,2.863532,7181,12587,5405,7181,0,57.143,6,normal
1780604665.07834,2.6449966999934986,224671,0.052002,-0.003662,1.057861,-0.145038,2.839695,-1.167939,1.059145,3.07392,7183,12591,5407,7183,0,57.143,5,normal
1780604665.109176,2.6758323999965796,224701,0.031006,-0.078613,1.036133,1.954198,3.229008,-0.290076,1.039573,3.785436,7185,12596,5410,7185,1,57.143,15,normal
1780604665.140349,2.707005599993863,224733,0.034668,-0.021729,1.058594,2.0,2.564885,-0.274809,1.059384,3.264071,7194,12606,5411,7194,0,57.143,0,normal
1780604665.1712902,2.7379466999991564,224763,0.046143,-0.023438,1.058106,-0.251908,2.229008,-1.328244,1.05937,2.606946,7195,12608,5412,7195,0,57.143,5,normal
1780604665.20285,2.7695066000014776,224794,0.050537,-0.071777,1.051758,2.396947,2.725191,-0.641221,1.055415,3.685537,7197,12613,5415,7197,1,57.143,3,normal
1780604665.2330077,2.79966429999331,224825,0.05249,-0.004883,1.045166,1.839695,2.030534,-0.312977,1.046495,2.757807,7199,12616,5416,7199,0,57.143,5,normal
1780604665.2639537,2.8306102999922587,224855,0.026123,-0.013428,1.058838,-0.145038,2.770992,-1.198473,1.059245,3.022544,7200,12618,5417,7200,0,57.143,5,normal
1780604665.2936163,2.860272999998415,224886,0.043457,-0.072754,1.045898,2.59542,3.167939,-0.366412,1.049326,4.111727,7201,12621,5419,7201,1,57.143,18,normal
1780604665.3249722,2.891628799989121,224917,0.044922,0.0,1.050293,1.610687,3.450382,-0.045802,1.051253,3.80809,7205,12626,5420,7205,0,86.643,5,normal
1780604665.3558538,2.9225102999917,224948,0.026367,-0.036621,1.056885,0.175573,2.068702,-1.221374,1.057848,2.408757,7208,12630,5421,7208,0,86.643,5,normal
1780604665.3859818,2.9526384999917354,224979,0.056152,-0.02832,1.042236,3.70229,3.442748,-0.290076,1.044132,5.063952,7211,12635,5423,7211,1,86.643,17,normal
1780604665.4172354,2.9838919999892823,225009,0.029053,-0.011475,1.05835,1.10687,2.687023,-0.473282,1.05881,2.944359,7215,12640,5424,7215,0,86.643,5,normal
1780604665.4475677,3.0142242000001715,225040,0.032227,-0.031494,1.050049,0.137405,2.19084,-1.0,1.051015,2.41219,7216,12642,5425,7216,0,86.643,5,normal
1780604665.4764757,3.0431322999938857,225070,0.055176,-0.049072,1.043701,2.78626,2.374046,-0.564886,1.04631,3.70384,7217,12645,5427,7217,1,86.643,18,normal
1780604665.5089045,3.0755609999905573,225100,0.023926,-0.018066,1.061035,1.412214,2.839695,-0.648855,1.061459,3.237164,7220,12650,5429,7220,0,86.643,5,normal
1780604665.5391035,3.105759999991278,225131,0.02417,-0.007324,1.064697,0.099237,2.450382,-0.801527,1.064997,2.580051,7222,12654,5431,7222,0,86.643,5,normal
1780604665.5705693,3.137225899990881,225162,0.052002,-0.072754,1.040039,2.770992,3.152672,-0.328244,1.043877,4.210164,7224,12659,5434,7224,1,86.643,14,normal
1780604665.6009388,3.167595499995514,225193,0.046631,-0.014893,1.062988,1.51145,2.778626,-0.366412,1.064115,3.184258,7228,12664,5435,7228,0,83.333,0,normal
1780604665.6322277,3.1988841999991564,225224,0.038574,-0.037354,1.055664,0.053435,2.633588,-1.114504,1.057029,2.860203,7229,12666,5436,7229,0,83.333,5,normal
1780604665.6623175,3.2289741999993566,225255,0.056152,-0.027832,1.041504,3.847328,3.412214,0.076336,1.043388,5.14305,7232,12671,5438,7232,1,83.333,3,normal
1780604665.6936154,3.2602719999995315,225286,0.066406,0.000732,1.042236,0.610687,2.770992,-0.40458,1.04435,2.866186,7234,12674,5439,7234,0,83.333,5,normal
1780604665.7247858,3.291442299989285,225317,0.026123,-0.039551,1.057129,0.458015,2.717557,-1.129771,1.058191,2.978469,7235,12676,5440,7235,0,83.333,5,normal
1780604665.7563913,3.323047799989581,225348,0.041504,-0.018555,1.041504,3.717557,3.862595,-0.022901,1.042496,5.361007,7237,12679,5441,7237,1,83.333,16,normal
1780604665.787187,3.353843799995957,225379,0.036133,-0.002197,1.030518,0.274809,2.358779,-0.78626,1.031153,2.501512,7241,12684,5442,7241,0,83.333,5,normal
1780604665.8187957,3.3854521999892313,225410,0.041504,-0.044922,1.060059,1.221374,2.473282,-1.21374,1.061821,3.013643,7245,12690,5444,7245,0,83.333,0,normal
1780604665.84983,3.416486599991913,225441,0.041992,-0.03125,1.052002,3.251908,3.473282,-0.51145,1.053303,4.785413,7248,12694,5445,7248,0,83.333,6,normal
1780604665.8803916,3.4470480999880238,225472,0.052979,-0.023926,1.038086,-0.160305,2.541985,-1.08397,1.039712,2.768099,7251,12698,5446,7251,0,82.437,5,normal
1780604665.9118686,3.478525200000149,225503,0.05127,-0.020996,1.072266,1.045802,2.969466,-0.885496,1.073696,3.270402,7252,12700,5447,7252,0,82.437,4,normal
1780604665.9421942,3.5088507999898866,225534,0.049805,-0.033203,1.049316,3.175573,3.206107,-0.305344,1.051022,4.5229,7255,12704,5448,7255,0,82.437,6,normal
1780604665.9734514,3.5401079000002937,225565,0.02124,-0.012939,1.037109,0.40458,2.320611,-1.061069,1.037408,2.583561,7257,12708,5450,7257,0,82.437,5,normal
1780604666.0038795,3.570536200000788,225596,0.045654,-0.03418,1.055908,2.137405,2.824427,-0.114504,1.057447,3.543868,7258,12712,5453,7258,0,82.437,3,normal
1780604666.0348196,3.6014761999977054,225627,0.035156,-0.018555,1.056152,2.916031,2.740458,-0.450382,1.0569,4.026933,7263,12718,5454,7263,0,82.437,5,normal
1780604666.0662122,3.6328687999921385,225658,0.053955,0.019531,1.046875,-0.167939,2.824427,-0.877863,1.048446,2.962471,7265,12722,5456,7265,0,82.437,0,normal
1780604666.0985167,3.665173399989726,225689,0.056152,-0.036133,1.067871,2.175573,2.633588,-0.099237,1.069957,3.417418,7266,12725,5458,7266,1,82.437,18,normal
1780604666.128708,3.6953643999877386,225721,0.024414,-0.019043,1.060059,1.755725,2.694656,-0.328244,1.060511,3.232876,7269,12730,5460,7269,0,82.437,6,normal
1780604666.1599922,3.7266487999877427,225752,0.024902,-0.014893,1.062256,0.038168,2.763359,-1.145038,1.062652,2.991441,7270,12732,5461,7270,0,67.857,4,normal
1780604666.1909795,3.7576360999955796,225783,0.064209,-0.068604,1.048828,2.526718,3.137405,-0.59542,1.053029,4.072117,7271,12735,5463,7271,1,67.857,17,normal
1780604666.222452,3.7891085999872303,225814,0.052246,-0.01416,1.06665,1.564886,3.015267,-0.282443,1.068023,3.408882,7273,12738,5464,7273,0,67.857,5,normal
1780604666.2535691,3.8202255999931367,225845,0.031982,-0.032227,1.061035,0.282443,1.740458,-0.549618,1.062006,1.846902,7274,12740,5465,7274,0,67.857,5,normal
1780604666.2841997,3.85085619999154,225876,0.05249,-0.026367,1.046387,3.419847,3.503817,-0.450382,1.048034,4.916801,7279,12747,5467,7279,1,67.857,4,normal
1780604666.3149157,3.881572199999937,225907,0.039307,0.006348,1.052734,1.267176,2.274809,-0.343511,1.053487,2.626498,7282,12752,5469,7282,0,67.857,0,normal
1780604666.3467016,3.9133582999929786,225938,0.051758,-0.056152,1.064941,0.564886,2.725191,-1.229008,1.067676,3.042404,7283,12754,5470,7283,0,67.857,5,normal
1780604666.376471,3.943127699996694,225969,0.046631,-0.019043,1.051025,3.610687,3.29771,-0.145038,1.052232,4.892136,7285,12757,5471,7285,1,67.857,17,normal
1780604666.4072955,3.9739520000002813,226000,0.053223,0.005859,1.033203,0.419847,2.519084,-0.938931,1.03459,2.720964,7287,12760,5472,7287,0,67.857,5,normal
1780604666.4384327,4.005089300000691,226031,0.050293,-0.048584,1.061768,0.801527,2.465649,-1.0,1.064068,2.778825,7290,12764,5473,7290,0,71.685,5,normal
1780604666.4704,4.037056599991047,226062,0.048584,-0.029297,1.054932,3.343511,4.045802,-0.396947,1.056456,5.263568,7293,12768,5474,7293,0,71.685,5,normal
1780604666.5011578,4.067814299996826,226093,0.057617,-0.018799,1.0354,0.045802,2.717557,-1.198473,1.037173,2.970446,7294,12770,5475,7294,0,71.685,5,normal
1780604666.5318117,4.098468299998785,226124,0.032227,-0.019775,1.067383,1.557252,2.442748,-1.015267,1.068052,3.069661,7296,12774,5477,7296,0,71.685,1,normal
1780604666.5619173,4.128573800000595,226155,0.053223,-0.03125,1.052246,3.40458,3.351145,-0.221374,1.054055,4.782295,7300,12780,5479,7300,0,71.685,5,normal
1780604666.593709,4.160365499992622,226185,0.058838,-0.010742,1.032227,0.129771,3.030534,-0.78626,1.033958,3.133558,7302,12784,5481,7302,0,71.685,5,normal
1780604666.6251912,4.191847800000687,226216,0.051514,-0.031006,1.062012,1.328244,3.122137,-0.89313,1.063712,3.508512,7303,12786,5482,7303,0,71.685,5,normal
1780604666.6561685,4.222824999989825,226248,0.04834,-0.015137,1.048584,2.916031,3.122137,-0.549618,1.049807,4.307326,7306,12790,5483,7306,0,71.685,5,normal
1780604666.7048242,4.27148079998733,226279,0.04541,0.014404,1.046387,-0.114504,3.557252,-1.022901,1.047471,3.703171,7307,12792,5484,7307,0,71.685,5,normal
1780604666.719021,4.285677599997143,226311,0.038574,-0.061523,1.052002,2.366412,2.290076,-0.10687,1.054505,3.29481,7309,12797,5487,7309,1,67.857,3,normal
1780604666.7510867,4.317743299994618,226342,0.023682,-0.027344,1.050293,1.854962,2.793893,-0.381679,1.050916,3.375263,7312,12802,5489,7312,0,67.857,5,normal
1780604666.780931,4.3475876999873435,226373,0.04126,-0.013184,1.062256,0.038168,3.030534,-1.419847,1.063139,3.346874,7314,12806,5491,7314,0,67.857,1,normal
1780604666.8134272,4.3800836999871535,226404,0.062012,-0.074951,1.052246,2.10687,3.396947,-0.473282,1.056733,4.025189,7315,12809,5493,7315,1,67.857,18,normal
1780604666.8434167,4.41007329999411,226435,0.045898,-0.007324,1.046631,1.312977,2.412214,-0.183206,1.047662,2.752499,7319,12814,5494,7319,0,67.857,5,normal
1780604666.87482,4.44147669999802,226466,0.0354,-0.026611,1.058838,0.061069,2.114504,-0.839695,1.059764,2.275949,7320,12816,5495,7320,0,67.857,5,normal
1780604666.906237,4.47289340000134,226498,0.049805,-0.007813,1.041504,3.625954,3.236641,-0.473282,1.042723,4.883378,7323,12821,5497,7323,1,67.857,0,normal
1780604666.9368541,4.503510700000334,226529,0.077881,0.013672,1.050049,0.473282,2.618321,-0.519084,1.053022,2.710913,7325,12824,5498,7325,0,67.857,5,normal
1780604666.968656,4.53531269999803,226560,0.056152,-0.049805,1.070312,0.679389,2.648855,-0.923664,1.072941,2.886374,7326,12826,5499,7326,0,67.857,5,normal
1780604667.000316,4.566972399989027,226592,0.057373,-0.036621,1.051025,3.580153,3.496183,-0.557252,1.053227,5.03501,7330,12832,5501,7330,0,74.733,5,normal
1780604667.0320973,4.598753999991459,226624,0.033691,0.02417,1.034912,0.099237,2.908397,-1.022901,1.035742,3.08463,7332,12836,5503,7332,0,74.733,5,normal
1780604667.0641456,4.630802200001199,226655,0.051758,-0.038574,1.059814,2.328244,2.114504,-0.259542,1.061778,3.155822,7333,12841,5507,7333,1,74.733,18,normal
1780604667.095435,4.66209159999562,226687,0.044434,-0.020996,1.065918,1.969466,2.793893,-0.557252,1.06705,3.463404,7337,12846,5508,7337,0,74.733,5,normal
1780604667.1282475,4.694904099989799,226719,0.04126,-0.031494,1.05542,-0.114504,2.251908,-1.068702,1.056695,2.495261,7338,12848,5509,7338,0,74.733,5,normal
1780604667.158655,4.725311599991983,226750,0.043945,-0.037598,1.058838,3.305344,2.763359,-0.312977,1.060416,4.319653,7339,12851,5511,7339,1,74.733,18,normal
1780604667.1888723,4.755528999987291,226781,0.029297,0.005859,1.043213,1.557252,3.030534,-0.145038,1.043641,3.410309,7342,12856,5513,7342,0,74.733,5,normal
1780604667.2198238,4.786480399998254,226812,0.017578,-0.026855,1.054932,0.145038,2.198473,-1.068702,1.05542,2.448764,7345,12860,5514,7345,0,74.733,5,normal
1780604667.2517588,4.818415299989283,226843,0.030029,-0.010742,1.044189,3.335878,3.465649,-0.564886,1.044676,4.843336,7348,12865,5516,7348,1,71.713,14,normal
1780604667.2814846,4.8481412999972235,226874,0.056885,0.004395,1.041504,0.694656,2.824427,-0.732824,1.043065,2.999495,7351,12870,5518,7351,0,71.713,1,normal
1780604667.3131692,4.879825799987884,226905,0.048096,-0.063965,1.06665,0.938931,2.183206,-0.984733,1.069648,2.572485,7352,12872,5519,7352,0,71.713,5,normal
1780604667.344715,4.911371700000018,226936,0.04248,-0.021729,1.043701,3.770992,4.229008,-0.206107,1.044791,5.669865,7355,12877,5521,7355,1,71.713,3,normal
1780604667.3754742,4.942130799987353,226967,0.049316,-0.014648,1.035644,0.244275,2.366412,-1.152672,1.036922,2.643526,7357,12880,5522,7357,0,71.713,5,normal
1780604667.4062672,4.97292379999999,226998,0.053711,-0.032715,1.060791,1.129771,2.793893,-1.10687,1.062654,3.210511,7358,12882,5523,7358,0,71.713,5,normal
1780604667.4373498,5.0040062999905786,227029,0.053223,-0.025391,1.057861,3.267176,3.961832,-0.312977,1.059504,5.144755,7361,12886,5524,7361,0,71.713,5,normal
1780604667.468834,5.035490499998559,227061,0.055908,0.000488,1.031982,0.061069,2.847328,-0.748092,1.033496,2.944596,7362,12888,5525,7362,0,71.713,5,normal
1780604667.5004144,5.067070999997668,227092,0.041016,-0.033691,1.056885,2.335878,2.885496,-0.358779,1.058217,3.729764,7364,12894,5529,7364,0,71.713,1,normal
1780604667.531501,5.0981575999903725,227123,0.029053,-0.023926,1.057129,2.725191,2.694656,-0.374046,1.057799,3.850682,7367,12898,5530,7367,0,67.857,5,normal
1780604667.5624897,5.129146399995079,227154,0.03833,0.015137,1.049316,-0.175573,3.435115,-0.740458,1.050125,3.518397,7370,12902,5531,7370,0,67.857,5,normal
1780604667.5945435,5.16119999998773,227186,0.036377,-0.077148,1.048096,2.396947,3.763359,-0.396947,1.05156,4.479485,7371,12905,5533,7371,1,67.857,19,normal
1780604667.6259935,5.192649999997229,227218,0.048828,0.012207,1.056396,1.236641,2.412214,-0.122137,1.057595,2.71348,7373,12908,5534,7373,0,67.857,5,normal
1780604667.6572075,5.223863999999594,227249,0.043457,-0.035889,1.068604,0.282443,2.549618,-1.091603,1.070089,2.787817,7376,12912,5535,7376,0,67.857,5,normal
1780604667.6883073,5.254963899991708,227280,0.04248,-0.001709,1.040283,3.854962,3.160305,-0.229008,1.041152,4.990061,7380,12917,5536,7380,1,67.857,17,normal
1780604667.7190342,5.28569069999503,227311,0.046875,0.019775,1.050781,0.580153,2.778626,-0.435114,1.052012,2.8717,7382,12920,5537,7382,0,67.857,5,normal
1780604667.7504332,5.317089899996063,227342,0.040771,-0.050537,1.060547,0.603053,2.251908,-0.984733,1.062533,2.530704,7384,12924,5539,7384,0,67.857,1,normal
1780604667.7826805,5.349336999992374,227374,0.069092,-0.033203,1.054932,2.954198,4.015268,-0.137405,1.057713,4.986836,7387,12928,5540,7387,0,79.681,5,normal
1780604667.814621,5.381277499996941,227406,0.070801,0.010986,1.039795,0.435114,2.931298,-1.076336,1.04226,3.152829,7389,12932,5542,7389,0,79.681,5,normal
1780604667.8450873,5.411743899996509,227437,0.054443,-0.037598,1.051514,1.961832,2.992366,-0.564886,1.053593,3.622449,7390,12934,5543,7390,0,79.681,4,normal
1780604667.8757317,5.44238839999889,227468,0.043945,-0.027832,1.056152,2.519084,2.70229,-0.10687,1.057432,3.695886,7393,12938,5544,7393,0,79.681,5,normal
1780604667.9078677,5.474524299992481,227499,0.055908,0.006104,1.065186,-0.221374,3.656489,-0.816794,1.066669,3.753141,7394,12940,5545,7394,0,79.681,5,normal
1780604667.9377222,5.504378799989354,227530,0.026367,-0.060791,1.041748,1.847328,2.366412,-0.007634,1.043853,3.002097,7396,12945,5548,7396,1,79.681,3,normal
1780604667.9695847,5.536241199995857,227561,0.01001,-0.023438,1.046143,2.419847,2.648855,-0.21374,1.046453,3.594131,7399,12950,5550,7399,0,79.681,5,normal
1780604667.9994621,5.566118599992478,227592,0.054199,-0.003662,1.048828,0.053435,2.770992,-1.206107,1.050234,3.022573,7401,12954,5552,7401,0,79.681,0,normal
1780604668.031682,5.598338600000716,227623,0.041748,-0.077393,1.044922,2.259542,3.801527,-0.259542,1.048615,4.429954,7402,12957,5554,7402,1,79.681,19,normal
1780604668.063099,5.629755399990245,227655,0.037842,-0.000977,1.052978,1.80916,2.122137,-0.450382,1.053659,2.824778,7404,12960,5555,7404,0,60.498,5,normal
1780604668.094717,5.661373499999172,227686,0.01123,-0.026367,1.053223,0.435114,2.167939,-0.717557,1.053612,2.324688,7405,12962,5556,7405,0,60.498,5,normal
1780604668.1269472,5.693603799998527,227718,0.062012,-0.02832,1.046875,3.801527,3.442748,-0.137405,1.049092,5.130595,7409,12967,5557,7409,0,60.498,16,normal
1780604668.1581483,5.7248048999899765,227750,0.049561,-0.024902,1.036621,-0.519084,2.877863,-0.946565,1.038104,3.073683,7411,12970,5558,7411,0,60.498,5,normal
1780604668.1886182,5.755274700000882,227781,0.050781,-0.042725,1.059326,1.564886,2.40458,-0.70229,1.061403,2.953656,7412,12972,5559,7412,0,60.498,5,normal
1780604668.2204201,5.78707679999934,227811,0.047363,-0.036133,1.04834,3.343511,3.534351,-0.473282,1.050031,4.888221,7416,12978,5561,7416,0,60.498,5,normal
1780604668.249352,5.816008499998134,227842,0.03418,-0.020508,1.032227,-0.114504,2.51145,-1.221374,1.032996,2.79504,7419,12982,5562,7419,0,60.498,5,normal
1780604668.2805593,5.84721599999466,227872,0.041992,-0.027832,1.063721,1.427481,2.679389,-1.0,1.064913,3.196377,7422,12986,5563,7422,0,60.498,5,normal
1780604668.3114452,5.878101900001639,227903,0.038574,-0.030029,1.04834,3.89313,2.732824,-0.389313,1.049479,4.772458,7426,12992,5565,7426,0,60.498,6,normal
1780604668.3423853,5.909041899998556,227934,0.021729,-0.019531,1.035889,0.129771,2.78626,-1.305344,1.036301,3.079611,7427,12994,5566,7427,0,82.437,5,normal
1780604668.3732662,5.939922699995805,227965,0.036133,-0.031982,1.062012,1.335878,2.732824,-0.816794,1.063107,3.149611,7428,12996,5567,7428,0,82.437,4,normal
1780604668.404915,5.971571699992637,227996,0.071045,-0.031738,1.045654,3.267176,3.793893,-0.48855,1.048545,5.03058,7432,13002,5569,7432,0,82.437,6,normal
1780604668.4354115,6.0020680999878095,228027,0.054688,0.00708,1.04248,0.610687,2.435115,-1.19084,1.043938,2.778636,7434,13006,5571,7434,0,82.437,5,normal
1780604668.466798,6.033454599994002,228058,0.064453,-0.04126,1.051758,2.366412,2.564885,-0.435114,1.054538,3.516798,7436,13010,5573,7436,0,82.437,0,normal
1780604668.49756,6.0642165999888675,228089,0.049805,-0.020752,1.055176,3.129771,2.862595,-0.320611,1.056554,4.253552,7439,13014,5574,7439,0,82.437,5,normal
1780604668.5281863,6.094842899998184,228120,0.038574,0.019287,1.042725,0.076336,3.015267,-0.824427,1.043616,3.126874,7442,13018,5575,7442,0,82.437,5,normal
1780604668.5600448,6.1267013999895426,228151,0.025879,-0.060547,1.052734,2.099237,2.458015,-0.068702,1.054792,3.233164,7444,13023,5578,7444,1,82.437,4,normal
1780604668.5910244,6.1576809999969555,228182,0.020752,-0.023682,1.053467,2.351145,2.251908,-0.748092,1.053937,3.340451,7446,13026,5579,7446,0,82.437,5,normal
1780604668.6217399,6.188396400000784,228213,0.059082,-0.001953,1.057129,0.045802,3.251908,-1.007634,1.05878,3.404751,7447,13028,5580,7447,0,71.685,5,normal
1780604668.6522908,6.218947399989702,228244,0.038086,-0.069824,1.049561,2.145038,2.694656,-0.29771,1.05257,3.457021,7448,13031,5582,7448,1,71.685,18,normal
1780604668.6842506,6.250907199995709,228275,0.035645,-0.015869,1.064453,1.664122,2.374046,-0.312977,1.065168,2.91605,7450,13034,5583,7450,0,71.685,5,normal
1780604668.715244,6.281900599991786,228307,0.008789,-0.031006,1.052734,0.244275,2.099237,-0.770992,1.053228,2.249643,7452,13038,5585,7452,0,71.685,5,normal
1780604668.761672,6.328328699994017,228338,0.0625,-0.041992,1.050293,3.274809,3.0,-0.435114,1.052988,4.462477,7453,13043,5589,7453,1,71.685,18,normal
1780604668.7765276,6.343184299999848,228368,0.024414,-0.015869,1.066406,1.320611,2.679389,-0.030534,1.066804,2.987318,7457,13048,5590,7457,0,71.685,5,normal
1780604668.8076425,6.374299099989003,228399,0.04126,-0.023682,1.05835,-0.114504,2.656489,-0.717557,1.059418,2.754076,7458,13050,5591,7458,0,71.685,5,normal
1780604668.8383617,6.405018399993423,228430,0.047363,-0.026367,1.039551,3.412214,3.290076,-0.312977,1.040963,4.750343,7459,13053,5593,7459,1,71.685,18,normal
1780604668.869665,6.436321399989538,228461,0.060059,0.01001,1.052002,1.541985,2.572519,0.114504,1.053762,3.001447,7462,13058,5595,7462,0,71.685,5,normal
1780604668.900618,6.467274599999655,228492,0.041016,-0.05957,1.063721,0.534351,2.022901,-0.534351,1.066177,2.159442,7463,13060,5596,7463,0,57.348,5,normal
1780604668.9318595,6.498515999992378,228523,0.050049,-0.016357,1.053711,3.587786,3.824427,-0.374046,1.055026,5.25722,7465,13063,5597,7465,1,57.348,17,normal
1780604668.9628947,6.529551200001151,228555,0.023193,-0.015137,1.031738,-0.114504,3.0,-1.061069,1.03211,3.184176,7468,13068,5599,7468,0,57.348,1,normal
1780604668.9936326,6.560289099987131,228585,0.047119,-0.059326,1.075928,0.755725,2.236641,-1.122137,1.078592,2.613977,7471,13072,5600,7471,0,57.348,1,normal
1780604669.0261443,6.592800799990073,228617,0.06543,-0.033203,1.053467,3.480916,2.885496,-0.435114,1.056019,4.542267,7475,13078,5602,7475,0,57.348,5,normal
1780604669.0568087,6.623465299999225,228648,0.049805,-0.001953,1.040527,0.221374,2.236641,-1.320611,1.04172,2.606834,7476,13080,5603,7476,0,57.348,5,normal
1780604669.0885324,6.6551889999973355,228679,0.06543,-0.040283,1.052246,2.625954,2.389313,-0.366412,1.055048,3.569133,7477,13082,5604,7477,0,57.348,5,normal
1780604669.119546,6.686202500000945,228711,0.052002,-0.0271,1.053223,2.366412,2.832061,-0.427481,1.054854,3.715268,7480,13086,5605,7480,0,57.348,5,normal
1780604669.149588,6.716244600000209,228742,0.056885,0.000244,1.051514,0.038168,2.938931,-0.625954,1.053051,3.005094,7481,13088,5606,7481,0,72.0,5,normal
1780604669.1815,6.748156499990728,228773,0.021484,-0.060303,1.055664,2.381679,3.068702,-0.351145,1.057603,3.900337,7483,13095,5611,7483,1,72.0,3,normal
1780604669.2128675,6.779524099998525,228804,0.04248,-0.028564,1.061768,1.419847,2.664122,-0.40458,1.063001,3.045849,7486,13100,5613,7486,0,72.0,1,normal
1780604669.2436337,6.8102903999970295,228835,0.047363,-0.016113,1.063477,0.465649,2.633588,-1.290076,1.064653,2.969328,7487,13102,5614,7487,0,72.0,5,normal
1780604669.2745273,6.841183799988357,228866,0.05542,-0.071533,1.042725,2.740458,2.687023,-0.167939,1.046644,3.841667,7489,13107,5617,7489,1,72.0,15,normal
1780604669.3047602,6.87141690000135,228897,0.023926,-0.013672,1.058838,1.519084,1.923664,-0.282443,1.059196,2.467362,7491,13110,5618,7491,0,72.0,5,normal
1780604669.3365493,6.90320589998737,228928,0.007568,-0.034424,1.052246,0.274809,2.007634,-0.78626,1.052836,2.17355,7493,13114,5620,7493,0,72.0,5,normal
1780604669.3672874,6.933944099990185,228959,0.045166,-0.027588,1.048828,3.427481,3.122137,-0.366412,1.050163,4.650766,7494,13117,5622,7494,1,72.0,18,normal
1780604669.3981824,6.9648388999921735,228990,0.062744,0.01123,1.049805,1.076336,2.709924,-0.221374,1.051738,2.924242,7496,13120,5623,7496,0,72.0,5,normal
1780604669.4286,6.995256599999266,229021,0.014893,-0.043213,1.0625,0.320611,2.412214,-1.099237,1.063483,2.670185,7498,13124,5625,7498,0,60.932,1,normal
1780604669.461105,7.027761599994847,229052,0.058838,-0.021484,1.05127,3.694656,3.801527,-0.251908,1.053134,5.307122,7501,13129,5627,7501,1,60.932,4,normal
1780604669.4909658,7.057622499996796,229083,0.059814,0.001465,1.040283,0.343511,2.824427,-0.251908,1.042002,2.85637,7504,13134,5629,7504,0,60.932,5,normal
1780604669.522374,7.089030399991316,229114,0.041748,-0.044189,1.061768,0.916031,2.358779,-1.015267,1.063506,2.726484,7506,13138,5631,7506,0,60.932,1,normal
1780604669.5541418,7.120798399992054,229145,0.035889,-0.016846,1.049805,3.687023,3.137405,-0.305344,1.050553,4.850844,7509,13142,5632,7509,0,60.932,5,normal
1780604669.585921,7.152577699991525,229177,0.060791,-0.005859,1.031738,0.343511,2.381679,-1.198473,1.033544,2.688259,7510,13144,5633,7510,0,60.932,5,normal
1780604669.6166663,7.183322799988673,229208,0.057617,-0.037598,1.063721,2.648855,2.244275,-0.274809,1.065943,3.482632,7512,13148,5635,7512,0,60.932,0,normal
1780604669.648613,7.215269599997555,229240,0.031006,-0.022949,1.056152,2.160305,2.381679,-0.572519,1.056856,3.266052,7516,13154,5637,7516,0,60.932,5,normal
1780604669.6790812,7.245737899997039,229271,0.050781,0.000488,1.056885,0.442748,3.282443,-1.022901,1.058104,3.466523,7518,13158,5639,7518,0,80.0,0,normal
1780604669.7108505,7.277507099992363,229302,0.047363,-0.069336,1.047607,2.244275,3.183206,-0.328244,1.050967,3.90862,7519,13161,5641,7519,1,80.0,18,normal
1780604669.7404666,7.307123099992168,229333,0.026123,-0.006836,1.0625,1.671756,2.656489,-0.854962,1.062843,3.2531,7523,13166,5642,7523,0,80.0,5,normal
1780604669.7700276,7.336684299996705,229362,0.042725,0.017578,1.055176,0.091603,2.755725,-1.015267,1.056187,2.938227,7524,13168,5643,7524,0,80.0,5,normal
1780604669.801757,7.368413599993801,229393,0.036621,-0.040527,1.068359,2.633588,2.267176,0.015267,1.069755,3.475069,7525,13173,5647,7525,1,80.0,18,normal
1780604669.8326352,7.399291699999594,229424,0.02417,-0.012207,1.046875,1.801527,2.045802,-0.671756,1.047225,2.8075,7527,13176,5648,7527,0,80.0,5,normal
1780604669.8622508,7.428907499997877,229455,0.044434,-0.006836,1.053955,0.167939,2.70229,-1.099237,1.054913,2.922139,7528,13178,5649,7528,0,80.0,5,normal
1780604669.894858,7.461514399998123,229485,0.038574,-0.054199,1.045166,2.129771,2.328244,-0.160305,1.047281,3.159485,7530,13183,5652,7530,1,80.0,15,normal
1780604669.924904,7.491560599999502,229516,0.026611,-0.015137,1.053955,2.10687,2.496183,-0.412214,1.0544,3.292378,7533,13188,5654,7533,0,80.0,5,normal
1780604669.955559,7.522215699995286,229547,0.037842,0.002441,1.063721,0.320611,2.78626,-0.854962,1.064396,2.932063,7535,13192,5656,7535,0,61.594,5,normal
1780604669.9863067,7.552963199996157,229578,0.02417,-0.062988,1.05127,2.740458,2.145038,-0.328244,1.053432,3.495575,7537,13197,5659,7537,1,61.594,14,normal
1780604670.018723,7.585379699987243,229609,0.02124,-0.019287,1.057861,1.641221,2.801527,-0.770992,1.05825,3.337153,7539,13200,5660,7539,0,61.594,5,normal
1780604670.0481217,7.614778299990576,229640,0.041016,-0.01001,1.056641,0.40458,2.450382,-1.038168,1.057484,2.691811,7540,13202,5661,7540,0,61.594,5,normal
1780604670.0795212,7.646177699993132,229671,0.059814,-0.068115,1.048584,2.770992,2.885496,-0.717557,1.052495,4.064404,7542,13207,5664,7542,1,61.594,4,normal
1780604670.1109889,7.67764549999265,229702,0.049561,-0.016602,1.057861,1.526718,2.305344,-0.259542,1.059152,2.7772,7545,13212,5666,7545,0,61.594,5,normal
1780604670.1406927,7.707349199990858,229733,0.033936,-0.040771,1.053955,0.274809,2.40458,-1.114504,1.055289,2.664516,7547,13216,5668,7547,0,61.594,0,normal
1780604670.178595,7.745251699991059,229770,0.053223,-0.022705,1.039795,3.610687,3.557252,-0.389313,1.041404,5.083568,7550,13222,5671,7550,0,61.594,1,normal
1780604670.2093039,7.775960499988287,229801,0.057373,-0.018799,1.06958,-0.076336,2.312977,-1.366412,1.071283,2.687522,7551,13224,5672,7551,0,62.992,5,normal
1780604670.2411506,7.807807299992419,229832,0.051758,-0.068604,1.043701,3.030534,2.725191,-0.618321,1.047233,4.122272,7553,13229,5675,7553,1,62.992,4,normal
1780604670.2714674,7.838124099987908,229863,0.061279,-0.013428,1.049316,1.320611,2.732824,-0.251908,1.05119,3.04562,7555,13232,5676,7555,0,62.992,5,normal
1780604670.3029177,7.869574399999692,229894,0.025635,-0.037598,1.055176,0.251908,2.396947,-0.755725,1.056156,2.525853,7556,13234,5677,7556,0,62.992,5,normal
1780604670.3336158,7.900272399987443,229925,0.043213,-0.024414,1.044434,3.70229,3.679389,-0.351145,1.045612,5.231458,7558,13237,5678,7558,1,62.992,18,normal
1780604670.364449,7.931105700001353,229956,0.038818,0.011963,1.049072,1.251908,2.061069,-0.152672,1.049858,2.416317,7562,13242,5679,7562,0,62.992,5,normal
1780604670.3962631,7.962919699988561,229987,0.033447,-0.064209,1.066406,0.221374,2.19084,-0.984733,1.068861,2.412154,7565,13247,5681,7565,1,62.992,14,normal
1780604670.4279048,7.994561499988777,230019,0.057373,-0.036621,1.061768,3.587786,3.160305,0.022901,1.063947,4.781241,7569,13252,5682,7569,0,62.992,6,normal
1780604670.4578655,8.024522099993192,230050,0.029297,-0.00708,1.04126,-0.305344,2.793893,-1.114504,1.041696,3.02344,7572,13256,5683,7572,0,62.992,5,normal
1780604670.4896746,8.056331100000534,230081,0.045166,-0.02124,1.072022,1.778626,2.534351,-0.610687,1.073183,3.155849,7573,13258,5684,7573,0,78.571,5,normal
1780604670.5205793,8.087235899991356,230112,0.026123,-0.021973,1.053467,3.091603,2.778626,-0.389313,1.05402,4.174966,7576,13262,5685,7576,0,78.571,5,normal
1780604670.551168,8.117824599990854,230143,0.037842,0.004395,1.043701,-0.10687,2.51145,-1.061069,1.044396,2.728492,7578,13266,5687,7578,0,78.571,5,normal
1780604670.5822406,8.148897199993371,230174,0.04126,-0.033447,1.054688,2.312977,2.664122,-0.358779,1.056024,3.546284,7579,13270,5690,7579,0,78.571,4,normal
1780604670.6141195,8.180776099994546,230205,0.040039,-0.029785,1.061035,3.0,2.587786,-0.427481,1.062208,3.984894,7584,13276,5691,7584,0,78.571,5,normal
1780604670.650783,8.217439699990791,230235,0.019043,-0.015137,1.036621,-0.038168,2.496183,-1.007634,1.036906,2.692158,7586,13280,5693,7586,0,78.571,0,normal
1780604670.6739545,8.240611000001081,230266,0.036133,-0.03833,1.051758,2.328244,3.221374,0.091603,1.053076,3.975722,7587,13282,5694,7587,0,78.571,4,normal
1780604670.7051568,8.271813499988639,230297,0.028076,-0.001709,1.059814,2.816794,2.274809,-0.480916,1.060188,3.652446,7591,13288,5696,7591,0,78.571,5,normal
1780604670.7347786,8.301435199988191,230327,0.034912,-0.009277,1.043945,0.091603,2.801527,-1.305344,1.04457,3.092065,7592,13290,5697,7592,0,78.571,5,normal
1780604670.7678442,8.334500699987984,230358,0.046875,-0.057373,1.056152,2.244275,2.847328,-0.435114,1.058748,3.651489,7593,13293,5699,7593,1,72.202,18,normal
1780604670.7994041,8.366060799991828,230391,0.044434,-0.023438,1.05957,1.877863,2.603053,-0.587786,1.06076,3.263088,7596,13298,5701,7596,0,72.202,0,normal
1780604670.8316743,8.39833089998865,230422,0.025879,-0.028809,1.054688,0.29771,2.320611,-0.694656,1.055398,2.440576,7597,13300,5702,7597,0,72.202,5,normal
1780604670.8622656,8.428922199993394,230454,0.033691,-0.002441,1.050781,3.885496,3.251908,-0.21374,1.051324,5.07126,7602,13307,5704,7602,1,72.202,3,normal
1780604670.8939521,8.460608800000045,230485,0.049561,0.027344,1.041992,0.335878,2.732824,-0.335878,1.043528,2.773798,7605,13312,5706,7605,0,72.202,0,normal
1780604670.9241967,8.490853399998741,230516,0.04248,-0.049805,1.065186,0.480916,2.854962,-1.038168,1.067195,3.075692,7606,13314,5707,7606,0,72.202,5,normal
1780604670.955961,8.522617599999649,230547,0.05127,-0.022705,1.054199,3.854962,3.160305,-0.091603,1.055689,4.985644,7608,13317,5708,7608,1,72.202,16,normal
1780604670.9865315,8.553187999990769,230578,0.054199,-0.013184,1.027344,-0.10687,2.671756,-0.977099,1.028857,2.846827,7610,13320,5709,7610,0,72.202,5,normal
1780604671.0190465,8.585703199991258,230609,0.049316,-0.030273,1.068848,1.862595,2.374046,-0.480916,1.070413,3.055591,7614,13326,5711,7614,0,83.665,0,normal
1780604671.0500922,8.616748899992672,230641,0.018799,-0.016357,1.063232,2.763359,3.068702,-0.59542,1.063524,4.172242,7617,13330,5712,7617,0,83.665,5,normal
1780604671.081143,8.647799499987741,230672,0.04248,0.016846,1.057861,0.152672,2.793893,-1.022901,1.058848,2.979173,7620,13334,5713,7620,0,83.665,5,normal
1780604671.11192,8.678576799997245,230703,0.046387,-0.040039,1.057617,1.816794,2.664122,-0.167939,1.059391,3.229008,7621,13337,5715,7621,1,83.665,18,normal
1780604671.1444106,8.711067299998831,230735,0.033447,-0.014648,1.054199,1.969466,2.732824,-0.320611,1.054831,3.383772,7623,13340,5716,7623,0,83.665,5,normal
1780604671.174755,8.741411700000754,230766,0.051514,-0.02002,1.069336,0.167939,2.473282,-1.152672,1.070763,2.733858,7625,13344,5718,7625,0,83.665,5,normal
1780604671.206019,8.772675499989418,230797,0.049805,-0.064209,1.045654,2.984733,2.648855,-0.21374,1.048807,3.996342,7626,13347,5720,7626,1,83.665,18,normal
1780604671.2369666,8.80362310000055,230828,0.069092,-0.023438,1.056641,1.519084,2.732824,-0.099237,1.059156,3.128225,7628,13350,5721,7628,0,83.665,5,normal
1780604671.2672257,8.833882299994002,230859,0.043213,-0.041016,1.055664,0.198473,2.19084,-0.656489,1.057344,2.29568,7630,13354,5723,7630,0,64.0,1,normal
1780604671.2977116,8.864368099995772,230890,0.0625,-0.01001,1.053711,3.847328,3.358779,-0.618321,1.05561,5.144478,7631,13357,5725,7631,1,64.0,18,normal
1780604671.3292494,8.895905999990646,230921,0.057617,0.023193,1.042236,1.08397,2.656489,0.038168,1.044085,2.869387,7634,13362,5727,7634,0,64.0,5,normal
1780604671.360203,8.926859699990018,230952,0.019287,-0.046387,1.064209,0.267176,2.541985,-0.908397,1.065394,2.71261,7636,13366,5729,7636,0,64.0,0,normal
1780604671.3906868,8.957343299989589,230983,0.037842,-0.006348,1.043945,3.648855,3.320611,-0.312977,1.04465,4.943536,7638,13369,5730,7638,1,64.0,17,normal
1780604671.4220142,8.988670899998397,231014,0.035889,-0.007813,1.030029,0.198473,2.473282,-0.625954,1.030684,2.558972,7640,13372,5731,7640,0,64.0,5,normal
1780604671.4546666,9.021323299995856,231045,0.029541,-0.041016,1.064697,0.938931,2.908397,-1.038168,1.065896,3.227717,7642,13376,5733,7642,0,64.0,1,normal
1780604671.4851935,9.051850099989679,231076,0.056885,-0.031982,1.054199,3.305344,2.801527,-0.221374,1.056217,4.338532,7646,13382,5735,7646,0,64.0,5,normal
1780604671.5153472,9.08200389999547,231107,0.044189,-0.019287,1.041016,-0.022901,2.503817,-0.908397,1.042132,2.663608,7648,13386,5737,7648,0,64.0,0,normal
1780604671.5467906,9.113447199997609,231138,0.026123,-0.036865,1.060791,1.70229,2.641221,-0.725191,1.061753,3.224863,7649,13388,5738,7649,0,68.1,5,normal
1780604671.576786,9.143442699991283,231169,0.047363,-0.02417,1.05957,3.320611,3.778626,-0.519084,1.060904,5.057066,7653,13394,5740,7653,0,68.1,5,normal
1780604671.6091418,9.17579829999886,231200,0.029541,-0.011475,1.037842,0.244275,2.419847,-0.977099,1.038326,2.621079,7654,13396,5741,7654,0,68.1,5,normal
1780604671.6403809,9.207037399988621,231231,0.043213,-0.025146,1.062256,2.21374,2.694656,-0.442748,1.063432,3.515373,7655,13400,5744,7655,0,68.1,4,normal
1780604671.6712196,9.237876200000755,231262,0.041016,-0.025635,1.061035,2.656489,3.0,-0.687023,1.062137,4.065579,7658,13404,5745,7658,0,68.1,5,normal
1780604671.711263,9.277919599990128,231293,0.054688,-0.000732,1.043457,0.007634,2.862595,-1.045802,1.044889,3.047656,7659,13406,5746,7659,0,68.1,5,normal
1780604671.7317257,9.298382299995865,231323,0.062256,-0.033447,1.058838,1.854962,2.801527,-0.29771,1.061194,3.373139,7661,13410,5748,7661,0,68.1,1,normal
1780604671.7625575,9.329214099998353,231354,0.033691,-0.015137,1.05127,3.007634,2.793893,-0.442748,1.051918,4.128889,7665,13416,5750,7665,0,68.1,5,normal
1780604671.7926762,9.359332699998049,231385,0.045654,0.006348,1.047607,0.259542,2.541985,-0.923664,1.048621,2.717021,7667,13420,5752,7667,0,68.1,5,normal
1780604671.825185,9.391841599994223,231416,0.047119,-0.036133,1.062256,2.320611,2.244275,-0.038168,1.063914,3.228538,7669,13425,5755,7669,1,71.942,14,normal
1780604671.856873,9.423529699997744,231448,0.043701,-0.022705,1.061768,1.618321,2.908397,-0.48855,1.062909,3.363988,7671,13428,5756,7671,0,71.942,5,normal
1780604671.8885653,9.45522199998959,231479,0.029297,-0.014404,1.063232,-0.114504,1.992366,-1.335878,1.063733,2.4015,7672,13430,5757,7672,0,71.942,5,normal
1780604671.9197273,9.48638379998738,231511,0.061768,-0.042236,1.042969,3.389313,2.938931,-0.274809,1.04565,4.494472,7674,13435,5760,7674,1,71.942,4,normal
1780604671.9506943,9.517350800000713,231542,0.050049,0.000488,1.046631,1.282443,2.977099,-0.21374,1.047827,3.248609,7677,13440,5762,7677,0,71.942,5,normal
1780604671.9820468,9.548703399996157,231573,0.043945,-0.047852,1.068604,0.175573,2.312977,-1.022901,1.070577,2.535156,7678,13442,5763,7678,0,71.942,5,normal
1780604672.012565,9.579221599997254,231604,0.027588,-0.010254,1.042725,3.641221,3.29771,-0.160305,1.04314,4.915189,7680,13445,5764,7680,1,71.942,17,normal
1780604672.0431936,9.609850099994219,231635,0.040771,0.016113,1.037354,0.580153,2.29771,-0.412214,1.038279,2.405404,7684,13450,5765,7684,0,71.942,5,normal
1780604672.0752814,9.641938000000664,231666,0.047607,-0.053223,1.053955,0.633588,2.725191,-0.961832,1.056371,2.958584,7686,13454,5767,7686,0,68.0,1,normal
1780604672.1050425,9.671699099999387,231697,0.051025,-0.036377,1.061523,3.59542,3.435115,-0.229008,1.063371,4.977902,7689,13458,5768,7689,0,68.0,5,normal
1780604672.1375113,9.70416789999581,231728,0.044922,-0.018799,1.040527,-0.129771,1.89313,-1.015267,1.041666,2.152103,7690,13460,5769,7690,0,68.0,5,normal
1780604672.167152,9.733808499993756,231759,0.043213,-0.027588,1.063721,1.022901,2.709924,-1.167939,1.064956,3.123154,7691,13462,5770,7691,0,68.0,5,normal
1780604672.1990123,9.76566879999882,231790,0.05249,-0.031006,1.05957,3.091603,3.908397,-0.282443,1.061323,4.991328,7694,13466,5771,7694,0,68.0,5,normal
1780604672.229763,9.796419599995716,231821,0.02417,-0.016113,1.034424,-0.038168,3.061069,-0.946565,1.034832,3.204307,7696,13470,5773,7696,0,68.0,5,normal
1780604672.2611585,9.827814999996917,231852,0.047363,-0.036133,1.056641,2.290076,2.984733,-0.282443,1.058319,3.772646,7697,13474,5776,7697,0,68.0,4,normal
1780604672.2921715,9.85882799999672,231883,0.031006,-0.013916,1.049316,3.061069,2.740458,-0.412214,1.049867,4.129186,7702,13480,5777,7702,0,68.0,5,normal
1780604672.3233628,9.89001940000162,231914,0.05249,0.003418,1.047607,0.099237,3.274809,-0.969466,1.048927,3.416736,7703,13482,5778,7703,0,68.0,5,normal
1780604672.3544557,9.921112199997879,231945,0.025635,-0.062988,1.055176,2.259542,2.480916,0.068702,1.057365,3.356366,7704,13485,5780,7704,1,64.516,18,normal
1780604672.3850267,9.951683199993568,231977,0.030273,-0.016113,1.056641,1.91603,2.656489,-0.366412,1.057197,3.29581,7707,13490,5782,7707,0,64.516,5,normal
1780604672.4145873,9.981243799993536,232007,0.05249,-0.004639,1.052978,0.007634,2.923664,-1.091603,1.054296,3.120812,7710,13494,5783,7710,0,64.516,5,normal
1780604672.4467065,10.013363199992455,232037,0.032227,-0.04126,1.046875,1.961832,2.526718,-0.19084,1.048183,3.204607,7711,13497,5785,7711,1,64.516,18,normal
1780604672.4782476,10.044904299997143,232069,0.049561,-0.021484,1.053467,1.854962,2.770992,-0.419847,1.054851,3.360886,7715,13502,5786,7715,0,64.516,1,normal
1780604672.5109155,10.07757209999545,232101,0.027832,-0.036377,1.055908,0.137405,2.328244,-1.160305,1.056901,2.604978,7716,13504,5787,7716,0,64.516,5,normal
1780604672.5411081,10.107764699991094,232133,0.042236,-0.007324,1.048096,3.839695,2.946565,-0.290076,1.048972,4.848675,7719,13509,5789,7719,1,64.516,4,normal
1780604672.572076,10.13873269999749,232164,0.057373,0.005127,1.039062,0.366412,2.503817,-0.412214,1.040658,2.56384,7721,13512,5790,7721,0,64.516,5,normal
1780604672.6048427,10.171499199990649,232195,0.034912,-0.034912,1.062012,1.045802,2.641221,-1.259542,1.063159,3.107442,7722,13514,5791,7722,0,72.0,5,normal
1780604672.6360018,10.202658299996983,232226,0.057617,-0.038574,1.047607,3.671756,3.259542,-0.328244,1.049899,4.920788,7725,13518,5792,7725,0,72.0,5,normal
1780604672.6774504,10.244106999991345,232258,0.038818,-0.015625,1.044189,-0.229008,2.78626,-0.977099,1.045028,2.961488,7726,13520,5793,7726,0,72.0,5,normal
1780604672.6973288,10.263985300000058,232289,0.058594,-0.030762,1.058106,1.717557,2.885496,-0.282443,1.060173,3.369846,7728,13526,5797,7728,0,72.0,1,normal
1780604672.7279508,10.294607399991946,232320,0.070312,-0.0271,1.058106,3.29771,3.076336,-0.503817,1.060785,4.537904,7731,13530,5798,7731,0,72.0,5,normal
1780604672.7584846,10.325141299996176,232350,0.042969,0.001221,1.041992,0.229008,2.900763,-0.908397,1.042878,3.048288,7734,13534,5799,7734,0,72.0,5,normal
1780604672.790058,10.356714399997145,232381,0.036377,-0.033691,1.066162,2.450382,2.870229,0.038168,1.067314,3.774128,7735,13536,5800,7735,0,72.0,5,normal
1780604672.820928,10.387584799987962,232412,0.051514,-0.022949,1.051758,2.709924,3.068702,-0.320611,1.053269,4.106508,7738,13540,5801,7738,0,72.0,5,normal
1780604672.8524513,10.419107999987318,232443,0.042236,0.008301,1.046875,0.022901,3.076336,-1.045802,1.04776,3.249318,7740,13544,5803,7740,0,72.0,5,normal
1780604672.8818364,10.448492899988196,232473,0.03125,-0.031738,1.050781,2.129771,2.78626,0.167939,1.051725,3.511036,7741,13546,5804,7741,0,68.345,5,normal
1780604672.9131386,10.47979509999277,232504,0.030762,-0.015137,1.057861,2.740458,3.312977,-0.435114,1.058417,4.321488,7744,13550,5805,7744,0,68.345,5,normal
1780604672.9446304,10.511287000001175,232536,0.063965,0.002441,1.05542,-0.251908,3.328244,-0.954198,1.057359,3.471478,7746,13554,5807,7746,0,68.345,1,normal
1780604672.9772105,10.54386719998729,232567,0.021484,-0.064453,1.053223,2.374046,2.473282,0.038168,1.055412,3.42851,7748,13559,5810,7748,1,68.345,3,normal
1780604673.0068283,10.57348490000004,232598,0.016113,-0.013428,1.068359,1.832061,2.412214,-0.40458,1.068565,3.055963,7751,13564,5812,7751,0,68.345,5,normal
1780604673.0385575,10.605213999995613,232629,0.0271,-0.014404,1.058838,-0.152672,2.916031,-1.160305,1.059283,3.14211,7753,13568,5814,7753,0,68.345,0,normal
1780604673.0690541,10.635710599992308,232660,0.046631,-0.068848,1.057617,2.839695,2.618321,-0.282443,1.060881,3.872886,7754,13571,5816,7754,1,68.345,18,normal
1780604673.1018176,10.668474099991727,232692,0.047119,0.010254,1.04541,1.366412,3.152672,-0.480916,1.046522,3.469539,7756,13574,5817,7756,0,68.345,5,normal
1780604673.13307,10.699726599996211,232724,0.036865,-0.058105,1.061035,0.648855,2.335878,-1.045802,1.063264,2.640273,7759,13578,5818,7759,0,71.713,0,normal
1780604673.1658785,10.732535199989798,232756,0.060303,-0.040283,1.058838,3.015267,3.236641,-0.328244,1.061318,4.435699,7763,13584,5820,7763,0,71.713,5,normal
1780604673.195946,10.762602599992533,232787,0.042969,-0.014893,1.048828,-0.091603,2.305344,-0.961832,1.049814,2.499624,7765,13588,5822,7765,0,71.713,1,normal
1780604673.2270477,10.793704199997592,232818,0.043945,-0.027588,1.056885,1.557252,2.938931,-0.328244,1.058158,3.342169,7766,13590,5823,7766,0,71.713,5,normal
1780604673.2582524,10.82490889998735,232849,0.04541,-0.033447,1.049316,3.068702,2.717557,-0.267176,1.050831,4.107728,7770,13596,5825,7770,0,71.713,6,normal
1780604673.290388,10.857044799995492,232881,0.062012,0.017334,1.044189,-0.045802,3.274809,-0.961832,1.046173,3.413443,7771,13598,5826,7771,0,71.713,5,normal
1780604673.321962,10.888618799988762,232912,0.035156,-0.073242,1.041748,2.274809,2.679389,-0.473282,1.044911,3.546531,7772,13603,5830,7772,1,71.713,18,normal
1780604673.3542798,10.920936299997265,232944,0.041504,-0.021484,1.065186,1.450382,1.946565,-0.076336,1.06621,2.428693,7774,13606,5831,7774,0,71.713,5,normal
1780604673.384801,10.951457499992102,232976,0.027832,-0.034424,1.066406,0.183206,1.900763,-1.221374,1.067325,2.266764,7775,13608,5832,7775,0,63.492,5,normal
1780604673.4167447,10.983401199991931,233007,0.048828,-0.017334,1.041016,4.08397,2.816794,-0.633588,1.042304,5.001457,7778,13613,5834,7778,1,63.492,14,normal
1780604673.446572,11.01322860000073,233038,0.044434,0.009766,1.035644,1.0,2.427481,-0.801527,1.036643,2.745015,7781,13618,5836,7781,0,63.492,5,normal
1780604673.4775915,11.04424819999258,233068,0.022949,-0.041504,1.058106,0.083969,2.679389,-1.030534,1.059168,2.871964,7784,13622,5837,7784,0,63.492,5,normal
1780604673.508543,11.075199599988991,233099,0.026855,0.008057,1.039307,3.938931,3.122137,0.10687,1.039685,5.02736,7787,13627,5839,7787,1,63.492,14,normal
1780604673.5384808,11.105137399994419,233130,0.031494,-0.003662,1.027344,0.541985,2.870229,-0.748092,1.027833,3.015228,7789,13630,5840,7789,0,63.492,5,normal
1780604673.5698903,11.13654680000036,233161,0.024414,-0.036621,1.064209,0.992366,2.549618,-1.160305,1.065119,2.97181,7790,13632,5841,7790,0,63.492,5,normal
1780604673.602403,11.169059499996365,233193,0.052979,-0.032715,1.052246,3.793893,3.21374,-0.221374,1.054087,4.977023,7794,13638,5843,7794,0,63.492,5,normal
1780604673.6324573,11.199113800001214,233224,0.034668,-0.016846,1.035644,-0.030534,2.320611,-1.198473,1.036361,2.611993,7796,13642,5845,7796,0,63.492,5,normal
1780604673.6649265,11.231583100001444,233255,0.056885,-0.030518,1.06665,1.91603,2.862595,-0.083969,1.068602,3.445675,7798,13646,5847,7798,0,82.437,1,normal
1780604673.6949267,11.261583399988012,233286,0.040039,-0.010986,1.053711,3.114504,3.076336,-0.274809,1.054529,4.386285,7801,13650,5848,7801,0,82.437,5,normal
1780604673.7263162,11.292972700000973,233317,0.057373,0.022705,1.045654,0.122137,3.198473,-1.007634,1.047473,3.355663,7804,13654,5849,7804,0,82.437,5,normal
1780604673.7585752,11.325231800001347,233349,0.035889,-0.082031,1.050537,2.244275,2.870229,0.137405,1.054346,3.646075,7806,13659,5852,7806,1,82.437,3,normal
1780604673.7897348,11.356391399996937,233380,0.035156,-0.023193,1.055176,1.625954,2.267176,-0.458015,1.056016,2.827294,7808,13662,5853,7808,0,82.437,5,normal
1780604673.8197827,11.38643929999671,233411,0.063232,-0.00415,1.063232,-0.167939,3.007634,-1.10687,1.065119,3.20924,7809,13664,5854,7809,0,82.437,5,normal
1780604673.8522005,11.418857099997695,233442,0.056396,-0.066162,1.051758,2.564885,3.259542,-0.19084,1.055345,4.152068,7810,13667,5856,7810,1,82.437,18,normal
1780604673.882444,11.449100499987253,233473,0.047363,-0.02124,1.06543,1.19084,2.549618,-0.167939,1.066693,2.819017,7812,13670,5857,7812,0,82.437,5,normal
1780604673.913773,11.480429699993692,233504,0.033936,-0.033203,1.059814,-0.358779,2.015267,-0.816794,1.060877,2.2039,7815,13674,5858,7815,0,82.437,5,normal
1780604673.944926,11.511582699997234,233536,0.053955,-0.012451,1.046631,3.824427,3.167939,-0.564886,1.048095,4.998118,7819,13679,5859,7819,1,74.733,18,normal
1780604673.9767323,11.543388899997808,233567,0.058838,-0.001465,1.023682,0.625954,2.259542,-0.587786,1.025372,2.417197,7823,13684,5860,7823,0,74.733,5,normal
1780604674.0071156,11.573772199990344,233598,0.048096,-0.057617,1.069092,1.0,2.450382,-1.160305,1.071723,2.889754,7824,13686,5861,7824,0,74.733,5,normal
1780604674.038485,11.605141599997296,233629,0.043701,-0.027832,1.054688,3.877863,4.10687,-0.267176,1.055959,5.654696,7827,13690,5862,7827,0,74.733,5,normal
1780604674.0679495,11.634606199993868,233660,0.018555,0.006592,1.031982,0.137405,2.40458,-0.854962,1.03217,2.555748,7829,13694,5864,7829,0,74.733,5,normal
1780604674.0999482,11.666604699988966,233690,0.044189,-0.05249,1.063477,0.854962,2.206107,-0.877863,1.065688,2.523591,7832,13698,5865,7832,0,74.733,5,normal
1780604674.1308007,11.697457299989765,233721,0.055664,-0.034668,1.050537,3.48855,3.152672,-0.129771,1.052582,4.703845,7835,13702,5866,7835,0,74.733,5,normal
1780604674.1619165,11.728573199987295,233753,0.043945,-0.020264,1.03833,-0.389313,3.099237,-1.038168,1.039457,3.291599,7837,13706,5868,7837,0,74.733,1,normal
1780604674.1940618,11.760718399993493,233784,0.062012,-0.037354,1.060547,2.091603,2.580153,-0.40458,1.063015,3.345994,7838,13708,5869,7838,0,74.733,5,normal
1780604674.2238789,11.790535499996622,233815,0.040283,-0.016846,1.055176,3.374046,2.931298,-0.450382,1.056079,4.492164,7842,13714,5871,7842,0,82.437,5,normal
1780604674.2560086,11.82266510000045,233847,0.045166,-0.003174,1.053955,-0.358779,3.198473,-1.183206,1.054927,3.42913,7843,13716,5872,7843,0,82.437,5,normal
1780604674.2880087,11.85466529999394,233878,0.026367,-0.076416,1.050049,2.641221,2.580153,-0.610687,1.053156,3.742483,7844,13719,5874,7844,1,82.437,18,normal
1780604674.3193254,11.88598199999251,233910,0.025146,-0.017578,1.062988,1.29771,2.534351,-0.10687,1.063431,2.849282,7846,13722,5875,7846,0,82.437,5,normal
1780604674.3506682,11.917324800000642,233941,0.022705,-0.022217,1.058594,0.076336,2.076336,-0.824427,1.05907,2.235325,7847,13724,5876,7847,0,82.437,5,normal
1780604674.381873,11.948529399989638,233972,0.044434,-0.014893,1.046387,3.832061,3.206107,-0.374046,1.047436,5.010362,7851,13731,5879,7851,1,82.437,4,normal
1780604674.4117918,11.978448299996671,234003,0.048584,0.018066,1.047363,1.381679,1.70229,-0.328244,1.048645,2.216884,7854,13736,5881,7854,0,82.437,0,normal
1780604674.4436846,12.010341099987272,234034,0.045166,-0.047852,1.072022,0.312977,2.022901,-1.061069,1.074039,2.305634,7855,13738,5882,7855,0,82.437,5,normal
1780604674.473955,12.040611399992486,234065,0.040039,0.002686,1.049561,3.236641,3.709924,-0.038168,1.050327,4.923498,7857,13741,5883,7857,1,60.0,17,normal
1780604674.5042293,12.070885900000576,234096,0.04126,-0.005127,1.034424,0.412214,2.061069,-0.48855,1.035259,2.157917,7859,13744,5884,7859,0,60.0,5,normal
1780604674.5361369,12.102793400001246,234127,0.025879,-0.039551,1.059814,1.312977,2.435115,-1.274809,1.060868,3.046117,7864,13750,5885,7864,0,60.0,0,normal
1780604674.5656202,12.132276799995452,234158,0.038086,-0.03125,1.058594,3.59542,4.145038,-0.419847,1.05974,5.50315,7867,13754,5886,7867,0,60.0,5,normal
1780604674.5962071,12.162863799996558,234188,0.07251,0.006592,1.038818,0.007634,2.847328,-0.633588,1.041367,2.91698,7868,13756,5887,7868,0,60.0,5,normal
1780604674.6274743,12.194130899995798,234218,0.028076,-0.04248,1.071533,0.229008,2.091603,-0.954198,1.072742,2.310356,7870,13760,5889,7870,0,60.0,0,normal
1780604674.6587887,12.225445299991407,234249,0.03418,-0.016113,1.047119,3.862595,2.977099,-0.015267,1.047801,4.876781,7872,13763,5890,7872,1,60.0,17,normal
1780604674.6880617,12.254718199998024,234280,0.037354,0.009277,1.030762,0.480916,2.503817,-0.78626,1.03148,2.668067,7875,13768,5892,7875,0,60.0,6,normal
1780604674.7187736,12.285430299991276,234310,0.037354,-0.046387,1.063721,0.167939,2.503817,-0.854962,1.065387,2.651087,7876,13770,5893,7876,0,60.0,5,normal
1780604674.7497065,12.316363199992338,234341,0.03418,0.004639,1.044922,3.755725,3.519084,0.007634,1.045491,5.146794,7878,13773,5894,7878,1,76.087,16,normal
1780604674.7803502,12.347006899988628,234371,0.052002,0.018066,1.049316,1.519084,2.328244,-0.389313,1.050759,2.807116,7880,13776,5895,7880,0,76.087,5,normal
1780604674.8122022,12.378858799987938,234402,0.03418,-0.050537,1.074707,0.351145,2.167939,-0.862595,1.076437,2.35952,7881,13779,5897,7881,1,76.087,14,normal
1780604674.84116,12.407816599996295,234433,0.049316,-0.01001,1.048096,3.687023,3.70229,-0.045802,1.049303,5.225246,7885,13785,5899,7885,1,76.087,3,normal
1780604674.8727212,12.439377799993963,234464,0.057617,0.010498,1.046631,0.381679,2.045802,-0.839695,1.048268,2.244119,7888,13790,5901,7888,0,76.087,0,normal
1780604674.9041975,12.470854099999997,234495,0.048096,-0.04126,1.074463,1.267176,2.160305,-1.290076,1.07633,2.817259,7889,13792,5902,7889,0,76.087,5,normal
1780604674.9348147,12.501471199997468,234526,0.056396,-0.035889,1.049805,3.862595,2.938931,-0.450382,1.051931,4.874402,7892,13796,5903,7892,0,76.087,6,normal
1780604674.9655087,12.53216539999994,234557,0.018799,-0.01001,1.027344,-0.160305,2.961832,-1.206107,1.027564,3.202006,7893,13798,5904,7893,0,76.087,5,normal
1780604674.9966438,12.563300299996627,234588,0.03833,-0.022949,1.077881,1.778626,2.755725,-0.419847,1.078806,3.30663,7896,13804,5907,7896,0,76.087,0,normal
1780604675.0285559,12.595212399988668,234619,0.044434,-0.032959,1.049805,3.122137,3.206107,-0.351145,1.051261,4.488894,7899,13808,5908,7899,0,75.54,6,normal
1780604675.0595686,12.62622529998771,234651,0.044189,0.018311,1.045898,-0.022901,3.007634,-0.961832,1.046992,3.157769,7900,13810,5909,7900,0,75.54,5,normal
1780604675.090943,12.657599599988316,234682,0.037109,-0.056641,1.052734,2.083969,2.175573,-0.137405,1.05491,3.015779,7902,13815,5912,7902,1,75.54,14,normal
1780604675.1232986,12.689955299996655,234713,0.0271,-0.013428,1.051025,1.984733,2.618321,-0.51145,1.05146,3.325109,7904,13818,5913,7904,0,75.54,5,normal
1780604675.1534116,12.720068299997365,234744,0.050293,-0.002441,1.062744,0.068702,2.89313,-1.236641,1.063936,3.147094,7906,13822,5915,7906,0,75.54,5,normal
1780604675.185412,12.752068599991617,234775,0.041748,-0.075928,1.040772,2.633588,3.015267,-0.480916,1.044372,4.032233,7907,13825,5917,7907,1,75.54,19,normal
1780604675.2159476,12.782604199994239,234807,0.053223,0.017334,1.04248,1.40458,2.793893,-0.007634,1.043982,3.127098,7909,13828,5918,7909,0,75.54,5,normal
1780604675.2477217,12.814378199997009,234838,0.032959,-0.023682,1.058594,0.21374,2.335878,-0.755725,1.059372,2.464372,7910,13830,5919,7910,0,75.54,5,normal
1780604675.2781541,12.84481070000038,234869,0.033936,0.005127,1.04541,3.78626,3.152672,-0.473282,1.045973,4.949656,7912,13835,5922,7912,1,52.0,3,normal
1780604675.3090532,12.875709699990693,234900,0.053711,0.026367,1.053467,1.19084,1.961832,-0.480916,1.055165,2.344816,7915,13840,5924,7915,0,52.0,5,normal
1780604675.340606,12.90726249999716,234931,0.04248,-0.057373,1.050537,0.221374,2.10687,-1.244275,1.05296,2.456853,7917,13844,5926,7917,0,52.0,0,normal
1780604675.3703039,12.936960499995621,234962,0.03833,0.004639,1.055908,3.480916,3.015267,-0.114504,1.056614,4.606704,7919,13847,5927,7919,1,52.0,16,normal
1780604675.401047,12.96770349999133,234992,0.041992,0.013428,1.042969,0.59542,2.022901,-0.412214,1.0439,2.148621,7921,13850,5928,7921,0,52.0,5,normal
1780604675.4317257,12.998382299992954,235023,0.030518,-0.060303,1.068115,-0.167939,2.221374,-1.152672,1.070251,2.508258,7922,13853,5930,7922,1,52.0,15,normal
1780604675.464016,13.03067259999807,235054,0.041992,-0.034912,1.047363,4.19084,3.862595,-0.335878,1.048786,5.709255,7926,13858,5931,7926,0,52.0,5,normal
1780604675.4943388,13.060995299994829,235085,0.033691,-0.008789,1.027588,0.251908,2.801527,-0.824427,1.028178,2.931158,7927,13860,5932,7927,0,52.0,5,normal
1780604675.5247545,13.091411099987454,235116,0.040039,-0.059082,1.068359,1.122137,2.030534,-1.19084,1.070741,2.60775,7928,13862,5933,7928,0,52.0,5,normal
1780604675.5562887,13.12294539999857,235147,0.06958,-0.042236,1.057373,3.366412,4.015268,-0.48855,1.060501,5.262488,7932,13868,5935,7932,0,71.942,5,normal
1780604675.587557,13.154213699992397,235179,0.062256,0.007324,1.035889,0.244275,2.961832,-1.251908,1.037784,3.22481,7933,13870,5936,7933,0,71.942,5,normal
1780604675.621078,13.187734499995713,235210,0.045166,-0.06543,1.049072,2.19084,2.931298,-0.229008,1.05208,3.666706,7934,13875,5940,7934,1,71.942,18,normal
1780604675.6524112,13.219067899990478,235242,0.027344,-0.017822,1.053711,2.007634,2.610687,-0.351145,1.054216,3.312036,7936,13878,5941,7936,0,71.942,5,normal
1780604675.682419,13.249075599989737,235274,0.026123,-0.030273,1.054932,-0.099237,2.40458,-0.961832,1.055689,2.591713,7937,13880,5942,7937,0,71.942,5,normal
1780604675.7147462,13.281402799999341,235305,0.053955,-0.049316,1.05127,3.78626,3.290076,0.038168,1.053808,5.016156,7938,13883,5944,7938,1,71.942,18,normal
1780604675.7607439,13.327400499998475,235337,0.041504,0.02832,1.051758,0.496183,2.816794,-0.366412,1.052957,2.883537,7941,13888,5946,7941,0,71.942,5,normal
1780604675.7840369,13.350693499989575,235374,0.022705,-0.043701,1.066162,0.725191,1.709924,-1.183206,1.067299,2.202207,7944,13893,5948,7944,1,71.942,20,normal
1780604675.8146684,13.38132489999407,235405,0.052246,0.01123,1.054443,1.679389,2.122137,0.091603,1.055797,2.707805,7948,13898,5949,7948,0,62.016,5,normal
1780604675.8465521,13.4132086999889,235437,0.039551,-0.062012,1.063477,0.526718,2.022901,-1.305344,1.066017,2.464444,7949,13900,5950,7949,0,62.016,5,normal
1780604675.8780353,13.444691999990027,235468,0.045654,-0.022705,1.043213,3.519084,4.267176,-0.381679,1.044458,5.544224,7952,13904,5951,7952,0,62.016,5,normal
1780604675.9078197,13.474476299990783,235499,0.036621,-0.012451,1.032471,-0.259542,2.847328,-1.244275,1.033195,3.11815,7954,13908,5953,7954,0,62.016,5,normal
1780604675.9393206,13.505977199994959,235530,0.038818,-0.03125,1.064697,1.396947,2.083969,-0.969466,1.065863,2.689656,7957,13912,5954,7957,0,62.016,5,normal
1780604675.970517,13.537173399992753,235561,0.055664,-0.0354,1.056152,3.625954,3.534351,-0.251908,1.05821,5.069777,7960,13916,5955,7960,0,62.016,5,normal
1780604676.0012276,13.56788429999142,235592,0.034424,-0.005615,1.033447,-0.068702,2.183206,-0.877863,1.034036,2.354093,7962,13920,5957,7962,0,62.016,1,normal
1780604676.0309646,13.597621299995808,235622,0.046875,-0.037842,1.067383,1.503817,1.709924,-1.10687,1.069082,2.53189,7963,13922,5958,7963,0,62.016,5,normal
1780604676.065606,13.632262799990713,235653,0.061768,-0.037354,1.056641,3.603053,3.129771,0.022901,1.059103,4.772629,7967,13928,5960,7967,0,62.016,5,normal
1780604676.0943782,13.661034799995832,235685,0.050537,0.0271,1.036865,-0.045802,2.694656,-0.954198,1.03845,2.85898,7968,13930,5961,7968,0,71.429,5,normal
1780604676.1266415,13.693297999998322,235716,0.071533,-0.052734,1.054199,2.358779,2.312977,-0.244275,1.057938,3.312608,7969,13933,5963,7969,1,71.429,18,normal
1780604676.1587756,13.725432099992759,235748,0.034912,-0.012939,1.060059,2.015267,2.21374,-0.450382,1.060712,3.027341,7971,13936,5964,7971,0,71.429,5,normal
1780604676.1889875,13.755644099990604,235779,0.02417,-0.018311,1.053223,-0.236641,2.648855,-1.290076,1.053659,2.955796,7972,13938,5965,7972,0,71.429,5,normal
1780604676.2185874,13.785244099999545,235810,0.053711,-0.074463,1.039062,2.832061,3.038168,-0.21374,1.043111,4.158932,7974,13945,5970,7974,1,71.429,4,normal
1780604676.2513657,13.81802219999372,235841,0.05957,-0.011475,1.061279,1.564886,2.129771,0.091603,1.063012,2.644462,7977,13950,5972,7977,0,71.429,0,normal
1780604676.2815573,13.848213999997824,235872,0.031982,-0.029785,1.061279,0.198473,2.152672,-0.992366,1.062179,2.378693,7978,13952,5973,7978,0,71.429,4,normal
1780604676.3123112,13.878967799988459,235903,0.068848,-0.052002,1.039795,4.061068,3.312977,-0.366412,1.043368,5.253794,7979,13955,5975,7979,1,71.429,17,normal
1780604676.3434653,13.910121900000377,235934,0.072266,0.021973,1.049072,1.48855,2.458015,-0.198473,1.051788,2.880453,7981,13958,5976,7981,0,71.429,5,normal
1780604676.3739564,13.94061309999961,235965,0.033691,-0.0625,1.060547,0.091603,2.458015,-1.114504,1.062921,2.700435,7985,13964,5978,7985,0,60.714,0,normal
1780604676.4060037,13.972660299987183,235996,0.035645,-0.007813,1.047119,4.061068,3.664122,-0.183206,1.047755,5.472808,7987,13967,5979,7987,1,60.714,16,normal
1780604676.4363241,14.002980699995533,236027,0.032715,-0.018555,1.033203,-0.083969,2.687023,-0.770992,1.033887,2.796707,7991,13972,5980,7991,0,60.714,5,normal
1780604676.4670024,14.033658899992588,236058,0.023926,-0.032471,1.070557,0.793893,2.076336,-0.916031,1.071316,2.404277,7993,13976,5982,7993,0,60.714,0,normal
1780604676.49998,14.066636499992455,236089,0.046387,-0.033203,1.045654,3.610687,3.580153,-0.748092,1.047209,5.139474,7996,13980,5983,7996,0,60.714,5,normal
1780604676.5298102,14.096466799994232,236120,0.033447,-0.008789,1.03418,-0.312977,2.351145,-1.137405,1.034758,2.630499,7998,13984,5985,7998,0,60.714,5,normal
1780604676.561063,14.127719600001,236151,0.040283,-0.033203,1.05249,2.099237,2.549618,-0.312977,1.053784,3.317424,7999,13986,5986,7999,0,60.714,5,normal
1780604676.5915778,14.15823429999,236182,0.044678,-0.01709,1.057861,3.022901,3.007634,-0.564886,1.058942,4.301498,8002,13990,5987,8002,0,60.714,6,normal
1780604676.623059,14.189715699991211,236214,0.036621,0.006836,1.046875,0.137405,3.076336,-1.137405,1.047538,3.282744,8004,13994,5989,8004,0,60.714,1,normal
1780604676.6549876,14.221644199991715,236245,0.051514,-0.071045,1.061523,2.229008,3.541985,-0.442748,1.065145,4.208344,8005,13997,5991,8005,1,71.429,18,normal
1780604676.694942,14.261598500001128,236277,0.027588,-0.020264,1.065674,1.40458,2.89313,0.419847,1.066223,3.24335,8008,14002,5993,8008,0,71.429,5,normal
1780604676.7170453,14.283701899999869,236308,0.015625,-0.029053,1.061768,0.030534,2.038168,-0.969466,1.06228,2.257194,8009,14004,5994,8009,0,71.429,5,normal
1780604676.7490664,14.315722999992431,236339,0.056152,-0.0271,1.044434,3.725191,3.167939,-0.251908,1.046293,4.896564,8010,14007,5996,8010,1,71.429,18,normal
1780604676.7794025,14.346059199990123,236370,0.055908,0.013184,1.05127,1.114504,2.473282,-0.29771,1.052838,2.72908,8012,14010,5997,8012,0,71.429,5,normal
1780604676.8114786,14.378135199993267,236401,0.03418,-0.04541,1.057373,0.229008,2.351145,-0.89313,1.058899,2.525472,8013,14012,5998,8013,1,71.429,5,normal
1780604676.840747,14.407403599994723,236432,0.051758,-0.016113,1.045898,3.824427,3.389313,0.083969,1.047302,5.110845,8018,14019,6000,8018,1,71.429,4,normal
1780604676.8715644,14.438220899988664,236463,0.056641,-0.006592,1.053955,0.282443,2.10687,-0.519084,1.055496,2.188178,8021,14024,6002,8021,0,71.429,0,normal
1780604676.904221,14.470877699990524,236494,0.046387,-0.049561,1.067383,1.038168,2.122137,-1.099237,1.069539,2.605682,8022,14026,6003,8022,0,71.429,5,normal
1780604676.9352646,14.501921099988976,236525,0.045166,-0.025146,1.048096,4.061068,4.0229,-0.152672,1.04937,5.718332,8025,14030,6004,8025,0,71.429,6,normal
1780604676.9655027,14.532159399997909,236556,0.024902,0.002686,1.040527,-0.267176,2.603053,-1.21374,1.040829,2.884516,8026,14032,6005,8026,0,71.429,5,normal
1780604676.9974663,14.564122799987672,236587,0.035645,-0.029297,1.056641,1.687023,2.587786,-0.564886,1.057648,3.140347,8030,14038,6007,8030,0,71.429,0,normal
1780604677.0291846,14.595841199989081,236619,0.026367,-0.012451,1.055664,2.80916,2.389313,-0.396947,1.056067,3.709146,8033,14042,6008,8033,0,71.429,5,normal
1780604677.0604627,14.627119400000083,236650,0.049072,0.02832,1.046875,-0.122137,2.763359,-1.038168,1.048407,2.954465,8036,14046,6009,8036,0,71.429,5,normal
1780604677.0908399,14.657496399988304,236681,0.032227,-0.056641,1.056396,2.473282,2.465649,-0.206107,1.058405,3.498433,8038,14051,6012,8038,1,71.429,14,normal
1780604677.1205752,14.6872316999943,236712,0.022461,-0.022949,1.055176,1.969466,2.656489,-0.274809,1.055664,3.31832,8040,14054,6013,8040,0,71.429,5,normal
1780604677.1514056,14.718062200001441,236743,0.044678,0.000488,1.055176,0.435114,2.801527,-1.068702,1.056121,3.029852,8042,14058,6015,8042,0,71.429,5,normal
1780604677.1837716,14.750428100000136,236774,0.03833,-0.063477,1.041504,2.961832,2.503817,-0.244275,1.04414,3.886028,8043,14061,6017,8043,1,71.429,18,normal
1780604677.2160788,14.782735299988417,236806,0.052734,0.023193,1.048096,0.89313,3.114504,-0.320611,1.049678,3.255857,8045,14064,6018,8045,0,71.174,5,normal
1780604677.2477582,14.814414699998451,236838,0.048828,-0.055908,1.078613,0.427481,2.641221,-0.916031,1.081164,2.828056,8047,14068,6020,8047,0,71.174,1,normal
1780604677.2788515,14.845507999998517,236869,0.044189,-0.023682,1.048096,4.053436,3.435115,-0.175573,1.049294,5.316124,8050,14073,6022,8050,1,71.174,3,normal
1780604677.3091145,14.875771099992562,236900,0.037354,-0.002197,1.039062,-0.015267,2.236641,-1.10687,1.039736,2.495588,8053,14078,6024,8053,0,71.174,5,normal
1780604677.339988,14.906644599992433,236931,0.030273,-0.049316,1.065186,1.419847,2.641221,-0.633588,1.066756,3.064874,8055,14082,6026,8055,0,71.174,1,normal
1780604677.371646,14.938302399998065,236962,0.048096,-0.040771,1.057861,2.969466,3.519084,-0.282443,1.059739,4.613182,8058,14086,6027,8058,0,71.174,5,normal
1780604677.402389,14.969045599995297,236993,0.031006,-0.015625,1.042725,-0.572519,2.862595,-0.770992,1.043302,3.01938,8059,14088,6028,8059,0,71.174,5,normal
1780604677.4332457,14.999902299998212,237024,0.03833,-0.029541,1.055908,1.938931,2.183206,-0.473282,1.057016,2.958013,8061,14092,6030,8061,0,71.174,0,normal
1780604677.4650128,15.031669299991336,237055,0.061279,-0.036377,1.0625,3.358779,2.572519,-0.450382,1.064887,4.254656,8065,14098,6032,8065,0,71.174,5,normal
1780604677.4951265,15.061783099998138,237086,0.050537,-0.005127,1.031738,-0.061069,2.916031,-1.381679,1.032988,3.227383,8067,14102,6034,8067,0,78.571,0,normal
1780604677.5276058,15.094262300000992,237117,0.049805,-0.063721,1.049561,2.137405,2.442748,-0.160305,1.052672,3.249802,8068,14105,6036,8068,1,78.571,18,normal
1780604677.5583162,15.124972799996613,237149,0.037598,-0.022705,1.052246,1.931298,2.656489,-0.587786,1.053162,3.336516,8072,14110,6037,8072,0,78.571,5,normal
1780604677.58971,15.156366600000183,237180,0.071289,-0.008301,1.050537,0.10687,2.984733,-1.236641,1.052986,3.232543,8073,14112,6038,8073,0,78.571,5,normal
1780604677.6201928,15.186849399993662,237211,0.044189,-0.072021,1.051514,2.137405,3.748092,-0.412214,1.054903,4.334352,8074,14117,6042,8074,1,78.571,18,normal
1780604677.650031,15.216687599997385,237242,0.066406,-0.009033,1.053711,1.534351,2.801527,-0.091603,1.05584,3.195493,8076,14120,6043,8076,0,78.571,5,normal
1780604677.694156,15.260812599997735,237272,0.032959,-0.016846,1.057617,-0.343511,2.679389,-1.282443,1.058265,2.990282,8077,14122,6044,8077,0,78.571,5,normal
1780604677.7118666,15.278523100001621,237303,0.048096,-0.067139,1.041016,2.412214,3.374046,-0.70229,1.044286,4.206682,8079,14127,6047,8079,1,78.571,14,normal
1780604677.7442465,15.310903099991265,237334,0.053467,-0.020508,1.057373,1.290076,2.900763,-0.10687,1.058922,3.176499,8081,14130,6048,8081,0,78.571,5,normal
1780604677.7753906,15.342047199999797,237365,0.016602,-0.047119,1.056885,0.145038,2.175573,-0.832061,1.058065,2.333769,8084,14134,6049,8084,0,60.932,5,normal
1780604677.8078141,15.37447070000053,237397,0.036133,-0.014648,1.050781,4.0229,3.954198,-0.129771,1.051504,5.642362,8086,14137,6050,8086,1,60.932,17,normal
1780604677.8392186,15.405875299999025,237429,0.023926,-0.013428,1.030518,-0.236641,2.992366,-0.900763,1.030883,3.133948,8088,14140,6051,8088,0,60.932,5,normal
1780604677.8710647,15.437721199996304,237461,0.042969,-0.061035,1.056152,1.969466,2.580153,-0.358779,1.058787,3.265686,8089,14142,6052,8089,0,60.932,4,normal
1780604677.9014904,15.468146999992314,237492,0.038086,-0.02417,1.051025,3.10687,2.160305,-0.427481,1.051993,3.808189,8093,14148,6054,8093,0,60.932,5,normal
1780604677.932979,15.499635599990143,237523,0.055664,0.019287,1.054443,-0.175573,3.435115,-1.061069,1.056088,3.599542,8095,14152,6056,8095,0,60.932,5,normal
1780604677.9631264,15.529782999990857,237554,0.028809,-0.077881,1.056152,2.007634,1.946565,-0.129771,1.059412,2.799384,8097,14157,6059,8097,1,60.932,14,normal
1780604677.9952865,15.561942999993335,237585,0.034912,-0.019287,1.061768,2.015267,2.328244,-0.351145,1.062516,3.099246,8099,14160,6060,8099,0,60.932,5,normal
1780604678.0264993,15.593155800001114,237616,0.045166,-0.005127,1.055176,0.374046,2.51145,-0.954198,1.056154,2.712524,8100,14162,6061,8100,0,63.745,5,normal
1780604678.057404,15.624060599991935,237647,0.050781,-0.072998,1.039551,2.267176,3.259542,-0.664122,1.043347,4.025638,8102,14167,6064,8102,1,63.745,3,normal
1780604678.087296,15.653952499997104,237678,0.041748,-0.022949,1.053223,1.427481,2.549618,-0.221374,1.0543,2.930403,8105,14172,6066,8105,0,63.745,5,normal
1780604678.118999,15.685655499997665,237709,0.047607,-0.017578,1.059082,-0.175573,1.854962,-1.099237,1.060297,2.163338,8107,14176,6068,8107,0,63.745,1,normal
1780604678.1490142,15.715670799996587,237740,0.05127,-0.01001,1.044434,3.816794,3.541985,-0.343511,1.045739,5.218388,8108,14179,6070,8108,1,63.745,18,normal
1780604678.179839,15.746495399987907,237771,0.0625,0.025391,1.041504,1.0,2.954198,-0.290076,1.043686,3.132321,8112,14184,6071,8112,0,63.745,5,normal
1780604678.2111168,15.777773299996625,237801,0.016357,-0.029785,1.04834,0.167939,2.671756,-1.152672,1.04889,2.914641,8113,14186,6072,8113,0,63.745,5,normal
1780604678.2418103,15.808466799993766,237832,0.054443,-0.032959,1.043213,3.732824,3.580153,-0.274809,1.045152,5.179478,8117,14191,6073,8117,1,63.745,18,normal
1780604678.2734942,15.840150799995172,237863,0.044678,0.017822,1.042236,1.19084,2.740458,-0.343511,1.043346,3.007692,8119,14194,6074,8119,0,63.745,5,normal
1780604678.3036613,15.870318000001134,237894,0.036621,-0.072754,1.071289,-0.061069,2.641221,-1.007634,1.074381,2.827562,8120,14196,6075,8120,0,71.942,5,normal
1780604678.3357706,15.902427299995907,237925,0.059326,-0.02124,1.052246,3.763359,3.473282,0.099237,1.054131,5.122148,8123,14201,6077,8123,1,71.942,14,normal
1780604678.366087,15.93274350000138,237956,0.04248,-0.00415,1.040772,0.137405,2.641221,-0.908397,1.041646,2.796447,8127,14206,6078,8127,0,71.942,5,normal
1780604678.3973222,15.963978699990548,237987,0.048096,-0.061035,1.063721,1.129771,2.763359,-0.931298,1.066555,3.127275,8130,14210,6079,8130,0,71.942,5,normal
1780604678.428073,15.994729400001233,238018,0.067139,-0.040527,1.049561,3.427481,3.038168,-0.320611,1.052486,4.591392,8133,14214,6080,8133,0,71.942,5,normal
1780604678.4586034,16.025259899994126,238049,0.041016,-0.015381,1.026367,-0.396947,2.748092,-0.961832,1.027302,2.938485,8134,14216,6081,8134,0,71.942,5,normal
1780604678.4903715,16.057027999995626,238080,0.041504,-0.022461,1.068115,1.763359,3.114504,-0.59542,1.069157,3.628236,8135,14218,6082,8135,0,71.942,5,normal
1780604678.5207655,16.08742209999764,238111,0.042725,-0.038818,1.057129,3.29771,2.641221,-0.282443,1.058704,4.234468,8139,14224,6084,8139,0,71.942,5,normal
1780604678.551328,16.117984500000603,238142,0.039062,0.023682,1.043213,0.137405,2.977099,-1.244275,1.044212,3.229585,8141,14228,6086,8141,0,71.942,5,normal
1780604678.5822165,16.148873199999798,238173,0.030518,-0.04248,1.044189,2.351145,2.557252,0.022901,1.045499,3.473895,8143,14233,6089,8143,1,82.437,14,normal
1780604678.613491,16.18014769999718,238204,0.031982,-0.018555,1.054199,2.221374,2.229008,-0.603053,1.054848,3.204162,8145,14236,6090,8145,0,82.437,5,normal
1780604678.6433027,16.20995920000132,238235,0.050049,0.00708,1.053955,0.091603,2.610687,-1.099237,1.055166,2.834149,8146,14238,6091,8146,0,82.437,5,normal
1780604678.6911724,16.25782889999391,238266,0.045166,-0.085693,1.043457,2.435115,1.984733,-0.610687,1.047944,3.200295,8148,14243,6094,8148,1,82.437,4,normal
1780604678.7078235,16.274480099993525,238298,0.036621,-0.013428,1.041016,1.305344,2.251908,-0.198473,1.041746,2.610442,8151,14248,6096,8151,0,82.437,5,normal
1780604678.7381527,16.304809399996884,238329,0.027344,-0.030273,1.05835,-0.076336,1.885496,-1.099237,1.059135,2.18386,8153,14252,6098,8153,0,82.437,0,normal
1780604678.7701044,16.3367608999979,238360,0.060547,-0.034668,1.049561,3.916031,3.083969,-0.396947,1.051877,5.000373,8155,14255,6099,8155,1,82.437,17,normal
1780604678.80147,16.36812669999199,238391,0.043213,0.012695,1.036865,0.381679,2.564885,-0.045802,1.037843,2.593533,8159,14260,6100,8159,0,82.437,5,normal
1780604678.8323786,16.399035299997195,238422,0.042236,-0.060547,1.067871,0.045802,2.229008,-1.145038,1.07042,2.506329,8161,14264,6102,8161,0,82.437,0,normal
1780604678.8641615,16.430818099994212,238454,0.049561,-0.031006,1.05957,3.549618,4.0,-0.343511,1.061182,5.358898,8164,14268,6103,8164,0,74.733,5,normal
1780604678.8940785,16.460735000000568,238485,0.029541,0.004639,1.034912,-0.19084,2.824427,-0.80916,1.035344,2.94424,8165,14270,6104,8165,0,74.733,5,normal
1780604678.9251895,16.491846199991414,238515,0.050293,-0.025635,1.0625,1.419847,2.78626,-0.59542,1.063998,3.183353,8166,14272,6105,8166,0,74.733,5,normal
1780604678.9563437,16.52300019998802,238546,0.053223,-0.038574,1.056885,3.328244,3.473282,-0.427481,1.058927,4.829456,8170,14278,6107,8170,0,74.733,5,normal
1780604678.9865024,16.55315909998899,238577,0.02832,-0.011475,1.03833,-0.061069,2.335878,-0.908397,1.03878,2.507038,8171,14280,6108,8171,0,74.733,5,normal
1780604679.0184643,16.585120999996434,238608,0.041992,-0.028076,1.053711,2.557252,2.847328,-0.114504,1.054921,3.828828,8172,14284,6111,8172,0,74.733,4,normal
1780604679.04726,16.613916699992842,238639,0.025879,-0.007324,1.050781,3.267176,3.0,-0.083969,1.051125,4.436382,8175,14288,6112,8175,0,74.733,5,normal
1780604679.0779727,16.64462919998914,238669,0.05835,-0.000488,1.039795,-0.038168,2.694656,-0.977099,1.041431,2.866593,8176,14290,6113,8176,0,74.733,5,normal
1780604679.1088881,16.67554479998944,238700,0.050781,-0.032715,1.065918,2.473282,2.618321,-0.167939,1.067628,3.60568,8177,14292,6114,8177,0,74.733,5,normal
1780604679.141083,16.707739699995727,238731,0.03418,-0.025391,1.055176,2.923664,2.816794,-0.458015,1.056034,4.085574,8181,14298,6116,8181,0,61.372,5,normal
1780604679.1723661,16.739022800000384,238762,0.026367,0.014404,1.045898,-0.122137,2.938931,-1.320611,1.04633,3.224321,8183,14302,6118,8183,0,61.372,5,normal
1780604679.203617,16.770273799993447,238793,0.037354,-0.081787,1.050049,1.946565,2.374046,-0.091603,1.053891,3.071417,8185,14307,6121,8185,1,61.372,14,normal
1780604679.2338119,16.800468399989768,238824,0.018066,-0.019775,1.056641,2.045802,2.740458,-0.70229,1.05698,3.491221,8187,14310,6122,8187,0,61.372,5,normal
1780604679.26478,16.831436599997687,238855,0.048096,-0.004639,1.048584,0.114504,2.328244,-1.51145,1.049697,2.778185,8188,14312,6123,8188,0,61.372,5,normal
1780604679.2962704,16.86292699999467,238886,0.034424,-0.079102,1.042969,2.259542,2.916031,-0.549618,1.04653,3.729724,8190,14317,6126,8190,1,61.372,3,normal
1780604679.326058,16.89271459999145,238917,0.036865,-0.019043,1.053223,1.839695,2.519084,-0.435114,1.05404,3.149537,8193,14322,6128,8193,0,61.372,5,normal
1780604679.358117,16.924773799997638,238948,0.036621,-0.027832,1.061768,-0.099237,2.183206,-1.015267,1.062763,2.409773,8195,14326,6130,8195,0,61.372,1,normal
1780604679.3887174,16.95537399999739,238979,0.066406,-0.063232,1.048828,3.664122,2.908397,-0.328244,1.052829,4.689596,8196,14329,6132,8196,1,61.372,18,normal
1780604679.4194074,16.986063999996986,239010,0.056885,0.020264,1.045898,1.152672,3.122137,-0.435114,1.04764,3.356444,8200,14334,6133,8200,0,68.1,5,normal
1780604679.4520946,17.018751199997496,239042,0.028809,-0.048584,1.066162,0.10687,2.450382,-1.435114,1.067657,2.841715,8202,14338,6135,8202,0,68.1,0,normal
1780604679.4844892,17.05114589999721,239074,0.046387,-0.036377,1.054443,3.198473,3.610687,0.229008,1.05609,4.829052,8205,14342,6136,8205,0,68.1,5,normal
1780604679.5162122,17.082868699988467,239106,0.046631,0.005127,1.040527,-0.076336,2.923664,-0.885496,1.041584,3.055772,8206,14344,6137,8206,0,68.1,5,normal
1780604679.5468578,17.113514399999985,239137,0.047119,-0.065918,1.056152,2.007634,2.427481,0.10687,1.059256,3.151932,8207,14347,6139,8207,1,68.1,18,normal
1780604679.579458,17.14611449999211,239169,0.047119,-0.016602,1.061768,1.931298,2.709924,-0.687023,1.062942,3.397881,8211,14352,6140,8211,0,68.1,5,normal
1780604679.6092994,17.175956099992618,239200,0.054199,-0.010742,1.047119,0.091603,3.129771,-0.961832,1.048576,3.275512,8212,14354,6141,8212,0,68.1,5,normal
1780604679.6418135,17.20847009999852,239231,0.041504,-0.071045,1.046875,2.541985,3.374046,-0.442748,1.050103,4.247576,8213,14359,6145,8213,1,68.1,18,normal
1780604679.673015,17.23967179999454,239263,0.062256,-0.011475,1.049561,1.320611,2.312977,-0.175573,1.051468,2.669214,8215,14362,6146,8215,0,59.289,5,normal
1780604679.7047973,17.27145390000078,239294,0.033447,-0.027344,1.059326,0.229008,2.061069,-1.129771,1.060207,2.361532,8216,14364,6147,8216,0,59.289,5,normal
1780604679.7365694,17.30322599998908,239325,0.047119,-0.010254,1.052246,3.442748,3.748092,-0.206107,1.05335,5.093446,8218,14367,6148,8218,1,59.289,17,normal
1780604679.7656085,17.332265099990764,239356,0.045898,0.002686,1.038574,0.832061,2.541985,-0.503817,1.039591,2.721736,8221,14372,6150,8221,0,59.289,5,normal
1780604679.7977583,17.364414899988333,239387,0.029297,-0.064697,1.060791,0.679389,2.381679,-0.931298,1.063166,2.645994,8224,14376,6151,8224,0,59.289,5,normal
1780604679.8279214,17.39457789999142,239418,0.037354,-0.012695,1.041016,3.374046,4.29771,-0.091603,1.041763,5.464694,8227,14381,6153,8227,0,59.289,15,normal
1780604679.857865,17.424521599998116,239448,0.058105,-0.010254,1.030029,0.480916,2.267176,-0.709924,1.031718,2.423914,8229,14384,6154,8229,0,59.289,5,normal
1780604679.8880844,17.4547409999941,239480,0.044434,-0.026611,1.061523,1.29771,2.59542,-1.053435,1.062786,3.087067,8230,14386,6155,8230,0,59.289,5,normal
1780604679.9198349,17.48649139999179,239510,0.050293,-0.026611,1.047363,3.366412,4.38168,-0.160305,1.048908,5.527888,8234,14392,6157,8234,0,59.289,5,normal
1780604679.9497597,17.516416300000856,239541,0.027588,0.000732,1.028809,0.068702,2.709924,-1.129771,1.029179,2.936799,8235,14394,6158,8235,0,71.942,5,normal
1780604679.9818528,17.54850939998869,239572,0.043701,-0.027344,1.05957,1.503817,3.175573,-0.541985,1.060824,3.555204,8236,14396,6159,8236,0,71.942,5,normal
1780604680.0125358,17.57919249999395,239603,0.043213,-0.040527,1.051514,3.038168,2.961832,-0.10687,1.053181,4.24433,8239,14400,6160,8239,0,71.942,5,normal
1780604680.0437505,17.610407000000123,239634,0.047363,-0.009277,1.034912,0.076336,3.015267,-0.80916,1.036037,3.122884,8242,14404,6161,8242,0,71.942,5,normal
1780604680.0745385,17.64119509999,239665,0.063477,-0.028564,1.056152,2.221374,2.419847,-0.366412,1.058444,3.305211,8244,14408,6163,8244,0,71.942,0,normal
1780604680.1063113,17.672967799997423,239696,0.033447,-0.02002,1.060547,3.091603,2.687023,-0.290076,1.061263,4.106366,8247,14412,6164,8247,0,71.942,5,normal
1780604680.1362429,17.702899500000058,239727,0.067627,0.020996,1.052002,-0.030534,3.045802,-1.236641,1.054382,3.287419,8248,14414,6165,8248,0,71.942,5,normal
1780604680.168687,17.73534369999834,239758,0.042236,-0.051758,1.05249,2.015267,2.51145,-0.129771,1.054608,3.222658,8249,14417,6167,8249,1,71.942,18,normal
1780604680.199839,17.766495699994266,239790,0.036377,-0.019775,1.057617,2.061069,2.328244,-0.519084,1.058427,3.152487,8251,14420,6168,8251,0,71.942,5,normal
1780604680.2312717,17.79792839998845,239821,0.046875,-0.015625,1.053711,-0.030534,2.603053,-0.992366,1.054869,2.785967,8253,14424,6170,8253,0,64.286,5,normal
1780604680.2622032,17.828859799992642,239852,0.069092,-0.059326,1.049316,2.633588,2.450382,-0.435114,1.053261,3.623462,8254,14429,6174,8254,1,64.286,17,normal
1780604680.292504,17.85916069999803,239883,0.055176,-0.022461,1.055176,1.877863,2.427481,0.152672,1.056856,3.072839,8258,14434,6175,8258,0,64.286,5,normal
1780604680.324456,17.891112599987537,239914,0.022949,-0.021484,1.05542,0.21374,2.305344,-1.061069,1.055888,2.546794,8259,14436,6176,8259,0,64.286,5,normal
1780604680.35406,17.92071659999783,239945,0.042969,0.003174,1.047363,3.854962,3.343511,-0.053435,1.048249,5.1032,8261,14439,6177,8261,1,64.286,17,normal
1780604680.3856113,17.952267899992876,239976,0.047607,0.023438,1.038086,1.244275,2.89313,-0.480916,1.039441,3.18586,8264,14444,6179,8264,0,64.286,6,normal
1780604680.4157228,17.982379399996717,240007,0.036621,-0.054688,1.062256,-0.114504,2.59542,-0.984733,1.064293,2.778312,8265,14446,6180,8265,0,64.286,5,normal
1780604680.447242,18.01389869999548,240038,0.046631,-0.009033,1.049316,3.839695,3.480916,0.045802,1.050391,5.182869,8267,14449,6181,8267,1,64.286,17,normal
1780604680.478287,18.04494349999004,240069,0.059326,0.005371,1.036865,0.412214,2.442748,-0.496183,1.038575,2.526487,8270,14454,6183,8270,0,64.286,0,normal
1780604680.5089817,18.07563819999632,240099,0.035156,-0.054688,1.059814,0.022901,2.564885,-1.183206,1.061807,2.824737,8271,14456,6184,8271,0,64.748,5,normal
1780604680.540287,18.106943499995396,240130,0.033691,-0.013672,1.033447,3.687023,3.923664,0.091603,1.034087,5.384948,8274,14461,6186,8274,1,64.748,3,normal
1780604680.570367,18.137023699993733,240161,0.035156,0.007813,1.032471,0.580153,2.564885,-0.732824,1.033099,2.72988,8276,14464,6187,8276,0,64.748,5,normal
1780604680.6005132,18.167169899999863,240191,0.040039,-0.04834,1.062988,-0.053435,2.801527,-1.114504,1.06484,3.015548,8277,14466,6188,8277,0,64.748,5,normal
1780604680.6302648,18.196921399998246,240222,0.038086,0.000732,1.046631,3.709924,3.80916,0.0,1.047324,5.317258,8279,14469,6189,8279,1,64.748,16,normal
1780604680.661487,18.22814359999029,240252,0.048096,0.026367,1.041748,1.320611,3.053435,-0.519084,1.043191,3.367035,8281,14472,6190,8281,0,64.748,5,normal
1780604680.693375,18.260031599987997,240283,0.054688,-0.051758,1.061523,0.229008,2.587786,-1.030534,1.064191,2.794832,8284,14476,6191,8284,1,64.748,5,normal
1780604680.7233186,18.28997509999317,240314,0.046631,-0.00415,1.044434,3.763359,3.160305,-0.236641,1.045482,4.92,8288,14481,6192,8288,1,64.748,16,normal
1780604680.7546098,18.321266300001298,240345,0.050049,0.01416,1.032959,0.40458,2.374046,-0.679389,1.034268,2.502269,8292,14486,6193,8292,0,64.748,5,normal
1780604680.7847679,18.351424399996176,240376,0.044189,-0.039795,1.063232,0.977099,2.59542,-0.908397,1.064894,2.918238,8293,14488,6194,8293,0,79.422,5,normal
1780604680.8164399,18.38309649999428,240406,0.041016,-0.022217,1.050293,3.633588,3.89313,-0.40458,1.051328,5.340702,8295,14491,6195,8295,1,79.422,16,normal
1780604680.846987,18.41364369999792,240438,0.030029,0.0,1.046143,0.10687,2.984733,-1.091603,1.046573,3.179882,8298,14496,6197,8298,0,79.422,6,normal
1780604680.8780034,18.444659899992985,240468,0.061035,-0.061768,1.064453,0.59542,2.954198,-0.59542,1.067989,3.071862,8299,14498,6198,8299,0,79.422,5,normal
1780604680.9090617,18.47571829998924,240499,0.064453,-0.036133,1.058838,3.580153,3.244275,-0.320611,1.061413,4.842066,8302,14502,6199,8302,0,79.422,6,normal
1780604680.9393752,18.506031699987943,240530,0.055908,-0.019531,1.037109,0.152672,2.557252,-0.954198,1.038799,2.733741,8304,14506,6201,8304,0,79.422,0,normal
1780604680.970386,18.537042500000098,240561,0.036133,-0.02124,1.057129,1.381679,2.740458,-0.641221,1.057959,3.135333,8305,14508,6202,8305,0,79.422,5,normal
1780604681.001846,18.568502699999954,240592,0.05249,-0.039795,1.054443,3.412214,3.496183,-0.251908,1.056499,4.891826,8309,14514,6204,8309,0,79.422,5,normal
1780604681.0325222,18.59917879999557,240623,0.0354,-0.018555,1.039551,-0.022901,3.091603,-1.068702,1.040319,3.271186,8310,14516,6205,8310,0,79.422,5,normal
1780604681.0627701,18.62942669999029,240654,0.038086,-0.0354,1.0625,2.083969,2.824427,-0.152672,1.063772,3.51335,8311,14518,6206,8311,0,64.748,4,normal
1780604681.0952663,18.661922999992385,240685,0.043457,-0.018799,1.045898,2.419847,3.198473,-0.480916,1.04697,4.039452,8314,14522,6207,8314,0,64.748,5,normal
1780604681.1260512,18.692707700000028,240716,0.058594,0.018799,1.05249,-0.183206,2.801527,-0.961832,1.054288,2.967699,8315,14524,6208,8315,0,64.748,5,normal
1780604681.1565464,18.723202900000615,240747,0.027588,-0.079834,1.05542,1.839695,2.29771,-0.022901,1.058794,2.943548,8317,14531,6213,8317,1,64.748,3,normal
1780604681.1875997,18.7542562999879,240778,0.032959,-0.027588,1.063232,2.244275,2.145038,-0.610687,1.064101,3.164,8320,14536,6215,8320,0,64.748,0,normal
1780604681.2177312,18.784387799998512,240809,0.052002,-0.009277,1.060547,-0.061069,2.961832,-1.08397,1.061862,3.154548,8321,14538,6216,8321,0,64.748,5,normal
1780604681.2494304,18.81608689999848,240840,0.0271,-0.076172,1.042969,2.183206,3.40458,-0.251908,1.046098,4.052285,8322,14541,6218,8322,1,64.748,19,normal
1780604681.2806318,18.847288399992976,240871,0.041748,-0.019287,1.051025,1.343511,2.923664,0.007634,1.052031,3.217591,8324,14544,6219,8324,0,64.748,5,normal
1780604681.3119755,18.87863199999265,240902,0.015137,-0.021729,1.051514,0.053435,2.229008,-1.030534,1.051847,2.456284,8326,14548,6221,8326,0,64.748,5,normal
1780604681.3425398,18.90919639999629,240933,0.063232,-0.057373,1.042969,2.89313,3.076336,-0.221374,1.046458,4.228836,8327,14551,6223,8327,1,57.348,18,normal
1780604681.3781004,18.944756999990204,240969,0.045654,-0.018799,1.051514,1.671756,2.236641,0.0,1.052672,2.79237,8329,14554,6224,8329,0,57.348,5,normal
1780604681.409641,18.976297499990324,241000,0.047363,-0.056396,1.054932,1.832061,2.465649,0.045802,1.057499,3.072128,8331,14559,6227,8331,1,57.348,15,normal
1780604681.4414458,19.008102499996312,241032,0.027588,-0.014404,1.060547,1.725191,2.19084,-0.40458,1.061003,2.817756,8333,14562,6228,8333,0,57.348,5,normal
1780604681.4737012,19.040357799996855,241064,0.018311,-0.038818,1.064697,0.061069,2.282443,-1.10687,1.065562,2.537407,8336,14566,6229,8336,0,57.348,5,normal
1780604681.5065315,19.073188099995605,241096,0.032959,-0.010742,1.035644,3.748092,3.862595,-0.389313,1.036224,5.396239,8339,14571,6231,8339,1,57.348,14,normal
1780604681.537236,19.103892599989194,241127,0.035889,-0.00415,1.023193,0.389313,2.931298,-0.89313,1.023831,3.088972,8341,14574,6232,8341,0,57.348,5,normal
1780604681.567556,19.134212499993737,241158,0.036377,-0.062256,1.062744,1.160305,2.717557,-0.908397,1.065187,3.091377,8342,14576,6233,8342,0,57.348,5,normal
1780604681.5987806,19.165437199990265,241189,0.04541,-0.034912,1.050781,3.557252,3.603053,-0.351145,1.052341,5.075366,8346,14582,6235,8346,0,74.219,6,normal
1780604681.6291919,19.19584849999228,241220,0.031494,-0.011719,1.033936,0.10687,2.862595,-1.030534,1.034481,3.044318,8348,14586,6237,8348,0,74.219,5,normal
1780604681.660508,19.22716439999931,241251,0.066162,-0.018555,1.062988,1.717557,2.694656,-0.465649,1.065207,3.229242,8350,14590,6239,8350,0,74.219,0,normal
1780604681.6913373,19.257993899998837,241282,0.048828,-0.029297,1.047607,3.076336,3.282443,-0.251908,1.049154,4.505744,8353,14594,6240,8353,0,74.219,6,normal
1780604681.7225337,19.289190399998915,241313,0.058594,0.000244,1.037354,0.351145,2.610687,-1.022901,1.039007,2.82583,8356,14598,6241,8356,0,74.219,6,normal
1780604681.754201,19.32085749998805,241344,0.041016,-0.025635,1.060303,2.167939,3.122137,0.045802,1.061405,3.801289,8358,14602,6243,8358,0,74.219,0,normal
1780604681.786867,19.353523499987205,241375,0.038818,-0.020752,1.048584,2.877863,2.961832,-0.099237,1.049507,4.130906,8361,14606,6244,8361,0,74.219,5,normal
1780604681.815359,19.38201579998713,241406,0.043701,0.00708,1.047119,-0.137405,3.473282,-1.076336,1.048055,3.638828,8362,14608,6245,8362,0,74.219,5,normal
1780604681.847093,19.41374979999091,241437,0.015137,-0.075195,1.049072,1.961832,2.061069,-0.175573,1.051873,2.850897,8363,14611,6247,8363,1,74.219,18,normal
1780604681.8779624,19.444618900000933,241468,0.016602,-0.014893,1.058106,2.129771,3.114504,-0.40458,1.05834,3.7947,8367,14616,6248,8367,0,75.269,6,normal
1780604681.9074686,19.474125199994887,241499,0.053223,-0.001709,1.049805,-0.083969,2.816794,-0.908397,1.051154,2.960838,8369,14620,6250,8369,0,75.269,5,normal
1780604681.9402492,19.506905899994308,241530,0.039551,-0.08374,1.046875,1.656489,3.290076,-0.458015,1.050963,3.711918,8370,14625,6254,8370,1,75.269,18,normal
1780604681.9690163,19.535672799989698,241561,0.041016,-0.016357,1.054932,1.618321,2.59542,-0.442748,1.055855,3.0905,8374,14630,6255,8374,0,75.269,5,normal
1780604682.0002406,19.566897199998493,241591,0.044922,-0.00293,1.062256,-0.114504,3.312977,-1.19084,1.063209,3.522361,8375,14632,6256,8375,0,75.269,5,normal
1780604682.032153,19.598809499992058,241622,0.035156,-0.088623,1.046387,2.038168,3.290076,-0.183206,1.050721,3.87457,8376,14635,6258,8376,1,75.269,18,normal
1780604682.063554,19.630210599993006,241654,0.030762,-0.015625,1.062256,1.419847,2.931298,-0.396947,1.062816,3.281164,8379,14640,6260,8379,0,75.269,5,normal
1780604682.094864,19.661520399997244,241685,0.010498,-0.027344,1.052978,0.19084,1.977099,-0.931298,1.053386,2.193777,8382,14644,6261,8382,0,75.269,5,normal
1780604682.1261785,19.692835199995898,241716,0.048096,-0.016113,1.04126,3.48855,3.290076,-0.458015,1.042494,4.81709,8383,14647,6263,8383,1,75.269,18,normal
1780604682.1561377,19.72279419998813,241747,0.065918,-0.000732,1.052002,1.778626,2.603053,-0.152672,1.054065,3.156376,8386,14652,6265,8386,0,68.1,1,normal
1780604682.1868513,19.753507899993565,241777,0.018311,-0.011963,1.056396,-0.099237,2.320611,-0.854962,1.056623,2.475084,8387,14654,6266,8387,0,68.1,5,normal
1780604682.2172828,19.78393929998856,241808,0.056885,-0.05542,1.044678,3.656489,2.618321,-0.343511,1.047692,4.510378,8389,14659,6269,8389,1,68.1,3,normal
1780604682.2481463,19.814802799999597,241839,0.039551,0.014404,1.035644,1.465649,2.954198,-0.40458,1.0365,3.322514,8391,14662,6270,8391,0,68.1,5,normal
1780604682.2805884,19.84724489999644,241870,0.025391,-0.045166,1.063477,0.282443,2.061069,-0.969466,1.064738,2.295134,8392,14664,6271,8392,0,68.1,5,normal
1780604682.3107553,19.877411800000118,241901,0.031738,-0.025879,1.047607,3.824427,3.0,-0.305344,1.048408,4.870264,8394,14667,6272,8394,1,68.1,17,normal
1780604682.3414078,19.908064299990656,241932,0.047119,-0.005371,1.032227,0.549618,2.366412,-0.40458,1.033315,2.462858,8396,14670,6273,8396,0,68.1,5,normal
1780604682.3726268,19.9392833999882,241963,0.043701,-0.052734,1.0625,0.328244,2.19084,-1.312977,1.064705,2.575157,8400,14676,6275,8400,0,68.1,1,normal
1780604682.4031742,19.9698306999926,241994,0.054443,-0.029053,1.045898,3.977099,3.89313,0.068702,1.047717,5.565833,8402,14679,6276,8402,1,68.1,17,normal
1780604682.4341762,20.000832699995954,242025,0.026855,-0.000244,1.027344,0.099237,2.366412,-1.061069,1.027695,2.595308,8406,14684,6277,8406,0,71.942,5,normal
1780604682.4658098,20.03246629999194,242056,0.055176,-0.020996,1.066162,1.496183,3.091603,-0.564886,1.067795,3.480757,8407,14686,6278,8407,0,71.942,5,normal
1780604682.4973533,20.06400980000035,242088,0.060791,-0.024902,1.047852,2.946565,3.335878,-0.839695,1.049909,4.529394,8410,14690,6279,8410,0,71.942,5,normal
1780604682.5285995,20.095256000000518,242119,0.047119,0.007813,1.041504,0.541985,2.641221,-1.236641,1.042598,2.966324,8412,14694,6281,8412,0,71.942,5,normal
1780604682.5602436,20.126900199989905,242149,0.067871,-0.022705,1.058838,1.793893,2.946565,-0.351145,1.061254,3.467506,8413,14696,6282,8413,0,71.942,4,normal
1780604682.591456,20.158112499993877,242181,0.015869,-0.019287,1.050049,2.396947,2.916031,-0.435114,1.050346,3.799725,8416,14700,6283,8416,0,71.942,5,normal
1780604682.620718,20.18737469999178,242212,0.049072,0.001465,1.056152,0.198473,2.732824,-1.221374,1.057293,2.999912,8418,14704,6285,8418,0,71.942,1,normal
1780604682.6522522,20.218908899987582,242243,0.033447,-0.083008,1.047363,1.824428,2.442748,-0.21374,1.05118,3.056344,8420,14709,6288,8420,1,71.942,3,normal
1780604682.6834955,20.25015199999325,242274,0.029053,-0.01709,1.063232,2.236641,2.656489,-0.251908,1.063766,3.481803,8423,14714,6290,8423,0,71.942,5,normal
1780604682.7151394,20.281795899994904,242305,0.065674,-0.010742,1.050537,0.198473,2.679389,-1.053435,1.052643,2.88587,8425,14718,6292,8425,0,67.857,0,normal
1780604682.745896,20.31255269999383,242336,0.067383,-0.072266,1.05127,2.053435,2.435115,-0.458015,1.055903,3.218098,8426,14721,6294,8426,1,67.857,18,normal
1780604682.777219,20.343875599995954,242368,0.056641,-0.003906,1.053467,1.519084,2.320611,-0.160305,1.054996,2.778228,8428,14724,6295,8428,0,67.857,5,normal
1780604682.809215,20.37587160000112,242399,0.042969,-0.030273,1.070557,0.076336,2.519084,-0.900763,1.071846,2.676375,8429,14726,6296,8429,0,67.857,5,normal
1780604682.8397753,20.40643179998733,242430,0.050293,-0.012451,1.043213,3.458015,3.496183,-0.343511,1.044499,4.929418,8434,14733,6298,8434,1,67.857,3,normal
1780604682.8709936,20.437650199994096,242461,0.043701,0.015625,1.047363,1.198473,2.320611,-0.419847,1.048391,2.645344,8437,14738,6300,8437,0,67.857,0,normal
1780604682.9021065,20.468762999997125,242492,0.036133,-0.064697,1.062012,0.541985,2.442748,-0.961832,1.064594,2.68065,8438,14740,6301,8438,0,67.857,5,normal
1780604682.9332356,20.499892199994065,242524,0.062012,-0.043213,1.048584,3.48855,3.59542,-0.541985,1.051304,5.038926,8442,14746,6303,8442,0,67.857,5,normal
1780604682.963556,20.530212599987863,242555,0.022461,-0.005371,1.025146,0.091603,2.78626,-0.984733,1.025407,2.956574,8443,14748,6304,8443,0,72.0,5,normal
1780604682.9965284,20.56318489999103,242586,0.05957,-0.020264,1.047852,1.870229,2.664122,-0.335878,1.049739,3.272326,8446,14752,6305,8446,0,72.0,5,normal
1780604683.0268912,20.5935477999883,242617,0.057861,-0.032227,1.053467,3.450382,3.862595,-0.381679,1.055547,5.193309,8449,14756,6306,8449,0,72.0,6,normal
1780604683.0572567,20.62391339999158,242648,0.041016,0.00415,1.039795,0.251908,2.259542,-1.114504,1.040612,2.532016,8450,14758,6307,8450,0,72.0,5,normal
1780604683.0872242,20.653880899990327,242678,0.058594,-0.023926,1.05835,1.564886,2.59542,-0.549618,1.06024,3.080122,8451,14760,6308,8451,0,72.0,5,normal
1780604683.1171417,20.68379840000125,242708,0.046875,-0.036133,1.059814,3.847328,3.603053,-0.366412,1.061466,5.283766,8455,14766,6310,8455,0,72.0,5,normal
1780604683.1487029,20.715359399997396,242739,0.040771,-0.009521,1.042969,-0.122137,2.610687,-1.145038,1.043809,2.853369,8457,14770,6312,8457,0,72.0,5,normal
1780604683.1784728,20.745129299990367,242769,0.033203,-0.045654,1.064453,0.633588,2.312977,-1.137405,1.065949,2.654239,8459,14774,6314,8459,0,72.0,0,normal
1780604683.2098029,20.77645949998987,242800,0.036377,-0.0354,1.052978,3.435115,3.954198,-0.526718,1.054201,5.264326,8462,14778,6315,8462,0,72.0,5,normal
1780604683.240568,20.807224499993026,242831,0.023193,-0.010254,1.020508,0.061069,2.389313,-1.091603,1.020823,2.627574,8463,14780,6316,8463,0,72.464,5,normal
1780604683.2724206,20.839077199998428,242862,0.043213,-0.026855,1.057129,2.061069,2.862595,-0.557252,1.058352,3.571132,8466,14784,6317,8466,0,72.464,1,normal
1780604683.303615,20.870271599997068,242894,0.043457,-0.013672,1.051025,3.076336,3.007634,-0.633588,1.052012,4.348694,8469,14788,6318,8469,0,72.464,5,normal
1780604683.3342135,20.900869999997667,242925,0.039551,0.027588,1.04834,-0.007634,2.687023,-0.977099,1.049448,2.859174,8470,14790,6319,8470,0,72.464,5,normal
1780604683.3660614,20.932718099997146,242956,0.033691,-0.037354,1.064209,1.908397,2.358779,-0.167939,1.065397,3.038753,8471,14793,6321,8471,1,72.464,18,normal
1780604683.3969972,20.963653899991186,242988,0.002197,-0.015625,1.058106,1.89313,2.885496,-0.389313,1.058223,3.47298,8475,14798,6322,8475,0,72.464,5,normal
1780604683.4279058,20.99456239999563,243019,0.03125,-0.01416,1.054688,-0.129771,3.045802,-0.931298,1.055245,3.187642,8476,14800,6323,8476,0,72.464,5,normal
1780604683.4597523,21.026408799996716,243050,0.043701,-0.061768,1.045166,2.977099,2.427481,-0.183206,1.047901,3.845692,8477,14805,6327,8477,1,72.464,18,normal
1780604683.4906075,21.05726399998821,243081,0.052734,-0.023193,1.059814,1.564886,2.526718,-0.267176,1.061379,2.98405,8479,14808,6328,8479,0,64.0,5,normal
1780604683.5208316,21.08748809999088,243112,0.041504,-0.020508,1.056396,0.007634,2.450382,-0.931298,1.05741,2.621401,8480,14810,6329,8480,0,64.0,5,normal
1780604683.5528936,21.119550299990806,243143,0.054688,-0.007813,1.049561,3.603053,3.351145,-0.145038,1.051013,4.922723,8481,14813,6331,8481,1,64.0,18,normal
1780604683.5833411,21.149997599990456,243174,0.057861,0.01709,1.05249,1.206107,2.977099,-0.167939,1.054218,3.216522,8484,14818,6333,8484,0,64.0,5,normal
1780604683.614219,21.18087559999549,243205,0.014893,-0.03833,1.068604,-0.007634,1.977099,-1.221374,1.069394,2.323948,8487,14822,6334,8487,0,64.0,5,normal
1780604683.645138,21.21179449999181,243235,0.07373,-0.056152,1.038086,3.419847,3.259542,-0.244275,1.042215,4.730712,8490,14827,6336,8490,1,64.0,15,normal
1780604683.675016,21.24167239999224,243266,0.068115,-0.013916,1.05835,1.664122,2.557252,0.198473,1.060631,3.057488,8493,14832,6338,8493,0,64.0,0,normal
1780604683.7059782,21.27263479999965,243297,0.047852,-0.057617,1.066406,0.007634,2.465649,-1.236641,1.069033,2.758399,8494,14834,6339,8494,0,64.0,5,normal
1780604683.7548215,21.321478099998785,243328,0.052002,-0.005859,1.054199,3.290076,3.480916,-0.244275,1.055497,4.795941,8497,14839,6341,8497,1,64.0,4,normal
1780604683.7696886,21.33634529999108,243359,0.050293,0.014648,1.043945,0.244275,2.648855,-0.610687,1.045259,2.729293,8499,14842,6342,8499,0,71.942,5,normal
1780604683.8001065,21.366762999998173,243390,0.040771,-0.060059,1.068848,0.335878,2.374046,-1.099237,1.07131,2.637656,8500,14844,6343,8500,0,71.942,5,normal
1780604683.8306735,21.39733009999327,243421,0.037598,-0.025635,1.052246,3.717557,3.519084,-0.435114,1.05323,5.137461,8503,14848,6344,8503,0,71.942,5,normal
1780604683.8617554,21.42841189999308,243452,0.035156,-0.015137,1.027344,0.015267,2.740458,-0.931298,1.028056,2.894418,8506,14852,6345,8506,0,71.942,5,normal
1780604683.8936543,21.460310999987996,243484,0.036133,-0.028564,1.050049,1.885496,2.648855,-0.320611,1.051058,3.267158,8508,14858,6349,8508,0,71.942,1,normal
1780604683.9248867,21.4915433999995,243515,0.041992,-0.019775,1.05835,3.022901,3.396947,-0.641221,1.059367,4.592204,8511,14862,6350,8511,0,71.942,5,normal
1780604683.956906,21.523562599992147,243547,0.068115,-0.01416,1.049072,0.145038,3.351145,-1.053435,1.051377,3.515812,8514,14866,6351,8514,0,71.942,5,normal
1780604683.9897795,21.5564360999997,243579,0.063232,-0.072754,1.039551,2.320611,3.412214,-0.480916,1.04401,4.154482,8515,14869,6353,8515,1,71.942,18,normal
1780604684.0188413,21.58549789999961,243611,0.049561,0.017334,1.046631,1.328244,3.70229,-0.007634,1.047947,3.93335,8517,14872,6354,8517,0,71.429,5,normal
1780604684.0494964,21.616152999995393,243641,0.03125,-0.006348,1.046143,-0.076336,2.282443,-0.839695,1.046628,2.4332,8519,14876,6356,8519,0,71.429,5,normal
1780604684.0815418,21.648198299997603,243671,0.045654,-0.072754,1.045898,2.458015,2.396947,-0.206107,1.049419,3.439429,8520,14881,6360,8520,1,71.429,19,normal
1780604684.1121776,21.678834099991946,243703,0.046875,-0.000244,1.055176,1.29771,2.854962,-0.290076,1.056216,3.149445,8522,14884,6361,8522,0,71.429,5,normal
1780604684.1441176,21.710774099992705,243734,0.024414,-0.027588,1.044189,0.305344,2.114504,-0.847328,1.044839,2.298331,8524,14888,6363,8524,0,71.429,0,normal
1780604684.1747963,21.74145299999509,243765,0.032227,-0.007813,1.04834,3.351145,3.312977,-0.251908,1.048864,4.719052,8526,14891,6364,8526,1,71.429,17,normal
1780604684.2060077,21.772664199990686,243796,0.056152,0.01001,1.048584,1.19084,3.007634,-0.267176,1.050134,3.245819,8529,14896,6366,8529,0,71.429,5,normal
1780604684.2372837,21.803940199999488,243827,0.05542,-0.061523,1.075928,0.534351,1.977099,-1.274809,1.079109,2.412383,8530,14898,6367,8530,0,71.429,5,normal
1780604684.269503,21.836159599988605,243859,0.046387,-0.037354,1.054199,3.374046,3.251908,-0.129771,1.05588,4.68785,8533,14902,6368,8533,0,71.429,5,normal
1780604684.3008802,21.86753669999598,243891,0.0271,-0.011963,1.034668,0.129771,2.877863,-1.175572,1.035092,3.111415,8534,14904,6369,8534,0,60.714,5,normal
1780604684.3319416,21.898598100000527,243922,0.042236,-0.028076,1.052734,2.259542,2.580153,-0.396947,1.053955,3.452577,8536,14908,6371,8536,0,60.714,0,normal
1780604684.3622782,21.928934899988235,243953,0.03833,-0.014893,1.055908,2.923664,3.152672,-0.419847,1.056709,4.320118,8540,14914,6373,8540,0,60.714,5,normal
1780604684.394324,21.960980699994252,243984,0.059814,0.022461,1.047852,0.045802,3.282443,-0.946565,1.049798,3.416506,8542,14918,6375,8542,0,60.714,0,normal
1780604684.4251947,21.991851300001144,244015,0.056641,-0.037842,1.057373,2.21374,2.274809,-0.587786,1.059565,3.228141,8543,14921,6377,8543,1,60.714,18,normal
1780604684.455559,22.022215599994524,244046,0.031494,-0.015137,1.052246,2.519084,2.51145,-0.618321,1.052826,3.610469,8547,14926,6378,8547,0,60.714,5,normal
1780604684.486706,22.053362499995274,244077,0.050049,-0.005127,1.050537,0.198473,2.580153,-0.862595,1.051741,2.727756,8548,14928,6379,8548,0,60.714,5,normal
1780604684.5182042,22.084860699993442,244108,0.020996,-0.071045,1.040772,1.977099,3.618321,-0.473282,1.043405,4.150321,8549,14933,6383,8549,1,60.714,18,normal
1780604684.5501611,22.11681769999268,244140,0.036133,-0.013672,1.051758,1.580153,1.931298,-0.419847,1.052467,2.530428,8551,14936,6384,8551,0,60.714,5,normal
1780604684.5812447,22.147901299991645,244171,0.026611,-0.017334,1.054443,0.030534,2.442748,-0.977099,1.054922,2.631097,8552,14938,6385,8552,0,64.286,5,normal
1780604684.6120315,22.178687999999966,244202,0.045166,-0.01416,1.04541,3.259542,3.328244,-0.198473,1.046481,4.662748,8553,14941,6387,8553,1,64.286,18,normal
1780604684.640932,22.20758859999478,244233,0.056152,0.005371,1.053711,1.580153,2.496183,0.0,1.05522,2.954287,8556,14946,6389,8556,0,64.286,5,normal
1780604684.6733892,22.240045899990946,244263,0.040039,-0.019287,1.048828,-0.030534,2.396947,-1.030534,1.049769,2.609269,8558,14950,6391,8558,0,64.286,5,normal
1780604684.704442,22.271098599987454,244294,0.049316,-0.067139,1.038086,3.374046,3.099237,0.022901,1.041423,4.581482,8560,14955,6394,8560,1,64.286,14,normal
1780604684.7425058,22.30916229999275,244325,0.066895,0.005615,1.042725,1.29771,3.10687,-0.328244,1.044883,3.382963,8562,14958,6395,8562,0,64.286,5,normal
1780604684.7653363,22.33199279999826,244355,0.028809,-0.025391,1.051025,-0.061069,2.267176,-0.465649,1.051727,2.315306,8563,14960,6396,8563,0,64.286,5,normal
1780604684.7959492,22.362605899994378,244387,0.040039,-0.001953,1.047607,3.679389,2.961832,-0.015267,1.048374,4.723408,8565,14965,6399,8565,1,64.286,3,normal
1780604684.827315,22.39397169998847,244418,0.031006,0.000732,1.041992,0.496183,2.51145,-0.40458,1.042454,2.591769,8567,14968,6400,8567,0,64.286,5,normal
1780604684.8596048,22.426261399989016,244449,0.044678,-0.054443,1.074707,0.534351,2.267176,-1.381679,1.077012,2.708257,8568,14970,6401,8568,0,57.554,5,normal
1780604684.8903832,22.457039899993106,244481,0.039551,-0.033203,1.05542,3.274809,3.946565,-0.389313,1.056682,5.143084,8571,14974,6402,8571,0,57.554,5,normal
1780604684.9216094,22.488266000000294,244512,0.026611,-0.012695,1.033203,-0.022901,2.076336,-1.08397,1.033624,2.342368,8574,14978,6403,8574,0,57.554,5,normal
1780604684.9527304,22.519387099993764,244543,0.0354,-0.020264,1.066162,1.534351,2.633588,-0.656489,1.066942,3.117851,8576,14984,6407,8576,0,57.554,0,normal
1780604684.984199,22.550855599998613,244574,0.046143,-0.018799,1.050537,3.007634,3.221374,-0.641221,1.051718,4.453569,8579,14988,6408,8579,0,57.554,6,normal
1780604685.0151904,22.581846999994013,244606,0.049072,0.001221,1.054688,-0.152672,2.80916,-0.89313,1.055829,2.951672,8582,14992,6409,8582,0,57.554,5,normal
1780604685.0471432,22.613799799990375,244638,0.020264,-0.082764,1.03418,1.839695,2.977099,-0.465649,1.037684,3.530499,8583,14995,6411,8583,1,57.554,18,normal
1780604685.0798044,22.646461099997396,244669,0.041748,-0.020996,1.057129,1.496183,3.061069,-0.152672,1.058161,3.410574,8585,14998,6412,8585,0,57.554,5,normal
1780604685.111621,22.678277499988326,244701,0.041748,-0.044678,1.064209,0.068702,2.587786,-0.961832,1.065964,2.761608,8588,15002,6413,8588,0,79.365,5,normal
1780604685.1440127,22.7106691999943,244733,0.059082,-0.018799,1.056396,3.389313,3.862595,-0.21374,1.058214,5.143226,8592,15007,6414,8592,1,79.365,16,normal
1780604685.175714,22.74237069999799,244765,0.035156,-0.016602,1.040527,0.351145,2.335878,-1.21374,1.041253,2.65571,8596,15012,6415,8596,0,79.365,5,normal
1780604685.206829,22.773485599987907,244796,0.043213,-0.024658,1.066162,1.091603,2.717557,-0.816794,1.067322,3.040373,8598,15016,6417,8598,0,79.365,0,normal
1780604685.2371595,22.803816100000404,244827,0.044434,-0.039062,1.067383,3.007634,3.198473,-0.51145,1.069021,4.420144,8601,15020,6418,8601,0,79.365,6,normal
1780604685.2679105,22.83456699999806,244858,0.047607,0.006348,1.035156,0.312977,2.320611,-1.114504,1.03627,2.59332,8603,15024,6420,8603,0,79.365,6,normal
1780604685.298253,22.86490970000159,244888,0.025635,-0.016357,1.062012,1.541985,2.587786,-0.870229,1.062447,3.135547,8604,15026,6421,8604,0,79.365,5,normal
1780604685.3302498,22.896906299996772,244919,0.049072,-0.039795,1.062744,2.618321,3.450382,-0.541985,1.06462,4.365144,8607,15030,6422,8607,0,79.365,6,normal
1780604685.3605313,22.927187900000717,244950,0.033203,-0.015625,1.037109,0.221374,2.40458,-0.923664,1.037758,2.585376,8608,15032,6423,8608,0,79.365,5,normal
1780604685.391193,22.957849400001578,244981,0.050781,-0.036133,1.054443,2.114504,2.839695,-0.458015,1.056284,3.569982,8610,15036,6425,8610,0,78.571,0,normal
1780604685.4216056,22.988262200000463,245012,0.035156,-0.015381,1.059814,3.076336,3.0,-0.374046,1.060509,4.313206,8614,15042,6427,8614,0,78.571,5,normal
1780604685.4522362,23.018892699998105,245042,0.036865,-0.008057,1.041992,0.396947,2.603053,-1.114504,1.042675,2.859296,8616,15046,6429,8616,0,78.571,0,normal
1780604685.4847887,23.051445299992338,245073,0.051758,-0.024902,1.063721,2.21374,2.847328,-0.290076,1.06527,3.618296,8617,15048,6430,8617,0,78.571,5,normal
1780604685.514094,23.080750699999044,245104,0.040771,-0.022949,1.060547,2.679389,2.343511,-0.450382,1.061578,3.588038,8620,15052,6431,8620,0,78.571,5,normal
1780604685.5454633,23.112119999990682,245135,0.062744,0.008301,1.055664,0.419847,3.160305,-1.061069,1.05756,3.36001,8621,15054,6432,8621,0,78.571,5,normal
1780604685.5764267,23.143083399991156,245166,0.046631,-0.050049,1.049316,2.068702,2.541985,-0.320611,1.051544,3.293024,8622,15059,6436,8622,1,78.571,18,normal
1780604685.6087859,23.175442399995518,245198,0.046875,-0.015869,1.05249,1.450382,2.374046,-0.526718,1.053653,2.831454,8624,15062,6437,8624,0,78.571,5,normal
1780604685.6393876,23.206044199992903,245229,0.036377,-0.028564,1.051025,-0.022901,2.564885,-1.007634,1.052043,2.75581,8625,15064,6438,8625,0,78.571,5,normal
1780604685.6703165,23.23697309999261,245260,0.070801,-0.073975,1.039795,2.564885,2.450382,-0.580153,1.044825,3.594382,8627,15069,6441,8627,1,60.932,15,normal
1780604685.7007759,23.267432499997085,245291,0.044678,-0.020996,1.049316,2.259542,2.473282,0.152672,1.050477,3.3535,8629,15072,6442,8629,0,60.932,5,normal
1780604685.7326577,23.299314199990476,245322,0.020264,-0.020264,1.053955,0.053435,2.557252,-0.801527,1.054344,2.680455,8632,15076,6443,8632,0,60.932,5,normal
1780604685.764268,23.33092459999898,245353,0.04248,-0.004883,1.048584,3.610687,3.015267,-0.206107,1.049455,4.708649,8633,15079,6445,8633,1,60.932,18,normal
1780604685.793627,23.360283599991817,245384,0.04248,0.01416,1.041016,1.29771,2.80916,-0.290076,1.041978,3.107986,8635,15082,6446,8635,0,60.932,5,normal
1780604685.825284,23.391940499990596,245415,0.044189,-0.049561,1.063965,0.068702,2.442748,-0.885496,1.066035,2.5992,8636,15084,6447,8636,0,60.932,5,normal
1780604685.8560636,23.42272009998851,245446,0.046143,0.008545,1.043457,3.587786,3.900763,-0.274809,1.044512,5.306947,8639,15089,6449,8639,1,60.932,3,normal
1780604685.8873565,23.45401309999579,245477,0.056641,0.013428,1.040527,0.679389,2.664122,-0.137405,1.042154,2.752816,8642,15094,6451,8642,0,60.932,5,normal
1780604685.9180343,23.48469079998904,245508,0.044678,-0.047363,1.063232,0.572519,2.412214,-1.099237,1.065224,2.711987,8644,15098,6453,8644,0,60.932,1,normal
1780604685.949823,23.516479400001117,245539,0.053711,-0.033936,1.052734,3.740458,3.442748,-0.21374,1.05465,5.088146,8647,15102,6454,8647,0,71.685,5,normal
1780604685.9813762,23.5480327999976,245571,0.039795,-0.016357,1.045654,0.152672,2.19084,-0.923664,1.046539,2.382486,8650,15106,6455,8650,0,71.685,5,normal
1780604686.012895,23.579551599992556,245603,0.043701,-0.029541,1.060303,2.022901,2.305344,-0.496183,1.061614,3.106917,8652,15110,6457,8652,1,71.685,1,normal
1780604686.0444014,23.611058099995716,245634,0.030518,-0.027344,1.057129,2.534351,2.015267,-0.450382,1.057923,3.26911,8655,15114,6458,8655,0,71.685,5,normal
1780604686.0743763,23.641032899991842,245665,0.055664,-0.001465,1.047119,-0.206107,2.603053,-0.900763,1.048599,2.762199,8656,15116,6459,8656,0,71.685,5,normal
1780604686.1068616,23.67351819999749,245696,0.034912,-0.080078,1.044922,2.206107,2.068702,-0.236641,1.048567,3.033552,8657,15119,6461,8657,1,71.685,18,normal
1780604686.1385603,23.70521679999365,245728,0.044922,-0.019043,1.057129,1.778626,2.389313,-0.244275,1.058254,2.988645,8661,15124,6462,8661,0,71.685,5,normal
1780604686.1695137,23.73617039999226,245759,0.036133,-0.031494,1.045166,0.381679,2.198473,-0.946565,1.046264,2.423829,8664,15128,6463,8664,0,71.685,5,normal
1780604686.200671,23.76732759999868,245790,0.064941,-0.025635,1.051758,3.320611,3.29771,-0.396947,1.054073,4.696692,8666,15133,6466,8666,1,75.697,18,normal
1780604686.2309928,23.797649299987825,245821,0.063721,0.002441,1.061279,1.732824,3.183206,0.099237,1.063193,3.625649,8670,15138,6467,8670,0,75.697,5,normal
1780604686.2618618,23.82851849999861,245851,0.041992,-0.024658,1.056641,0.022901,2.083969,-1.290076,1.057762,2.451071,8671,15140,6468,8671,0,75.697,5,normal
1780604686.293013,23.859669599987683,245882,0.056396,-0.069092,1.044434,3.045802,3.282443,-0.755725,1.048235,4.541196,8672,15143,6470,8672,1,75.697,18,normal
1780604686.3224354,23.889091999997618,245913,0.078369,-0.000977,1.04834,1.954198,2.51145,-0.251908,1.051266,3.192136,8675,15148,6472,8675,0,75.697,5,normal
