host_epoch_s,host_elapsed_s,time_ms,ax,ay,az,gx,gy,gz,acc_mag,gyro_mag,pulse_count,edge_count,rise_count,fall_count,state,pulse_rate_hz,last_edge_dt_ms,label
1780590359.551618,0.023274799998034723,188,0.027344,-0.040039,1.055176,1.847328,2.610687,-1.183206,1.056289,3.410027,9,18,9,9,1,0.0,14,normal
1780590359.5830772,0.054734000004827976,219,0.026611,-0.021484,1.068604,2.763359,2.374046,-0.419847,1.069151,3.667222,11,21,10,11,0,0.0,9,normal
1780590359.6126094,0.08426620000682306,250,0.035156,0.004883,1.057129,-0.229008,3.29771,-0.770992,1.057725,3.394372,12,23,11,12,0,48.0,9,normal
1780590359.6441984,0.11585529999865685,280,0.061768,-0.056396,1.052002,1.900763,2.770992,-1.129771,1.055322,3.545093,13,26,13,13,1,48.0,14,normal
1780590359.6746564,0.14631320000626147,312,0.024414,-0.023682,1.064453,3.29771,2.70229,-0.320611,1.064996,4.275518,17,31,14,17,0,48.0,9,normal
1780590359.7068465,0.17850320000434294,342,0.050781,0.006836,1.049072,-0.015267,3.206107,-0.633588,1.050323,3.268148,18,33,15,18,0,48.0,10,normal
1780590359.7368827,0.2085395000030985,373,0.022461,-0.029785,1.04541,1.381679,2.671756,-1.450382,1.046076,3.3393,19,36,17,19,1,48.0,15,normal
1780590359.7665017,0.23815840001043398,403,0.064209,-0.055908,1.048096,3.610687,2.877863,0.290076,1.051548,4.62637,20,38,18,20,1,48.0,13,normal
1780590359.7985644,0.27022130000113975,434,0.032959,0.024902,1.042725,1.068702,3.351145,-0.732824,1.043542,3.592955,22,41,19,22,0,48.0,10,normal
1780590359.8288624,0.3005191999982344,465,0.04248,-0.026123,1.072022,0.633588,2.908397,-2.053435,1.073181,3.616186,23,43,20,23,0,48.0,8,normal
1780590359.8597934,0.33145019999938086,496,0.054932,-0.050049,1.04834,3.29771,2.832061,0.48855,1.05097,4.374259,24,46,22,24,1,48.0,14,normal
1780590359.8896265,0.36128340000868775,526,0.056885,0.009277,1.052246,1.91603,2.80916,-0.633588,1.053823,3.4589,26,49,23,26,0,50.725,9,normal
1780590359.9205694,0.3922261999978218,557,0.05957,-0.006348,1.046875,-0.198473,3.80916,-1.793893,1.048588,4.21511,27,51,24,27,0,50.725,10,normal
1780590359.9525554,0.42421230000036303,588,0.055664,-0.06543,1.040772,3.022901,3.045802,-0.129771,1.044311,4.293213,28,54,26,28,1,50.725,13,normal
1780590359.9827666,0.4544235000066692,619,0.051758,-0.00293,1.078125,2.671756,2.267176,-0.580153,1.079371,3.551752,30,57,27,30,0,50.725,9,normal
1780590360.0146434,0.48630030000640545,650,0.053711,0.013184,1.069336,-0.19084,3.435115,-1.725191,1.070765,3.848729,31,59,28,31,0,50.725,9,normal
1780590360.0460432,0.5176999000104843,682,0.067627,-0.065186,1.033691,2.977099,2.816794,0.19084,1.03795,4.10291,32,62,30,32,1,50.725,14,normal
1780590360.0762877,0.5479446000099415,713,0.024414,0.001709,1.057373,2.534351,2.877863,-0.587786,1.057656,3.8795,34,65,31,34,0,50.725,10,normal
1780590360.106247,0.5779037000029348,744,0.016846,0.009277,1.0625,-0.679389,3.328244,-1.519084,1.062674,3.721074,35,67,32,35,0,50.725,9,normal
1780590360.1378682,0.6095250000071246,774,0.048096,-0.084717,1.027588,2.633588,3.076336,-0.679389,1.032195,4.106239,36,70,34,36,1,50.725,13,normal
1780590360.1693616,0.6410183000116376,805,0.017334,-0.01001,1.059814,3.038168,2.114504,-0.083969,1.060003,3.702518,38,73,35,38,0,43.011,9,normal
1780590360.2002351,0.6718918999977177,836,0.046875,0.017578,1.068848,-0.679389,3.442748,-1.114504,1.07002,3.681875,39,75,36,39,0,43.011,9,normal
1780590360.2308981,0.7025550000107614,867,0.056885,-0.087646,1.035156,2.076336,2.648855,-0.992366,1.040416,3.508902,40,78,38,40,1,43.011,14,normal
1780590360.2621062,0.7337629000103334,898,0.066162,-0.027832,1.056396,3.007634,2.389313,-0.221374,1.058832,3.847555,42,81,39,42,0,43.011,10,normal
1780590360.2933834,0.7650400999991689,929,0.046875,0.021484,1.05542,-0.587786,3.259542,-0.969466,1.056679,3.451082,43,83,40,43,0,43.011,9,normal
1780590360.3242545,0.7959113000106299,960,0.040527,-0.050781,1.038574,1.870229,2.51145,-1.19084,1.040604,3.35011,44,86,42,44,1,43.011,14,normal
1780590360.355859,0.827515900004073,992,0.045898,-0.019775,1.061035,3.114504,2.366412,-0.083969,1.062212,3.912428,46,89,43,46,0,43.011,9,normal
1780590360.3868842,0.8585410000086995,1023,0.033691,0.024902,1.055664,-0.633588,3.40458,-1.229008,1.056495,3.674651,47,91,44,47,0,43.011,10,normal
1780590360.417267,0.8889237999974284,1054,0.034668,-0.054932,1.046631,1.755725,2.29771,-0.885496,1.048645,3.024259,48,94,46,48,1,43.011,14,normal
1780590360.449786,0.9214427000115393,1085,0.037598,-0.019043,1.073242,3.122137,2.251908,-0.351145,1.074069,3.865506,50,97,47,50,0,42.857,9,normal
1780590360.4804358,0.9520926999975927,1117,0.053711,0.009521,1.056396,-0.351145,3.290076,-1.267176,1.057804,3.543111,51,99,48,51,0,42.857,10,normal
1780590360.5116107,0.9832676000078209,1148,0.04126,-0.082764,1.046143,2.320611,2.854962,-0.694656,1.050222,3.744141,52,102,50,52,1,42.857,14,normal
1780590360.5435903,1.0152472000045236,1179,0.023438,-0.022949,1.055664,2.946565,2.78626,-0.083969,1.056174,4.056173,54,105,51,54,0,42.857,10,normal
1780590360.5748878,1.0465446000016527,1211,0.026611,0.020264,1.050049,-0.251908,3.427481,-1.732824,1.050581,3.848865,55,107,52,55,0,42.857,9,normal
1780590360.6066556,1.0783125000016298,1242,0.044434,-0.067139,1.034912,2.396947,2.755725,-0.374046,1.038039,3.671415,56,110,54,56,1,42.857,14,normal
1780590360.63572,1.1073769000067841,1273,0.0625,0.003418,1.055176,2.816794,2.549618,-0.022901,1.057031,3.799396,58,113,55,58,0,42.857,10,normal
1780590360.667434,1.1390908000030322,1303,0.049072,0.018799,1.06543,-0.480916,3.580153,-1.305344,1.066725,3.840924,59,115,56,59,0,42.857,9,normal
1780590360.699432,1.171088700008113,1335,0.058594,-0.06665,1.03418,2.450382,2.969466,-0.381679,1.03798,3.868821,60,118,58,60,1,40.0,13,normal
1780590360.7292874,1.2009440999972867,1366,0.052246,-0.004639,1.063965,2.977099,2.435115,-0.114504,1.065257,3.847858,62,121,59,62,0,40.0,9,normal
1780590360.7609367,1.2325935999979265,1397,0.031738,0.027344,1.06543,0.076336,3.480916,-1.312977,1.066253,3.72109,63,123,60,63,0,40.0,9,normal
1780590360.7913246,1.2629813000094146,1427,0.039795,-0.054932,1.025879,1.854962,2.748092,-0.885496,1.028119,3.431763,64,126,62,64,1,40.0,14,normal
1780590360.8323915,1.3040484000084689,1458,0.064209,-0.034912,1.064697,3.114504,2.381679,0.122137,1.067203,3.922684,66,129,63,66,0,40.0,10,normal
1780590360.8530242,1.324680999998236,1489,0.054932,0.027588,1.078613,-0.48855,3.465649,-1.19084,1.080363,3.696958,67,131,64,67,0,40.0,9,normal
1780590360.8839047,1.3555614000069909,1520,0.04541,-0.062012,1.040039,1.877863,2.694656,-0.526718,1.042875,3.326405,68,134,66,68,1,40.0,14,normal
1780590360.9147453,1.3864021000044886,1551,0.047363,-0.022705,1.067139,2.732824,2.236641,-0.793893,1.06843,3.619552,70,137,67,70,0,40.0,10,normal
1780590360.9455042,1.4171609000040917,1582,0.009277,0.015381,1.052246,-0.244275,3.175573,-1.015267,1.052399,3.342858,71,139,68,71,0,40.0,10,normal
1780590360.9765716,1.4482284000114305,1612,0.056396,-0.04248,1.047119,2.0,2.625954,-1.343511,1.049497,3.563798,72,142,70,72,1,43.321,14,normal
1780590361.006346,1.4780028000095626,1643,0.027832,-0.008301,1.062012,3.290076,2.442748,-0.320611,1.062409,4.110281,81,153,72,81,0,43.321,0,normal
1780590361.0382867,1.5099434000003384,1674,0.033936,0.001709,1.049805,-0.458015,3.541985,-0.877863,1.050354,3.677781,82,155,73,82,0,43.321,9,normal
1780590361.0687678,1.5404245000099763,1705,0.059326,-0.051514,1.048828,1.832061,2.274809,-1.152672,1.051767,3.140041,83,158,75,83,1,43.321,13,normal
1780590361.1009898,1.572646700005862,1736,0.04248,-0.02002,1.071533,3.328244,2.328244,-0.152672,1.072562,4.064632,85,161,76,85,0,43.321,10,normal
1780590361.1306279,1.6022846999985632,1767,0.049072,-0.003662,1.045898,-0.48855,3.419847,-0.931298,1.047055,3.577898,86,163,77,86,0,43.321,9,normal
1780590361.1627781,1.634434899999178,1798,0.043701,-0.054688,1.041016,1.480916,2.664122,-1.541985,1.043367,3.4159,87,166,79,87,1,43.321,15,normal
1780590361.1930249,1.6646817000000738,1829,0.04541,-0.030029,1.081299,3.740458,2.801527,0.648855,1.082668,4.718113,88,168,80,88,1,43.321,11,normal
1780590361.2240343,1.695691100001568,1860,0.046143,0.022705,1.060791,-0.129771,3.183206,-0.442748,1.062037,3.216468,90,171,81,90,0,43.321,9,normal
1780590361.2547817,1.7264385000016773,1891,0.041992,-0.047607,1.052002,1.763359,2.70229,-1.656489,1.053916,3.627087,91,174,83,91,1,68.1,14,normal
1780590361.2879436,1.7596003000071505,1923,0.047852,-0.037842,1.07251,3.870229,2.274809,0.458015,1.074243,4.512561,100,185,85,100,0,68.1,0,normal
1780590361.3183079,1.7899646000005305,1955,0.03125,0.021729,1.058594,-0.992366,3.557252,-0.877863,1.059278,3.795982,101,187,86,101,0,68.1,9,normal
1780590361.3497694,1.8214262000110466,1985,0.031494,-0.044922,1.047607,1.519084,2.557252,-1.847328,1.049043,3.501396,102,190,88,102,1,68.1,14,normal
1780590361.3806086,1.8522654000116745,2016,0.025146,-0.036621,1.05542,3.59542,2.557252,0.717557,1.056354,4.470064,103,192,89,103,1,68.1,13,normal
1780590361.4106085,1.8822654000105103,2046,0.032959,0.018066,1.054688,0.381679,3.450382,-0.923664,1.055357,3.59221,105,195,90,105,0,68.1,9,normal
1780590361.441796,1.9134527999995044,2077,0.039307,-0.018066,1.066162,0.51145,3.19084,-2.175573,1.067039,3.895659,106,198,92,106,1,68.1,15,normal
1780590361.471816,1.9434729000058724,2108,0.067383,-0.063965,1.03833,3.664122,2.923664,0.671756,1.042478,4.73549,107,200,93,107,1,68.1,14,normal
1780590361.50377,1.975426900011371,2139,0.035156,0.018066,1.041748,1.045802,3.122137,-0.343511,1.042498,3.310505,109,203,94,109,0,68.1,9,normal
1780590361.5331762,2.004832999999053,2170,0.024658,-0.023438,1.067383,0.633588,3.335878,-2.40458,1.067925,4.160712,110,205,95,110,0,68.1,9,normal
1780590361.563783,2.0354397000046447,2200,0.03833,-0.065918,1.041504,2.610687,2.862595,-0.358779,1.044292,3.890869,111,208,97,111,1,68.1,15,normal
1780590361.595705,2.0673618000000715,2231,0.058838,0.010742,1.060791,2.419847,2.931298,-0.267176,1.062476,3.810453,113,211,98,113,0,68.1,9,normal
1780590361.6260786,2.097735300005297,2262,0.034912,0.027344,1.058594,-0.290076,3.274809,-1.312977,1.059522,3.540117,114,213,99,114,0,68.1,9,normal
1780590361.6581879,2.129844700000831,2293,0.044434,-0.07251,1.040283,2.748092,2.824427,-0.374046,1.043753,3.958448,115,216,101,115,1,68.1,13,normal
1780590361.6870327,2.158689600008074,2324,0.036621,0.009033,1.053711,2.816794,2.78626,-0.137405,1.054386,3.964398,117,219,102,117,0,68.1,9,normal
1780590361.718011,2.1896677000040654,2354,0.055908,0.021484,1.060791,-0.557252,3.534351,-1.030534,1.06248,3.723462,118,221,103,118,0,68.1,9,normal
1780590361.7488568,2.220513699998264,2385,0.04541,-0.06665,1.032227,2.015267,2.335878,-0.885496,1.035372,3.209631,119,224,105,119,1,68.1,14,normal
1780590361.780066,2.2517228000069736,2416,0.051514,-0.029541,1.07959,3.21374,2.137405,-0.137405,1.081222,3.86206,121,227,106,121,0,68.1,10,normal
1780590361.811812,2.2834688000002643,2447,0.015137,0.038818,1.059814,-0.580153,3.251908,-0.908397,1.060633,3.425882,122,229,107,122,0,43.321,9,normal
1780590361.8425927,2.3142494000057923,2478,0.053223,-0.045654,1.049316,1.778626,2.480916,-1.152672,1.051657,3.26299,123,232,109,123,1,43.321,14,normal
1780590361.8736863,2.345343100008904,2509,0.035889,-0.012695,1.072754,3.351145,2.328244,-0.10687,1.073429,4.08195,125,235,110,125,0,43.321,9,normal
1780590361.9042606,2.3759175000013784,2540,0.047363,0.022217,1.062256,-0.167939,3.656489,-0.671756,1.063543,3.721474,126,237,111,126,0,43.321,9,normal
1780590361.9486942,2.420351100008702,2571,0.033447,-0.03418,1.051758,1.679389,2.633588,-1.167939,1.052844,3.334698,127,240,113,127,1,43.321,14,normal
1780590361.9651864,2.4368432000046596,2602,0.068115,-0.041504,1.07251,3.473282,2.076336,0.0,1.075472,4.046586,129,243,114,129,0,43.321,10,normal
1780590361.9975567,2.4692134000069927,2633,0.041016,0.016357,1.055908,-0.183206,3.496183,-0.854962,1.056831,3.603862,130,245,115,130,0,43.321,10,normal
1780590362.028446,2.5001028000115184,2664,0.050293,-0.034668,1.049561,1.343511,2.51145,-1.320611,1.051336,3.139494,131,248,117,131,1,43.321,14,normal
1780590362.06009,2.5317467999993823,2695,0.043945,-0.030029,1.07251,3.572519,2.48855,-0.122137,1.07383,4.355536,133,251,118,133,0,43.321,10,normal
1780590362.0901482,2.5618051000055857,2726,0.050537,0.012695,1.043213,0.160305,3.053435,-0.564886,1.044513,3.109383,134,253,119,134,0,43.011,9,normal
1780590362.1217077,2.5933645000040997,2757,0.033447,-0.032715,1.050781,1.793893,3.145038,-0.992366,1.051822,3.754212,135,256,121,135,1,43.011,14,normal
1780590362.1529849,2.624641700007487,2789,0.037598,-0.017578,1.071045,3.450382,2.48855,-0.366412,1.071849,4.269926,144,266,122,144,0,43.011,0,normal
1780590362.1859791,2.657635900002788,2820,0.054932,0.011719,1.050781,-0.274809,3.335878,-0.633588,1.052281,3.406616,145,268,123,145,0,43.011,10,normal
1780590362.2152972,2.6869540000043344,2851,0.040039,-0.043701,1.044434,1.969466,2.206107,-0.763359,1.046114,3.054246,146,271,125,146,1,43.011,14,normal
1780590362.2475991,2.7192559000104666,2883,0.041504,-0.012695,1.074219,3.274809,2.175573,-0.267176,1.075095,3.940669,155,281,126,155,0,43.011,1,normal
1780590362.2786987,2.7503556000010576,2914,0.032715,0.012207,1.061523,-0.175573,3.244275,-0.931298,1.062098,3.379861,156,283,127,156,0,43.011,9,normal
1780590362.3095293,2.7811862000089604,2945,0.029297,-0.050049,1.033691,2.335878,2.480916,-0.870229,1.035317,3.516898,157,286,129,157,1,43.011,14,normal
1780590362.3406067,2.8122636000043713,2976,0.046631,-0.014893,1.081055,2.854962,2.328244,-0.526718,1.082162,3.721419,159,289,130,159,0,100.0,9,normal
1780590362.3712916,2.842948500008788,3008,0.052979,0.005615,1.063965,-0.51145,2.954198,-1.251908,1.065298,3.249022,160,291,131,160,0,100.0,9,normal
1780590362.4040043,2.875661099998979,3039,0.058594,-0.078125,1.030518,2.129771,2.625954,-0.908397,1.035134,3.500964,161,294,133,161,1,100.0,14,normal
1780590362.4340909,2.9057477000023937,3070,0.023193,0.006348,1.065918,2.763359,2.412214,-0.320611,1.066189,3.682081,165,299,134,165,0,100.0,1,normal
1780590362.4661074,2.937764200003585,3101,0.031982,0.015625,1.052978,-0.564886,2.961832,-1.396947,1.05358,3.323102,166,301,135,166,0,100.0,9,normal
1780590362.4958436,2.967500500002643,3132,0.032959,-0.050537,1.033447,2.549618,2.312977,-1.381679,1.035207,3.709374,167,304,137,167,1,100.0,14,normal
1780590362.527172,2.9988288000022294,3163,0.04126,-0.006348,1.073486,3.320611,2.59542,-0.267176,1.074298,4.223037,169,307,138,169,0,100.0,9,normal
1780590362.5567958,3.02845260000322,3193,0.046143,0.011719,1.056885,-0.343511,3.51145,-1.175572,1.057956,3.718905,170,309,139,170,0,100.0,10,normal
1780590362.5887978,3.060454700011178,3224,0.029785,-0.034668,1.04126,1.51145,2.770992,-1.709924,1.042262,3.589808,171,312,141,171,1,100.0,13,normal
1780590362.6192367,3.0908934000035515,3255,0.057861,-0.044678,1.05957,3.854962,2.564885,0.29771,1.062089,4.639828,172,314,142,172,1,46.595,13,normal
1780590362.6507518,3.122408600000199,3286,0.057373,0.00708,1.043457,-0.099237,3.328244,-0.572519,1.045057,3.378585,174,317,143,174,0,46.595,9,normal
1780590362.6814196,3.1530765000061365,3317,0.025879,-0.046387,1.040039,1.244275,2.916031,-1.793893,1.041395,3.642733,175,320,145,175,1,46.595,14,normal
1780590362.7143626,3.186019500004477,3350,0.041016,-0.030518,1.070557,3.633588,2.503817,0.343511,1.071776,4.426066,179,329,150,179,0,46.595,0,normal
1780590362.7456918,3.2173485000093933,3381,0.023926,0.027588,1.049561,-0.679389,3.312977,-0.961832,1.050196,3.516036,180,331,151,180,0,46.595,9,normal
1780590362.7771864,3.2488431000092532,3412,0.038574,-0.047607,1.050293,1.381679,2.709924,-1.656489,1.052079,3.463622,181,334,153,181,1,46.595,14,normal
1780590362.8079727,3.2796295000007376,3444,0.041992,-0.037109,1.071045,3.564885,2.526718,0.083969,1.07251,4.370327,190,347,157,190,0,46.595,0,normal
1780590362.8395205,3.311177299998235,3475,0.036621,0.011963,1.050049,-0.503817,3.664122,-0.984733,1.050755,3.827443,191,349,158,191,0,46.595,10,normal
1780590362.870396,3.342052699998021,3506,0.026855,-0.036133,1.046631,1.687023,2.80916,-1.541985,1.047599,3.621484,192,352,160,192,1,79.681,13,normal
1780590362.9015675,3.373224200011464,3537,0.026123,-0.023438,1.07251,3.580153,2.160305,0.045802,1.073084,4.181688,194,355,161,194,0,79.681,10,normal
1780590362.933087,3.404743999999482,3569,0.034912,0.013672,1.054932,-0.709924,3.374046,-1.137405,1.055598,3.630684,195,357,162,195,0,79.681,9,normal
1780590362.982657,3.454313700000057,3600,0.045166,-0.041504,1.048828,1.931298,2.320611,-0.923664,1.05062,3.157261,196,360,164,196,1,79.681,14,normal
1780590362.99545,3.467106900003273,3631,0.018555,-0.021729,1.06665,3.587786,2.221374,0.396947,1.067033,4.238429,198,363,165,198,0,79.681,10,normal
1780590363.0264673,3.4981241000059526,3662,0.041016,0.020752,1.062988,-0.625954,3.038168,-0.564886,1.063982,3.152995,199,365,166,199,0,79.681,9,normal
1780590363.057229,3.528885799998534,3693,0.04248,-0.03833,1.038818,1.442748,2.694656,-1.458015,1.040393,3.386518,200,368,168,200,1,79.681,13,normal
1780590363.0892231,3.560880000004545,3725,0.037598,-0.043701,1.054199,3.664122,2.618321,0.48855,1.055774,4.529909,209,378,169,209,0,79.681,0,normal
1780590363.1214502,3.5931071000086376,3756,0.039307,0.02417,1.070801,-0.442748,3.435115,-0.961832,1.071794,3.594601,210,380,170,210,0,72.0,9,normal
1780590363.1534784,3.6251352000108454,3788,0.044189,-0.068604,1.037354,1.908397,2.587786,-0.938931,1.040558,3.349658,211,383,172,211,1,72.0,14,normal
1780590363.1840098,3.6556666000105906,3819,0.025146,-0.012939,1.062012,3.21374,2.129771,-0.122137,1.062388,3.857327,213,386,173,213,0,72.0,10,normal
1780590363.2153409,3.6869977000023937,3850,0.035889,0.025391,1.063965,-0.328244,3.061069,-1.183206,1.064873,3.29816,214,388,174,214,0,72.0,9,normal
1780590363.2459633,3.7176201000111178,3881,0.023193,-0.032227,1.058594,1.862595,2.251908,-1.175572,1.059338,3.149972,215,391,176,215,1,72.0,14,normal
1780590363.27689,3.7485468000086257,3912,0.033691,-0.027344,1.060547,3.541985,2.40458,0.091603,1.061434,4.282062,217,394,177,217,0,72.0,10,normal
1780590363.3078835,3.7795404000062263,3943,0.031738,0.017578,1.062744,-0.358779,3.21374,-0.931298,1.063363,3.36514,218,396,178,218,0,72.0,10,normal
1780590363.338999,3.810655900000711,3974,0.057129,-0.032715,1.052978,1.564886,2.870229,-1.007634,1.055034,3.420878,219,399,180,219,1,72.0,14,normal
1780590363.3708856,3.8425425000023097,4006,0.030029,-0.030762,1.062012,3.496183,2.610687,0.274809,1.062881,4.372014,228,409,181,228,0,72.0,0,normal
1780590363.4020643,3.873721199997817,4037,0.022705,0.030762,1.062256,-0.038168,3.458015,-1.122137,1.062944,3.635728,229,411,182,229,0,72.0,9,normal
1780590363.4328887,3.9045455000014044,4068,0.051514,-0.030273,1.047852,1.740458,2.229008,-1.068702,1.049554,3.023209,230,414,184,230,1,72.0,14,normal
1780590363.4646697,3.9363263999985065,4099,0.048096,-0.015381,1.059814,3.038168,2.458015,-0.251908,1.061017,3.91609,232,417,185,232,0,72.0,9,normal
1780590363.4936152,3.9652720000012778,4129,0.040771,0.008057,1.056396,-0.068702,3.358779,-0.78626,1.057214,3.450264,233,419,186,233,0,72.0,9,normal
1780590363.5239906,3.9956475000071805,4160,0.054688,-0.03125,1.041992,1.48855,2.641221,-1.519084,1.043894,3.391083,234,422,188,234,1,72.0,15,normal
1780590363.5544324,4.026089200007846,4190,0.047607,-0.03418,1.072022,3.740458,2.503817,0.114504,1.073622,4.502581,235,424,189,235,1,72.0,13,normal
1780590363.5846748,4.0563316000043415,4221,0.067139,-0.003662,1.053955,0.687023,3.534351,-0.770992,1.056098,3.682128,237,427,190,237,0,72.0,10,normal
1780590363.6146479,4.086304700002074,4251,0.005859,-0.023682,1.038086,0.679389,2.931298,-2.099237,1.038372,3.668906,238,430,192,238,1,72.0,14,normal
1780590363.6467035,4.118360200009192,4282,0.055908,-0.054199,1.055176,3.053435,2.839695,0.183206,1.058045,4.173835,239,432,193,239,1,39.855,14,normal
1780590363.6790743,4.150731000001542,4314,0.045898,0.002686,1.049316,0.206107,3.358779,-0.59542,1.050323,3.417367,241,435,194,241,0,39.855,9,normal
1780590363.709457,4.181113800004823,4345,0.05127,-0.038574,1.031494,1.381679,3.389313,-1.70229,1.033488,4.036616,242,438,196,242,1,39.855,14,normal
1780590363.7413683,4.2130250000045635,4376,0.054443,-0.052979,1.047852,3.160305,2.885496,0.335878,1.050602,4.292602,243,440,197,243,1,39.855,14,normal
1780590363.771302,4.2429587000078754,4407,0.030029,0.014404,1.047852,0.717557,3.160305,-0.580153,1.048381,3.292263,245,443,198,245,0,39.855,9,normal
1780590363.8029325,4.274589200009359,4438,0.042725,-0.039795,1.057861,0.824427,3.160305,-2.099237,1.059471,3.882526,246,446,200,246,1,39.855,14,normal
1780590363.833449,4.305105799998273,4469,0.049561,-0.061279,1.040039,3.725191,2.885496,0.40458,1.043021,4.729357,247,448,201,247,1,39.855,13,normal
1780590363.865256,4.3369129000057,4501,0.037354,0.011963,1.049316,0.29771,3.610687,-0.732824,1.050049,3.696312,249,451,202,249,0,39.855,9,normal
1780590363.8956604,4.3673171999980696,4532,0.041504,-0.023438,1.0625,0.78626,3.099237,-1.938931,1.063569,3.739375,250,454,204,250,1,44.0,14,normal
1780590363.9266684,4.398325300004217,4563,0.055908,-0.061523,1.060547,3.366412,2.625954,0.549618,1.0638,4.3047,251,456,205,251,1,44.0,14,normal
1780590363.9589148,4.430571600008989,4594,0.059326,0.014404,1.040772,0.793893,3.21374,-0.862595,1.04256,3.420886,253,459,206,253,0,44.0,9,normal
1780590363.9885228,4.460179500005324,4625,0.039795,-0.021484,1.050537,0.259542,3.396947,-1.923664,1.05151,3.912428,254,462,208,254,1,44.0,14,normal
1780590364.021088,4.492744700008188,4656,0.068848,-0.065186,1.054443,3.908397,2.770992,0.610687,1.058697,4.829793,255,464,209,255,1,44.0,14,normal
1780590364.051193,4.522849800006952,4687,0.041748,0.00415,1.037109,1.603053,2.916031,-0.496183,1.037958,3.364404,257,467,210,257,0,44.0,9,normal
1780590364.0809376,4.552594400011003,4717,0.058594,0.010254,1.059082,-0.19084,3.679389,-1.709924,1.060751,4.061794,258,469,211,258,0,44.0,9,normal
1780590364.112678,4.58433490000607,4748,0.036865,-0.071289,1.04248,2.801527,2.572519,-0.312977,1.045565,3.816328,259,472,213,259,1,44.0,14,normal
1780590364.143962,4.615618700001505,4779,0.033447,0.018799,1.058838,2.618321,2.351145,-0.259542,1.059533,3.528576,261,475,214,261,0,44.0,9,normal
1780590364.1751587,4.646815600004629,4810,0.040039,0.009521,1.062256,-0.526718,3.320611,-1.152672,1.063053,3.554228,262,477,215,262,0,43.165,9,normal
1780590364.205095,4.676751799997874,4841,0.044678,-0.073486,1.032471,2.916031,2.725191,-0.51145,1.036046,4.023864,263,480,217,263,1,43.165,14,normal
1780590364.2359097,4.70756640000036,4872,0.03125,-0.010742,1.063965,3.167939,2.328244,-0.19084,1.064478,3.936112,265,483,218,265,0,43.165,10,normal
1780590364.2677717,4.73942860000534,4903,0.043701,0.023438,1.066406,-0.458015,3.068702,-1.236641,1.067559,3.340059,266,485,219,266,0,43.165,9,normal
1780590364.2984133,4.77007009999943,4934,0.035889,-0.061035,1.037842,1.969466,2.610687,-1.076336,1.040254,3.442816,267,488,221,267,1,43.165,13,normal
1780590364.3292928,4.800949600001331,4965,0.019287,-0.013916,1.062012,2.877863,1.908397,-0.145038,1.062278,3.45617,269,491,222,269,0,43.165,9,normal
1780590364.3614721,4.833129000006011,4996,0.062012,0.015625,1.072266,-0.587786,2.961832,-1.580153,1.074171,3.408053,270,493,223,270,0,43.165,9,normal
1780590364.393231,4.864887600007933,5028,0.048828,-0.065674,1.046143,2.78626,2.687023,-0.389313,1.049339,3.89036,271,496,225,271,1,43.165,14,normal
1780590364.4236717,4.895328500002506,5060,0.06543,0.001221,1.053223,2.40458,2.366412,-0.167939,1.055254,3.377886,273,499,226,273,0,44.0,10,normal
1780590364.4541464,4.925803100006306,5090,0.041748,0.023193,1.064697,-0.396947,2.992366,-1.022901,1.065768,3.187185,274,501,227,274,0,44.0,9,normal
1780590364.485779,4.957435900010751,5121,0.037109,-0.056152,1.051514,1.969466,2.633588,-1.236641,1.053666,3.513383,275,504,229,275,1,44.0,14,normal
1780590364.5158465,4.987503299998934,5152,0.057617,-0.019531,1.074707,3.091603,2.274809,0.160305,1.076428,3.841674,277,507,230,277,0,44.0,10,normal
1780590364.5478556,5.0195123000012245,5183,0.029785,0.017334,1.05542,-0.496183,3.656489,-1.122137,1.055982,3.856851,278,509,231,278,0,44.0,10,normal
1780590364.577958,5.049614900010056,5214,0.049561,-0.049072,1.043213,1.740458,2.435115,-0.641221,1.045542,3.061069,279,512,233,279,1,44.0,14,normal
1780590364.609872,5.0815288000012515,5245,0.035645,-0.020752,1.070557,3.259542,2.251908,-0.022901,1.071351,3.961847,281,515,234,281,0,44.0,9,normal
1780590364.6408098,5.112466600010521,5276,0.033203,0.010254,1.050293,-0.396947,3.259542,-0.954198,1.050868,3.419456,282,517,235,282,0,44.0,9,normal
1780590364.6703556,5.142012399999658,5307,0.038818,-0.053711,1.034668,1.70229,2.335878,-0.877863,1.036788,3.020722,283,520,237,283,1,44.0,13,normal
1780590364.7026176,5.174274500008323,5337,0.0271,-0.037598,1.06543,3.236641,2.389313,-0.022901,1.066437,4.023082,285,523,238,285,0,43.321,10,normal
1780590364.7325656,5.204222500004107,5368,0.061035,0.0271,1.068604,-0.030534,3.068702,-0.541985,1.070688,3.116346,286,525,239,286,0,43.321,9,normal
1780590364.7642524,5.235909299997729,5399,0.034668,-0.044434,1.037354,1.21374,2.351145,-1.465649,1.038883,3.02476,287,528,241,287,1,43.321,14,normal
1780590364.8063552,5.278012100010528,5430,0.040771,-0.038086,1.06665,3.374046,2.465649,-0.259542,1.068109,4.187,289,531,242,289,0,43.321,10,normal
1780590364.826931,5.29858790000435,5462,0.037842,0.01709,1.054688,-0.221374,3.290076,-0.793893,1.055504,3.391736,290,533,243,290,0,43.321,9,normal
1780590364.8569355,5.328592300007585,5493,0.039307,-0.04541,1.041748,1.969466,2.679389,-1.167939,1.043478,3.524486,291,536,245,291,1,43.321,13,normal
1780590364.8969097,5.368566600009217,5525,0.04248,-0.034668,1.068359,3.206107,2.259542,-0.358779,1.069765,3.938702,300,546,246,300,0,43.321,0,normal
1780590364.9273286,5.398985500010895,5562,0.017334,-0.045898,1.050293,1.763359,2.625954,-1.10687,1.051438,3.351154,301,549,248,301,1,43.321,14,normal
1780590364.9595318,5.4311886000068625,5594,0.027344,-0.028809,1.068359,3.251908,2.40458,0.030534,1.069097,4.044483,303,552,249,303,0,70.039,9,normal
1780590364.9904091,5.462065900006564,5625,0.067871,0.005615,1.05542,-0.381679,3.328244,-0.641221,1.057615,3.410873,304,554,250,304,0,70.039,10,normal
1780590365.0207355,5.492392200001632,5656,0.033447,-0.046875,1.03125,1.793893,2.832061,-1.389313,1.032856,3.628886,305,557,252,305,1,70.039,15,normal
1780590365.0517359,5.523392600007355,5687,0.054443,-0.040283,1.06543,3.244275,2.610687,0.358779,1.06758,4.17968,314,567,253,314,0,70.039,0,normal
1780590365.0826838,5.554340600006981,5718,0.044189,0.012207,1.063232,-0.267176,3.351145,-1.022901,1.06422,3.513955,315,569,254,315,0,70.039,10,normal
1780590365.1139588,5.585615600008168,5749,0.041504,-0.057617,1.03418,1.412214,2.885496,-1.557252,1.036615,3.57008,316,572,256,316,1,70.039,14,normal
1780590365.1471567,5.618813599998248,5781,0.034912,-0.043945,1.052246,3.625954,2.175573,-0.282443,1.053742,4.237975,325,585,260,325,0,70.039,0,normal
1780590365.1788514,5.650508200007607,5813,0.041016,0.020508,1.071045,-0.679389,3.320611,-1.541985,1.072026,3.723673,326,587,261,326,0,70.039,9,normal
1780590365.209735,5.681391800011625,5845,0.04834,-0.0625,1.049316,2.503817,2.465649,-0.984733,1.052287,3.649414,327,590,263,327,1,95.618,14,normal
1780590365.2397296,5.7113864999992074,5876,0.031494,-0.008545,1.054688,2.961832,2.259542,0.015267,1.055192,3.725347,329,593,264,329,0,95.618,9,normal
1780590365.272139,5.743795800008229,5907,0.032715,0.021973,1.060303,-0.709924,3.122137,-1.51145,1.061035,3.540652,330,595,265,330,0,95.618,10,normal
1780590365.3013668,5.773023600006127,5938,0.061523,-0.063477,1.050293,2.0,2.816794,-0.923664,1.054006,3.575959,331,598,267,331,1,95.618,14,normal
1780590365.3338163,5.805473100001109,5969,0.041748,-0.044434,1.068359,3.679389,2.442748,0.038168,1.070098,4.416602,340,608,268,340,0,95.618,1,normal
1780590365.364954,5.836610900005326,6000,0.045654,0.01709,1.059326,-0.442748,3.580153,-0.931298,1.060447,3.725699,341,610,269,341,0,95.618,9,normal
1780590365.3945775,5.866234200002509,6031,0.045898,-0.044189,1.05835,2.0,2.198473,-1.160305,1.060266,3.190548,342,613,271,342,1,95.618,13,normal
1780590365.4264252,5.898081999999704,6062,0.024658,-0.040771,1.070068,3.51145,2.412214,0.183206,1.071129,4.264108,351,623,272,351,0,95.618,1,normal
1780590365.458396,5.930052700001397,6094,0.036865,0.02002,1.064941,-0.755725,3.221374,-1.274809,1.065767,3.545914,352,625,273,352,0,95.618,9,normal
1780590365.4891193,5.960776200008695,6125,0.033936,-0.050781,1.053467,2.160305,2.633588,-1.229008,1.055236,3.62121,353,628,275,353,1,92.857,14,normal
1780590365.51913,5.990786800000933,6155,0.044678,-0.021973,1.06958,3.59542,2.305344,-0.175573,1.070738,4.274632,355,631,276,355,0,92.857,10,normal
1780590365.5499303,6.021587100010947,6186,0.039307,0.007568,1.03833,-0.458015,3.541985,-1.038168,1.039101,3.719304,356,633,277,356,0,92.857,9,normal
1780590365.5814157,6.053072499998962,6217,0.046143,-0.034912,1.050781,1.473282,2.78626,-1.503817,1.052373,3.492172,357,636,279,357,1,92.857,14,normal
1780590365.6144261,6.086082900001202,6249,0.052002,-0.037354,1.063965,3.656489,2.236641,-0.19084,1.06589,4.290558,366,646,280,366,0,92.857,0,normal
1780590365.644452,6.1161089000088396,6280,0.054688,0.015625,1.063721,-0.435114,3.374046,-0.671756,1.06524,3.467674,367,648,281,367,0,92.857,10,normal
1780590365.6763182,6.14797499999986,6311,0.020996,-0.041016,1.044678,1.854962,2.824427,-0.954198,1.045693,3.511235,368,651,283,368,1,92.857,14,normal
1780590365.7069888,6.178645699998015,6343,0.024902,-0.015137,1.059814,3.40458,2.152672,0.152672,1.060215,4.030939,377,661,284,377,0,92.857,1,normal
1780590365.7394574,6.211114200006705,6374,0.026611,0.018555,1.061035,-0.625954,3.236641,-1.129771,1.061531,3.484831,378,663,285,378,0,92.857,9,normal
1780590365.7701685,6.241825300006894,6405,0.053711,-0.065918,1.045654,1.587786,2.656489,-0.916031,1.049106,3.227555,379,666,287,379,1,92.857,14,normal
1780590365.8010018,6.272658500005491,6437,0.029053,-0.029785,1.053467,2.70229,2.251908,-0.198473,1.054288,3.523188,381,669,288,381,0,92.857,9,normal
1780590365.8325448,6.304201500010095,6468,0.052246,0.029297,1.074463,-0.320611,3.328244,-1.51145,1.076131,3.669398,382,671,289,382,0,92.857,9,normal
1780590365.8635912,6.335247900002287,6499,0.026123,-0.050049,1.038086,1.801527,2.664122,-1.030534,1.03962,3.377136,383,674,291,383,1,92.857,15,normal
1780590365.8950949,6.3667516999994405,6529,0.040039,-0.018555,1.060059,3.625954,1.946565,-0.007634,1.060977,4.115424,385,677,292,385,0,92.857,10,normal
1780590365.9246163,6.3962731000065105,6560,0.038818,0.013184,1.063232,-0.167939,3.473282,-1.099237,1.064022,3.646946,386,679,293,386,0,92.857,10,normal
1780590365.955466,6.427122799999779,6591,0.032227,-0.032471,1.049316,1.633588,2.78626,-1.427481,1.050313,3.531226,387,682,295,387,1,92.857,14,normal
1780590365.986984,6.458640800003195,6623,0.059082,-0.044678,1.0625,3.137405,2.541985,-0.145038,1.065079,4.040548,396,692,296,396,0,92.857,1,normal
1780590366.0191755,6.4908322999981465,6654,0.043213,0.024902,1.066406,-0.389313,3.305344,-1.40458,1.067572,3.612438,397,694,297,397,0,92.857,9,normal
1780590366.0504098,6.522066600009566,6685,0.059326,-0.064941,1.04248,1.969466,2.839695,-1.450382,1.046185,3.747835,398,697,299,398,1,67.857,14,normal
1780590366.080736,6.552392800003872,6717,0.041748,-0.019531,1.063721,2.847328,2.59542,-0.183206,1.064719,3.857077,400,700,300,400,0,67.857,9,normal
1780590366.112548,6.584204900005716,6748,0.025879,0.015869,1.068115,-0.251908,3.19084,-1.10687,1.068546,3.38675,401,702,301,401,0,67.857,9,normal
1780590366.1428978,6.614554700005101,6779,0.024902,-0.063965,1.036377,2.022901,2.328244,-1.0,1.038648,3.242352,402,705,303,402,1,67.857,15,normal
1780590366.1743062,6.645962900001905,6809,0.029785,-0.025146,1.072754,2.793893,2.610687,-0.129771,1.073462,3.826012,404,708,304,404,0,67.857,10,normal
1780590366.2051294,6.676786100011668,6841,0.029541,0.011719,1.053467,-0.419847,3.29771,-1.045802,1.053946,3.484948,405,710,305,405,0,67.857,10,normal
1780590366.2348876,6.706544300002861,6871,0.047852,-0.046631,1.046875,2.305344,2.717557,-1.0,1.049005,3.701314,406,713,307,406,1,67.857,14,normal
1780590366.2668865,6.738543300001766,6902,0.05127,-0.013672,1.074951,3.145038,2.389313,-0.320611,1.07626,3.962685,408,716,308,408,0,67.857,10,normal
1780590366.296966,6.768622800009325,6933,0.029785,0.004395,1.04834,-0.396947,3.641221,-0.885496,1.048772,3.76831,409,718,309,409,0,67.857,10,normal
1780590366.3292809,6.80093769999803,6964,0.050049,-0.044922,1.052734,2.030534,2.610687,-0.435114,1.05488,3.335878,410,721,311,410,1,43.011,14,normal
1780590366.359616,6.831272800001898,6996,0.038574,0.001953,1.071289,3.129771,2.183206,-0.137405,1.071985,3.818473,412,724,312,412,0,43.011,10,normal
1780590366.3902855,6.861942400006228,7026,0.022217,0.010498,1.051514,-0.671756,3.572519,-0.984733,1.051801,3.766145,413,726,313,413,0,43.011,9,normal
1780590366.4204965,6.8921532000094885,7057,0.053955,-0.052246,1.044434,1.763359,3.0,-1.328244,1.04713,3.724737,414,729,315,414,1,43.011,15,normal
1780590366.4531906,6.924847400005092,7088,0.048584,-0.036133,1.059082,3.610687,2.877863,0.40458,1.060811,4.634958,423,739,316,423,0,43.011,0,normal
1780590366.484337,6.955993800002034,7119,0.048828,0.019531,1.056396,-0.267176,3.450382,-1.152672,1.057705,3.647625,424,741,317,424,0,43.011,10,normal
1780590366.5156226,6.987279300010414,7150,0.031006,-0.042725,1.043701,1.656489,2.832061,-1.824428,1.045035,3.754072,425,744,319,425,1,43.011,14,normal
1780590366.547089,7.018745900000795,7182,0.053467,-0.043701,1.05249,3.78626,2.51145,0.687023,1.054753,4.595122,434,755,321,434,0,43.011,0,normal
1780590366.5782254,7.04988210000738,7213,0.027832,0.020996,1.05127,-0.572519,3.427481,-0.992366,1.051847,3.613889,435,757,322,435,0,43.011,9,normal
1780590366.608897,7.080553699997836,7245,0.034424,-0.051025,1.052246,2.015267,2.206107,-1.328244,1.054045,3.26993,436,760,324,436,1,92.527,15,normal
1780590366.640835,7.112491799998679,7276,0.053955,-0.020264,1.066162,3.633588,2.175573,0.244275,1.067719,4.24214,438,763,325,438,0,92.527,10,normal
1780590366.6721563,7.143813200003933,7308,0.045166,0.00708,1.06543,-0.877863,3.572519,-0.931298,1.06641,3.794845,439,765,326,439,0,92.527,9,normal
1780590366.7143037,7.185960500006331,7339,0.044678,-0.075439,1.049805,2.091603,2.78626,-1.175572,1.05346,3.676958,440,768,328,440,1,92.527,14,normal
1780590366.7349038,7.206560700011323,7371,0.025879,-0.007324,1.062744,2.992366,2.267176,-0.19084,1.063084,3.75909,443,773,330,443,0,92.527,0,normal
1780590366.7653666,7.23702330001106,7402,0.035889,0.03125,1.052246,-0.664122,3.282443,-1.221374,1.053322,3.564722,444,775,331,444,0,92.527,10,normal
1780590366.7968004,7.26845719999983,7432,0.038574,-0.053223,1.038086,2.015267,2.610687,-1.129771,1.040165,3.486169,445,778,333,445,1,92.527,14,normal
1780590366.828601,7.300257700000657,7464,0.043945,-0.023926,1.072998,3.618321,2.145038,0.343511,1.074164,4.22036,454,788,334,454,0,92.527,0,normal
1780590366.8595068,7.331163700000616,7495,0.057617,0.01416,1.067139,-0.221374,3.305344,-0.740458,1.068787,3.394493,455,790,335,455,0,76.0,9,normal
1780590366.8904638,7.362120600009803,7526,0.035889,-0.052002,1.047119,1.885496,2.458015,-1.236641,1.049024,3.335598,456,793,337,456,1,76.0,14,normal
1780590366.9218898,7.393546600011177,7557,0.032227,-0.033936,1.066162,3.458015,2.435115,0.091603,1.067189,4.230372,458,796,338,458,0,76.0,10,normal
1780590366.952406,7.424062700010836,7588,0.056885,0.025146,1.057129,-0.244275,3.198473,-1.167939,1.058957,3.413793,459,798,339,459,0,76.0,9,normal
1780590366.9837437,7.4554005000100005,7619,0.057373,-0.052734,1.031006,1.977099,2.847328,-1.145038,1.033947,3.650659,460,801,341,460,1,76.0,14,normal
1780590367.0163996,7.488056400005007,7651,0.038818,-0.031006,1.071777,3.541985,2.236641,0.320611,1.072928,4.20131,463,808,345,463,0,76.0,1,normal
1780590367.0463336,7.5179904000106035,7682,0.006592,0.032959,1.069092,-0.549618,3.618321,-1.061069,1.06962,3.810537,464,810,346,464,0,76.0,9,normal
1780590367.0767045,7.548361300010583,7712,0.046387,-0.035645,1.054688,1.366412,2.709924,-1.603053,1.056309,3.43228,465,813,348,465,1,76.0,13,normal
1780590367.1084373,7.580094000004465,7744,0.022461,-0.056885,1.052978,3.526718,2.671756,0.587786,1.054753,4.463352,474,823,349,474,0,76.0,0,normal
1780590367.1401846,7.611841400008416,7775,0.049072,0.01416,1.081787,-0.366412,3.145038,-1.015267,1.082992,3.3251,475,825,350,475,0,71.429,9,normal
1780590367.1725368,7.644193600004655,7807,0.036621,-0.06543,1.047607,2.10687,2.480916,-1.442748,1.050287,3.560248,476,828,352,476,1,71.429,14,normal
1780590367.202806,7.674462700000731,7838,0.020508,-0.028809,1.053711,3.229008,2.335878,-0.267176,1.054304,3.994271,478,831,353,478,0,71.429,10,normal
1780590367.2340777,7.705734500006656,7869,0.048096,0.018555,1.062744,-0.091603,3.167939,-1.038168,1.063994,3.334969,479,833,354,479,0,71.429,10,normal
1780590367.2652626,7.736919500006479,7900,0.030518,-0.048584,1.042236,1.89313,2.648855,-1.114504,1.043814,3.441292,480,836,356,480,1,71.429,14,normal
1780590367.2955174,7.767174300010083,7931,0.027832,-0.016846,1.070312,3.335878,2.656489,0.290076,1.070807,4.274244,482,839,357,482,0,71.429,9,normal
1780590367.3270211,7.798677900005714,7962,0.058594,0.014648,1.058594,-0.10687,3.259542,-1.007634,1.060315,3.413409,483,841,358,483,0,71.429,9,normal
1780590367.3581128,7.829769500007387,7993,0.048096,-0.049561,1.056396,1.908397,2.335878,-1.236641,1.058651,3.259998,484,844,360,484,1,71.429,14,normal
1780590367.3889582,7.86061509999854,8024,0.028076,-0.023438,1.068604,2.984733,2.21374,0.099237,1.069229,3.717408,486,847,361,486,0,71.429,9,normal
1780590367.4212964,7.892953200003831,8056,0.024414,0.012939,1.063721,-0.549618,3.358779,-1.427481,1.064079,3.690688,487,849,362,487,0,42.705,9,normal
1780590367.4522812,7.923938000007183,8087,0.031494,-0.07373,1.041504,2.221374,2.526718,-1.022901,1.044585,3.516409,488,852,364,488,1,42.705,14,normal
1780590367.4828424,7.954499300001771,8118,0.03833,-0.010742,1.071045,2.78626,2.305344,-0.374046,1.071784,3.635624,490,855,365,490,0,42.705,11,normal
1780590367.5147989,7.986455600010231,8150,0.044189,0.015869,1.056152,-0.244275,3.068702,-1.435114,1.057196,3.396492,491,857,366,491,0,42.705,9,normal
1780590367.545882,8.01753880000615,8181,0.050049,-0.081543,1.054932,2.10687,2.984733,-0.78626,1.059261,3.737076,492,860,368,492,1,42.705,15,normal
1780590367.57654,8.048196800009464,8212,0.036133,0.002197,1.057617,2.671756,2.526718,-0.29771,1.058236,3.689338,494,863,369,494,0,42.705,10,normal
1780590367.6074204,8.079077300004428,8243,0.050049,0.015869,1.072754,-0.412214,3.015267,-0.89313,1.074038,3.171662,495,865,370,495,0,42.705,10,normal
1780590367.6390553,8.110712000008789,8274,0.031738,-0.047607,1.038818,2.366412,2.564885,-0.969466,1.040393,3.621934,496,868,372,496,1,42.705,14,normal
1780590367.6693256,8.140982500000973,8305,0.037354,-0.001709,1.069092,2.839695,2.51145,-0.450382,1.069746,3.817603,498,871,373,498,0,42.705,10,normal
1780590367.700729,8.172385800004122,8336,0.02417,0.020508,1.068115,-0.40458,3.259542,-1.381679,1.068585,3.563332,499,873,374,499,0,42.857,9,normal
1780590367.732473,8.204129700010526,8367,0.041748,-0.05249,1.040039,2.251908,2.755725,-0.870229,1.042199,3.663661,500,876,376,500,1,42.857,14,normal
1780590367.7636607,8.235317500002566,8398,0.036133,-0.022949,1.067627,3.51145,2.656489,0.312977,1.068485,4.414201,502,879,377,502,0,42.857,10,normal
1780590367.7937977,8.26545459999761,8429,0.067383,0.015137,1.060059,-0.824427,3.274809,-1.122137,1.062306,3.558546,503,881,378,503,0,42.857,9,normal
1780590367.824537,8.296193900008802,8460,0.020996,-0.051025,1.051025,1.328244,2.732824,-1.091603,1.052473,3.228646,504,884,380,504,1,42.857,14,normal
1780590367.856492,8.328148800006602,8491,0.013184,-0.027344,1.069824,3.618321,2.572519,0.076336,1.070255,4.440262,506,887,381,506,0,42.857,10,normal
1780590367.8876786,8.359335500004818,8522,0.078369,0.011719,1.05542,-0.427481,3.419847,-1.053435,1.05839,3.603862,507,889,382,507,0,42.857,10,normal
1780590367.9188776,8.390534400008619,8554,0.057373,-0.047363,1.058594,1.526718,2.610687,-1.251908,1.061205,3.273198,508,892,384,508,1,42.857,14,normal
1780590367.9508984,8.422555299999658,8586,0.037109,-0.041748,1.066894,3.732824,2.328244,0.030534,1.068356,4.399504,517,902,385,517,0,72.0,0,normal
1780590367.9815826,8.453239399997983,8617,0.047607,0.025391,1.059082,-0.519084,3.251908,-1.183206,1.060455,3.49919,518,904,386,518,0,72.0,9,normal
1780590368.0127635,8.484420300010242,8648,0.041504,-0.055176,1.023926,1.91603,2.877863,-1.022901,1.026251,3.605495,519,907,388,519,1,72.0,14,normal
1780590368.044102,8.515758699999424,8679,0.048096,-0.019043,1.075684,3.564885,2.160305,0.068702,1.076927,4.168938,524,913,389,524,0,72.0,0,normal
1780590368.075558,8.547214700010954,8711,0.038818,0.020996,1.066406,-0.29771,3.274809,-1.022901,1.067319,3.443738,525,915,390,525,0,72.0,9,normal
1780590368.1063478,8.578004599999986,8742,0.041992,-0.05249,1.039307,2.091603,2.80916,-1.167939,1.041478,3.691919,526,918,392,526,1,72.0,15,normal
1780590368.1365316,8.608188400001382,8773,0.027344,-0.030762,1.062256,3.503817,2.480916,-0.122137,1.063053,4.29495,528,921,393,528,0,72.0,10,normal
1780590368.1673918,8.639048500001081,8803,0.056885,0.012451,1.044678,-0.099237,3.442748,-0.938931,1.046299,3.569867,529,923,394,529,0,72.0,10,normal
1780590368.198278,8.669934700010344,8834,0.043945,-0.031982,1.053223,1.442748,3.183206,-1.503817,1.054624,3.804706,530,926,396,530,1,72.0,14,normal
1780590368.2312365,8.702893200010294,8866,0.040039,-0.049316,1.059326,3.80916,2.564885,0.618321,1.061229,4.633644,539,936,397,539,0,78.571,0,normal
1780590368.2617226,8.733379400000558,8897,0.045898,0.018311,1.056396,-0.244275,3.183206,-0.89313,1.057552,3.31514,540,938,398,540,0,78.571,9,normal
1780590368.2928264,8.764483200007817,8928,0.050049,-0.037842,1.048584,1.549618,2.740458,-1.503817,1.05046,3.488967,541,941,400,541,1,78.571,14,normal
1780590368.3251228,8.796779700001935,8960,0.036621,-0.044678,1.065674,3.679389,2.503817,-0.015267,1.067238,4.450532,550,951,401,550,0,78.571,0,normal
1780590368.3565712,8.828227899997728,8992,0.018066,0.02124,1.060547,-0.389313,3.343511,-1.030534,1.060913,3.520317,551,953,402,551,0,78.571,10,normal
1780590368.3879423,8.859599100003834,9023,0.020996,-0.047607,1.03833,1.969466,2.442748,-1.129771,1.039633,3.334996,552,956,404,552,1,78.571,14,normal
1780590368.4191668,8.8908236999996,9054,0.024414,-0.025146,1.066894,3.099237,2.458015,-0.29771,1.06747,3.96683,556,961,405,556,0,78.571,10,normal
1780590368.4502368,8.921893600010662,9085,0.044922,0.011719,1.050293,-0.114504,3.427481,-1.068702,1.051318,3.592055,557,963,406,557,0,78.571,10,normal
1780590368.4816222,8.953278900007717,9116,0.044434,-0.032227,1.044922,1.610687,2.717557,-1.091603,1.046362,3.342308,558,966,408,558,1,76.0,15,normal
1780590368.5120778,8.983734699999331,9148,0.038086,-0.03833,1.063965,3.450382,2.557252,-0.068702,1.065336,4.295276,567,976,409,567,0,76.0,0,normal
1780590368.5438943,9.015551200005575,9179,0.020508,0.021484,1.056885,0.030534,3.290076,-1.061069,1.057302,3.45708,568,978,410,568,0,76.0,9,normal
1780590368.5726507,9.044307400006801,9209,0.051514,-0.03125,1.045166,1.572519,2.610687,-1.251908,1.046901,3.294811,569,981,412,569,1,76.0,14,normal
1780590368.604865,9.076521800001501,9240,0.054932,-0.050293,1.057861,3.221374,2.564885,-0.229008,1.06048,4.124116,578,992,414,578,0,76.0,0,normal
1780590368.634946,9.106603000007453,9271,0.026367,0.016113,1.060059,-0.167939,3.29771,-1.183206,1.060509,3.507573,579,994,415,579,0,76.0,9,normal
1780590368.6669154,9.138572299998486,9302,0.064209,-0.04126,1.052246,1.709924,2.908397,-1.068702,1.05501,3.53903,580,997,417,580,1,76.0,14,normal
1780590368.6966302,9.168287000007695,9333,0.034424,-0.033447,1.063477,3.748092,2.824427,0.0,1.064559,4.693142,582,1000,418,582,0,76.0,10,normal
1780590368.7270236,9.198680500005139,9363,0.060547,-0.000977,1.057617,0.412214,3.374046,-0.70229,1.059349,3.470925,583,1002,419,583,0,76.0,9,normal
1780590368.759411,9.231067900007474,9394,0.016113,-0.043701,1.035156,0.709924,2.755725,-2.053435,1.036204,3.509218,584,1005,421,584,1,93.525,14,normal
1780590368.791406,9.263062800004263,9427,0.026123,-0.036133,1.05835,3.442748,3.0,-0.030534,1.059288,4.566558,593,1016,423,593,0,93.525,0,normal
1780590368.8399398,9.311596700004884,9458,0.024658,0.010742,1.064453,-0.328244,3.473282,-0.778626,1.064793,3.57459,594,1018,424,594,0,93.525,10,normal
1780590368.8547509,9.326407700005802,9489,0.048584,-0.043945,1.043701,1.946565,2.801527,-1.343511,1.045755,3.666427,595,1021,426,595,1,93.525,14,normal
1780590368.8866053,9.358262100009597,9522,0.032715,-0.014648,1.060547,3.175573,2.694656,-0.175573,1.061152,4.168484,604,1031,427,604,0,93.525,0,normal
1780590368.9192095,9.390866300003836,9553,0.01709,0.014893,1.05542,-0.427481,3.145038,-1.374046,1.055663,3.458614,605,1033,428,605,0,93.525,9,normal
1780590368.9501264,9.421783300000243,9585,0.049561,-0.063721,1.028564,2.381679,2.419847,-0.076336,1.031727,3.396157,606,1036,430,606,1,93.525,14,normal
1780590368.9817016,9.45335850000265,9616,0.050537,-0.010498,1.069824,2.755725,2.335878,-0.419847,1.071069,3.636842,608,1039,431,608,0,93.525,10,normal
1780590369.011572,9.483228700002655,9647,0.015869,0.017822,1.05127,-0.282443,3.381679,-1.152672,1.05154,3.583878,609,1041,432,609,0,98.814,9,normal
1780590369.0444503,9.516107100003865,9678,0.050537,-0.047363,1.054443,2.229008,2.618321,-0.938931,1.056716,3.564502,610,1044,434,610,1,98.814,15,normal
1780590369.073456,9.545112899999367,9710,0.058594,-0.008789,1.085938,3.29771,2.137405,-0.351145,1.087553,3.945465,617,1052,435,617,0,98.814,0,normal
1780590369.1052313,9.576888000010513,9740,0.015869,0.010986,1.040527,-0.847328,3.755725,-0.931298,1.040706,3.961156,618,1054,436,618,0,98.814,9,normal
1780590369.135417,9.607073699997272,9771,0.051514,-0.046631,1.037354,1.78626,2.656489,-1.496183,1.039678,3.533584,619,1057,438,619,1,98.814,13,normal
1780590369.1687686,9.640425400008098,9803,0.037354,-0.035156,1.064941,3.694656,2.267176,0.129771,1.066176,4.336752,628,1067,439,628,0,98.814,0,normal
1780590369.200087,9.671743900005822,9834,0.054688,0.013916,1.061279,-0.709924,3.656489,-1.21374,1.062778,3.917533,629,1069,440,629,0,98.814,9,normal
1780590369.231978,9.703634700010298,9866,0.057373,-0.06958,1.036133,1.832061,2.656489,-1.236641,1.04005,3.455816,630,1072,442,630,1,98.814,14,normal
1780590369.262496,9.734152800010634,9897,0.025635,-0.015625,1.064453,2.870229,2.587786,-0.312977,1.064876,3.877216,632,1075,443,632,0,92.0,11,normal
1780590369.2937045,9.765361300000222,9929,0.032227,0.018311,1.056885,-0.679389,3.412214,-1.580153,1.057534,3.821211,633,1077,444,633,0,92.0,9,normal
1780590369.3245442,9.796200900003896,9960,0.052734,-0.068115,1.039551,2.137405,2.526718,-1.320611,1.043114,3.563259,634,1080,446,634,1,92.0,15,normal
1780590369.3566852,9.828341900007217,9991,0.043945,-0.018555,1.073486,3.114504,2.122137,-0.129771,1.074546,3.771,637,1085,448,637,0,92.0,0,normal
1780590369.3876445,9.859301300006337,10022,0.030273,0.021973,1.057373,-0.282443,3.396947,-1.366412,1.058035,3.672343,638,1087,449,638,0,92.0,9,normal
1780590369.4186807,9.890337500008172,10053,0.033936,-0.068359,1.033691,1.862595,2.320611,-1.122137,1.036505,3.180202,639,1090,451,639,1,92.0,13,normal
1780590369.4487786,9.92043550001108,10084,0.055908,-0.025879,1.064941,3.320611,2.061069,-0.167939,1.066722,3.911862,644,1096,452,644,0,92.0,0,normal
1780590369.4800282,9.951684900006512,10115,0.019531,0.028076,1.054932,-0.671756,3.458015,-0.969466,1.055486,3.653627,645,1098,453,645,0,92.0,9,normal
1780590369.510674,9.98233070000424,10146,0.05835,-0.037598,1.062744,1.679389,2.587786,-1.305344,1.065008,3.349762,646,1101,455,646,1,92.0,14,normal
1780590369.541717,10.01337390000117,10177,0.028564,-0.037598,1.05957,3.29771,2.70229,0.045802,1.060622,4.263726,648,1104,456,648,0,57.143,10,normal
1780590369.573081,10.044737800009898,10207,0.051025,0.017334,1.043213,-0.030534,3.244275,-0.80916,1.044604,3.343799,649,1106,457,649,0,57.143,9,normal
1780590369.6042378,10.075894599998719,10239,0.044922,-0.037598,1.060059,1.557252,2.549618,-1.473282,1.061676,3.331088,650,1109,459,650,1,57.143,15,normal
1780590369.6358702,10.107527000000118,10270,0.052734,-0.031982,1.064941,3.129771,2.389313,-0.160305,1.066726,3.94081,652,1114,462,652,0,57.143,2,normal
1780590369.666007,10.137663900008192,10302,0.06543,0.00708,1.053711,-0.259542,3.526718,-0.671756,1.055764,3.599494,653,1116,463,653,0,57.143,10,normal
1780590369.697613,10.169269700010773,10333,0.038818,-0.027832,1.039795,1.70229,2.984733,-1.290076,1.040891,3.670248,654,1119,465,654,1,57.143,13,normal
1780590369.7298436,10.201500399998622,10365,0.044678,-0.040039,1.067871,3.503817,2.312977,-0.167939,1.069555,4.201761,663,1129,466,663,0,57.143,0,normal
1780590369.760532,10.232188599999063,10396,0.046143,0.019775,1.066406,-0.274809,3.465649,-1.175572,1.067587,3.669906,664,1131,467,664,0,57.143,9,normal
1780590369.7930965,10.26475329999812,10427,0.073242,-0.061035,1.03418,1.656489,2.503817,-0.946565,1.038565,3.147862,665,1134,469,665,1,68.0,14,normal
1780590369.8307188,10.302375500003109,10458,0.036377,-0.033447,1.069824,3.435115,2.244275,-0.053435,1.070965,4.103613,667,1137,470,667,0,68.0,10,normal
1780590369.8541107,10.325767500005895,10489,0.02124,0.023682,1.061768,-0.335878,3.59542,-1.10687,1.062244,3.776906,668,1139,471,668,0,68.0,9,normal
1780590369.8849397,10.356596400000853,10520,0.033447,-0.051025,1.035156,1.969466,2.435115,-1.51145,1.036953,3.477508,669,1142,473,669,1,68.0,14,normal
1780590369.9164073,10.388064200000372,10551,0.025391,-0.030029,1.05249,3.122137,2.572519,-0.068702,1.053225,4.046025,671,1145,474,671,0,68.0,10,normal
1780590369.9471657,10.418822600011481,10582,0.019775,0.020264,1.067627,0.061069,3.709924,-0.732824,1.068002,3.782102,672,1147,475,672,0,68.0,9,normal
1780590369.976496,10.448152700002538,10613,0.049561,-0.038086,1.055176,1.59542,2.519084,-1.29771,1.057025,3.251953,673,1150,477,673,1,68.0,14,normal
1780590370.0077102,10.479367100007948,10643,0.033447,-0.032715,1.063232,3.335878,2.961832,0.236641,1.064261,4.467273,674,1152,478,674,1,68.0,13,normal
1780590370.0387409,10.510397700010799,10674,0.059814,-0.009521,1.044678,0.183206,3.206107,-0.877863,1.046432,3.329163,676,1155,479,676,0,68.0,9,normal
1780590370.0684695,10.540126300009433,10704,0.047119,-0.01709,1.061279,0.931298,3.083969,-1.664122,1.062462,3.625946,677,1157,480,677,0,43.321,8,normal
1780590370.1003842,10.57204100000672,10735,0.05127,-0.04541,1.054443,3.290076,2.763359,0.175573,1.056665,4.300184,678,1160,482,678,1,43.321,13,normal
1780590370.1301725,10.60182920000807,10766,0.062744,0.000977,1.045166,0.908397,2.847328,-0.870229,1.047048,3.112838,680,1163,483,680,0,43.321,9,normal
1780590370.1618803,10.633537000001525,10797,0.052734,-0.009766,1.053467,0.78626,3.51145,-1.961832,1.054831,4.098448,681,1165,484,681,0,43.321,9,normal
1780590370.1938412,10.665498000002117,10828,0.070557,-0.063232,1.043701,3.290076,2.977099,0.351145,1.047993,4.450958,682,1168,486,682,1,43.321,14,normal
1780590370.2244303,10.696087100004661,10859,0.042969,0.026367,1.050537,1.572519,2.908397,-0.992366,1.051746,3.452011,684,1171,487,684,0,43.321,9,normal
1780590370.255076,10.726732700000866,10890,0.043945,-0.010498,1.063721,0.549618,3.549618,-1.496183,1.06468,3.891071,685,1173,488,685,0,43.321,10,normal
1780590370.2864792,10.758136100004776,10921,0.056641,-0.055908,1.03418,3.114504,3.022901,0.099237,1.037237,4.341418,686,1176,490,686,1,43.321,14,normal
1780590370.3165267,10.788183500000741,10952,0.058594,0.014893,1.056152,2.442748,2.938931,-0.419847,1.057881,3.844555,688,1179,491,688,0,43.321,10,normal
1780590370.3478556,10.819512300004135,10983,0.031494,0.009033,1.067139,-0.015267,3.396947,-1.625954,1.067642,3.76606,689,1181,492,689,0,43.011,9,normal
1780590370.3792794,10.85093610000331,11014,0.052734,-0.074951,1.028076,3.061069,3.045802,-0.152672,1.032153,4.320921,690,1184,494,690,1,43.011,14,normal
1780590370.4095354,10.88119220000226,11045,0.016113,-0.009033,1.058106,2.793893,2.770992,-0.198473,1.058267,3.940004,692,1187,495,692,0,43.011,9,normal
1780590370.4415019,10.913158700001077,11075,0.028076,0.018799,1.050781,-0.793893,3.458015,-1.007634,1.051324,3.688287,693,1189,496,693,0,43.011,9,normal
1780590370.4711225,10.942779200006044,11106,0.044189,-0.064209,1.044678,2.122137,2.580153,-0.847328,1.047582,3.446538,694,1192,498,694,1,43.011,14,normal
1780590370.5028267,10.97448340000119,11137,0.020264,-0.015625,1.066162,3.427481,2.022901,-0.267176,1.066469,3.988876,696,1195,499,696,0,43.011,9,normal
1780590370.5325327,11.004189600003883,11168,0.050781,0.023438,1.048828,-0.465649,3.641221,-0.984733,1.050318,3.800661,697,1197,500,697,0,43.011,9,normal
1780590370.569115,11.040771800006041,11199,0.037598,-0.03833,1.046631,1.824428,2.862595,-1.053435,1.048007,3.554253,698,1200,502,698,1,43.011,14,normal
1780590370.601523,11.073179800005164,11236,0.071777,0.013428,1.062744,0.244275,3.671756,-0.526718,1.06525,3.717377,700,1203,503,700,0,43.478,9,normal
1780590370.6347938,11.106450600011158,11268,0.036377,-0.021973,1.049805,1.374046,2.984733,-1.633588,1.050665,3.669502,701,1206,505,701,1,43.478,14,normal
1780590370.6652174,11.136874100004206,11301,0.045166,-0.030762,1.061768,3.366412,2.137405,0.007634,1.063173,3.987642,706,1212,506,706,0,43.478,0,normal
1780590370.6977863,11.169443100006902,11332,0.0271,0.022461,1.049805,-0.824427,3.770992,-1.473282,1.050394,4.131662,707,1214,507,707,0,43.478,9,normal
1780590370.7277884,11.199445300007937,11363,0.04834,-0.033936,1.045654,2.030534,2.450382,-0.977099,1.047321,3.328988,708,1217,509,708,1,43.478,14,normal
1780590370.7595325,11.23118919999979,11394,0.03833,-0.023682,1.080811,3.206107,2.068702,-0.10687,1.081749,3.817076,710,1220,510,710,0,43.478,9,normal
1780590370.7887485,11.260405300010461,11425,0.026123,0.008301,1.051514,-0.122137,3.389313,-0.78626,1.051871,3.48146,711,1224,513,711,0,43.478,0,normal
1780590370.820963,11.292619700005162,11455,0.045654,-0.044434,1.035156,1.312977,2.618321,-1.725191,1.037115,3.399382,712,1227,515,712,1,43.478,14,normal
1780590370.8521454,11.3238022000005,11487,0.054688,-0.044678,1.071289,3.160305,2.114504,-0.061069,1.073614,3.802944,721,1239,518,721,0,83.665,0,normal
1780590370.884315,11.355971700002556,11519,0.040283,0.016113,1.066894,-0.251908,3.419847,-1.198473,1.067776,3.632513,722,1241,519,722,0,83.665,9,normal
1780590370.9141054,11.385762300007627,11550,0.0625,-0.043213,1.034424,2.137405,2.687023,-0.984733,1.037211,3.571875,723,1244,521,723,1,83.665,13,normal
1780590370.9466908,11.418347600003472,11581,0.050049,-0.02124,1.069336,2.969466,2.389313,-0.183206,1.070717,3.815771,725,1247,522,725,0,83.665,9,normal
1780590370.9768095,11.44846640000469,11612,0.013672,0.024902,1.063721,-0.145038,3.083969,-1.221374,1.0641,3.32019,726,1249,523,726,0,83.665,9,normal
1780590371.0089717,11.480628400007845,11643,0.057129,-0.046631,1.043457,1.755725,2.381679,-1.030534,1.04606,3.133204,727,1252,525,727,1,83.665,14,normal
1780590371.0393,11.51095670000359,11674,0.041504,-0.032471,1.061035,3.465649,2.442748,-0.183206,1.062343,4.243973,729,1255,526,729,0,83.665,10,normal
1780590371.0686667,11.540323499997612,11705,0.030762,0.003906,1.065186,-0.328244,3.198473,-0.946565,1.065637,3.35171,730,1257,527,730,0,83.665,9,normal
1780590371.1013386,11.572995499998797,11735,0.062012,-0.036133,1.053467,1.503817,2.725191,-1.396947,1.055909,3.411684,731,1260,529,731,1,83.665,14,normal
1780590371.1338468,11.60550360000343,11768,0.057373,-0.046631,1.072754,3.152672,2.312977,-0.229008,1.075299,3.916842,740,1270,530,740,0,67.616,1,normal
1780590371.1638675,11.635524299999815,11800,0.040527,0.004639,1.06665,-0.412214,3.40458,-1.053435,1.06743,3.587592,741,1272,531,741,0,67.616,10,normal
1780590371.1955347,11.667191400003503,11829,0.036865,-0.02832,1.04126,1.396947,2.671756,-1.503817,1.042297,3.369155,742,1275,533,742,1,67.616,14,normal
1780590371.2256694,11.697326100009377,11861,0.044678,-0.030273,1.076416,3.0,2.198473,-0.21374,1.077768,3.725449,751,1285,534,751,0,67.616,1,normal
1780590371.255944,11.727600700003677,11892,0.052002,0.000488,1.063965,-0.351145,3.29771,-0.977099,1.065235,3.457299,752,1287,535,752,0,67.616,9,normal
1780590371.287047,11.758703700004844,11922,0.045898,-0.048828,1.041748,1.305344,2.564885,-1.335878,1.043901,3.172874,753,1290,537,753,1,67.616,14,normal
1780590371.3166223,11.788279100001091,11953,0.057861,-0.03125,1.063232,3.419847,3.152672,-0.007634,1.065264,4.651318,754,1292,538,754,1,67.616,13,normal
1780590371.3472085,11.818865300010657,11983,0.039062,0.006836,1.040283,0.870229,2.984733,-0.534351,1.041039,3.154594,756,1295,539,756,0,67.616,10,normal
1780590371.3802795,11.851936300008674,12014,0.052246,-0.036133,1.049316,1.114504,2.755725,-2.030534,1.051238,3.59989,757,1298,541,757,1,67.616,14,normal
1780590371.4108784,11.882535199998529,12045,0.03833,-0.046631,1.053223,3.442748,3.145038,0.274809,1.054951,4.671113,758,1300,542,758,1,64.982,13,normal
1780590371.4420252,11.913681899997755,12077,0.023926,0.009033,1.038574,0.427481,3.801527,-0.78626,1.038889,3.905451,760,1303,543,760,0,64.982,9,normal
1780590371.474027,11.94568380000419,12108,0.071045,-0.022461,1.07373,0.961832,2.938931,-1.656489,1.076313,3.508047,761,1306,545,761,1,64.982,14,normal
1780590371.5053432,11.976999999998952,12141,0.027832,-0.032715,1.058594,3.59542,2.648855,0.496183,1.059465,4.493292,770,1316,546,770,0,64.982,0,normal
1780590371.5376039,12.009260600010748,12172,0.051025,0.011475,1.059326,-0.564886,3.48855,-0.725191,1.060616,3.607628,771,1318,547,771,0,64.982,10,normal
1780590371.5683594,12.040016099999775,12203,0.036377,-0.05542,1.049805,1.70229,2.603053,-1.633588,1.051896,3.513159,772,1321,549,772,1,64.982,14,normal
1780590371.599436,12.071092800004408,12234,0.050293,-0.037109,1.060547,3.984733,2.625954,0.412214,1.062387,4.789953,773,1323,550,773,1,64.982,13,normal
1780590371.6296613,12.101318200002424,12265,0.059814,0.006348,1.046387,-0.183206,2.89313,-0.793893,1.048114,3.005666,775,1326,551,775,0,64.982,10,normal
1780590371.6624062,12.134063000004971,12296,0.039062,-0.054688,1.055176,1.21374,2.725191,-1.824428,1.057314,3.496908,776,1329,553,776,1,71.713,14,normal
1780590371.6933136,12.164970300000277,12329,0.048096,-0.036621,1.074219,3.70229,2.389313,0.435114,1.075918,4.427764,785,1340,555,785,0,71.713,0,normal
1780590371.7258265,12.197483299998567,12360,0.065186,0.018311,1.049561,-0.793893,3.358779,-0.679389,1.051742,3.51756,786,1342,556,786,0,71.713,10,normal
1780590371.7570076,12.228664399997797,12391,0.006348,-0.042725,1.045898,1.442748,2.618321,-1.496183,1.04679,3.343006,787,1345,558,787,1,71.713,14,normal
1780590371.794631,12.266287799997372,12423,0.017578,-0.034424,1.063232,3.725191,2.442748,0.076336,1.063935,4.455322,796,1355,559,796,0,71.713,0,normal
1780590371.820632,12.292288800003007,12455,0.033936,0.020508,1.060791,-0.587786,3.572519,-1.137405,1.061532,3.795006,797,1357,560,797,0,71.713,9,normal
1780590371.8512633,12.322920200007502,12486,0.023438,-0.055176,1.044678,2.030534,2.526718,-1.122137,1.046396,3.430242,798,1360,562,798,1,71.713,14,normal
1780590371.8823636,12.3540204000019,12518,0.010498,-0.004883,1.054199,3.198473,1.938931,-0.305344,1.054263,3.752722,800,1363,563,800,0,71.713,9,normal
1780590371.9140265,12.385683400003472,12549,0.064209,0.01416,1.058838,-0.450382,3.580153,-1.473282,1.060877,3.89755,801,1365,564,801,0,98.814,9,normal
1780590371.9448729,12.416529599999194,12580,0.045898,-0.052002,1.036865,1.969466,3.038168,-0.839695,1.039183,3.716766,802,1368,566,802,1,98.814,14,normal
1780590371.9765549,12.448211599999922,12611,0.034424,-0.02417,1.067139,2.694656,2.305344,-0.351145,1.067967,3.563578,809,1376,567,809,0,98.814,1,normal
1780590372.0083673,12.480024100004812,12643,0.032471,0.012207,1.058838,-0.312977,3.229008,-1.328244,1.059406,3.505521,810,1378,568,810,0,98.814,9,normal
1780590372.03969,12.511346700004651,12675,0.044922,-0.063477,1.02417,2.839695,3.007634,-0.122137,1.027118,4.138193,811,1381,570,811,1,98.814,13,normal
1780590372.0704665,12.542123200008064,12706,0.057617,0.002197,1.061279,3.19084,2.328244,0.091603,1.062844,3.951022,813,1384,571,813,0,98.814,9,normal
1780590372.1018107,12.573467599999276,12737,0.035889,0.018799,1.072022,-0.48855,3.038168,-1.549618,1.072787,3.445354,814,1386,572,814,0,98.814,9,normal
1780590372.132956,12.604612900002394,12768,0.032471,-0.080322,1.032715,2.419847,2.793893,-0.59542,1.036343,3.743798,815,1389,574,815,1,98.814,14,normal
1780590372.1638453,12.635502200006158,12799,0.048828,-0.019287,1.063721,2.770992,2.175573,-0.29771,1.065015,3.535555,817,1392,575,817,0,64.0,10,normal
1780590372.1945188,12.666175500009558,12830,0.070312,0.009033,1.081299,-0.343511,3.526718,-1.473282,1.08362,3.837486,818,1394,576,818,0,64.0,9,normal
1780590372.226492,12.698148700001184,12861,0.047363,-0.066895,1.043213,2.183206,2.78626,-0.381679,1.046428,3.56024,819,1397,578,819,1,64.0,15,normal
1780590372.256912,12.728568799997447,12892,0.039062,-0.021729,1.062744,2.969466,2.152672,-0.236641,1.063684,3.675285,821,1400,579,821,0,64.0,10,normal
1780590372.288721,12.760377900005551,12923,0.025391,0.012695,1.058594,-0.236641,3.557252,-1.114504,1.058974,3.735259,822,1402,580,822,0,64.0,10,normal
1780590372.3185017,12.790158600007999,12954,0.033203,-0.049072,1.041016,1.816794,2.442748,-0.656489,1.0427,3.114279,823,1405,582,823,1,64.0,13,normal
1780590372.3510234,12.822680299999774,12985,0.023926,-0.019287,1.059326,3.007634,2.343511,-0.534351,1.059772,3.850122,825,1408,583,825,0,64.0,9,normal
1780590372.3817444,12.853401100001065,13016,0.051758,0.012207,1.054443,-0.335878,3.458015,-0.908397,1.055783,3.591082,826,1410,584,826,0,64.0,9,normal
1780590372.413064,12.884720800007926,13048,0.059814,-0.068604,1.052002,1.78626,2.78626,-0.694656,1.055932,3.381792,827,1413,586,827,1,64.0,14,normal
1780590372.4437766,12.915433300004224,13079,0.022949,-0.009277,1.064697,2.694656,2.557252,-0.442748,1.064985,3.741221,829,1416,587,829,0,42.857,10,normal
1780590372.4760506,12.947707300001639,13110,0.038574,0.018555,1.058594,-0.175573,3.251908,-1.022901,1.059459,3.413511,830,1418,588,830,0,42.857,9,normal
1780590372.505859,12.97751579999749,13141,0.048828,-0.046631,1.033691,2.145038,2.557252,-0.740458,1.035894,3.418919,831,1421,590,831,1,42.857,14,normal
1780590372.5376735,13.009330200002296,13172,0.020264,-0.0271,1.056885,3.030534,2.305344,-0.496183,1.057426,3.839914,833,1424,591,833,0,42.857,10,normal
1780590372.567503,13.039159699997981,13203,0.004395,0.017334,1.072266,-0.29771,2.816794,-1.137405,1.072415,3.052318,834,1426,592,834,0,42.857,10,normal
1780590372.5979865,13.069643200011342,13233,0.035156,-0.049316,1.038574,2.068702,2.778626,-1.244275,1.040339,3.68083,835,1429,594,835,1,42.857,14,normal
1780590372.6299834,13.10164020000957,13265,0.038574,-0.023193,1.071533,3.458015,2.587786,-0.152672,1.072478,4.321784,845,1440,595,845,0,42.857,0,normal
1780590372.6611478,13.132804699998815,13296,0.043701,0.010986,1.064941,-0.618321,2.854962,-0.816794,1.065894,3.033196,846,1442,596,846,0,42.857,9,normal
1780590372.6923368,13.16399359999923,13327,0.040771,-0.050049,1.043701,1.908397,2.480916,-1.099237,1.045696,3.317416,847,1445,598,847,1,42.857,13,normal
1780590372.7232215,13.194878399997833,13358,0.035889,-0.023193,1.067627,3.198473,2.480916,0.068702,1.068482,4.048444,849,1448,599,849,0,71.685,10,normal
1780590372.7545462,13.226202899997588,13389,0.034668,0.012695,1.063721,-0.435114,3.328244,-0.618321,1.064361,3.413042,850,1450,600,850,0,71.685,9,normal
1780590372.7877457,13.259402600000612,13421,0.031982,-0.046875,1.048828,2.564885,2.320611,-0.496183,1.050362,3.494291,851,1453,602,851,1,71.685,14,normal
1780590372.822293,13.293949800005066,13452,0.068359,-0.037354,1.06665,3.435115,2.458015,0.21374,1.069491,4.229366,853,1456,603,853,0,71.685,10,normal
1780590372.8484185,13.320075199997518,13483,0.029297,0.013184,1.050537,-0.618321,3.458015,-0.938931,1.051028,3.636177,854,1458,604,854,0,71.685,9,normal
1780590372.8794162,13.351072999997996,13514,0.04248,-0.059326,1.045898,1.679389,2.458015,-1.633588,1.048441,3.395703,855,1461,606,855,1,71.685,14,normal
1780590372.9115198,13.383176600007573,13546,0.049561,-0.025146,1.090576,3.343511,2.267176,0.015267,1.091991,4.039726,864,1474,610,864,0,71.685,0,normal
1780590372.9435742,13.415231000006315,13578,0.022461,0.025879,1.049805,-0.847328,3.458015,-1.328244,1.050364,3.800009,865,1476,611,865,0,71.685,9,normal
1780590372.973734,13.445390799999586,13609,0.053711,-0.054932,1.045654,2.0,2.206107,-0.984733,1.048473,3.136336,866,1479,613,866,1,67.729,14,normal
1780590373.0050807,13.476737600009074,13640,0.029297,-0.04248,1.061279,3.396947,2.541985,-0.068702,1.062533,4.243307,875,1489,614,875,0,67.729,0,normal
1780590373.0370183,13.508675100005348,13671,0.047363,0.013428,1.05835,-0.908397,3.465649,-0.908397,1.059494,3.696092,876,1491,615,876,0,67.729,10,normal
1780590373.0676558,13.539312499997322,13702,0.031738,-0.034668,1.04248,1.725191,2.587786,-1.274809,1.04354,3.361258,877,1494,617,877,1,67.729,14,normal
1780590373.097919,13.569575800007442,13733,0.049805,-0.033447,1.071777,3.877863,2.679389,0.320611,1.073455,4.724376,879,1497,618,879,0,67.729,9,normal
1780590373.1299875,13.601644200010924,13764,0.037354,0.033691,1.064209,-0.587786,3.267176,-0.946565,1.065397,3.451944,880,1499,619,880,0,67.729,10,normal
1780590373.1616914,13.63334830000531,13795,0.039307,-0.046631,1.041992,1.366412,2.549618,-1.587786,1.043775,3.299803,881,1502,621,881,1,67.729,14,normal
1780590373.1922972,13.663954100004048,13827,0.031006,-0.040771,1.054199,3.603053,2.458015,0.19084,1.055443,4.365804,890,1513,623,890,0,67.729,0,normal
1780590373.2243056,13.695962400001008,13859,0.045898,0.022949,1.071045,-0.221374,3.114504,-1.129771,1.072274,3.32047,891,1515,624,891,0,100.0,9,normal
1780590373.2557163,13.727373100002296,13890,0.035645,-0.062256,1.033936,1.984733,2.389313,-1.358779,1.036421,3.390319,892,1518,626,892,1,100.0,13,normal
1780590373.285441,13.757097699999576,13921,0.03125,-0.029541,1.063965,3.458015,2.396947,-0.183206,1.064834,4.211506,894,1521,627,894,0,100.0,9,normal
1780590373.3179047,13.789561500001582,13952,0.042236,0.018311,1.066162,-0.358779,3.328244,-0.885496,1.067156,3.462663,895,1523,628,895,0,100.0,9,normal
1780590373.3477693,13.81942600000184,13983,0.030273,-0.024902,1.058838,2.053435,2.59542,-1.251908,1.059563,3.538372,896,1526,630,896,1,100.0,14,normal
1780590373.3796618,13.85131860000547,14013,0.040039,-0.030273,1.067139,3.396947,2.419847,-0.076336,1.068318,4.171418,898,1529,631,898,0,100.0,10,normal
1780590373.410149,13.88180590000411,14045,0.024414,0.019043,1.051025,-0.381679,2.992366,-1.10687,1.051481,3.213269,899,1531,632,899,0,100.0,9,normal
1780590373.4426372,13.914294100002735,14076,0.055176,-0.045166,1.066894,1.603053,2.633588,-1.274809,1.069275,3.336271,900,1534,634,900,1,100.0,14,normal
1780590373.473238,13.944894800006296,14108,0.01709,-0.021729,1.068359,3.167939,2.335878,-0.206107,1.068717,3.941401,909,1544,635,909,0,100.0,1,normal
1780590373.5050013,13.976658200001111,14139,0.029541,0.019531,1.051025,-0.519084,3.519084,-0.961832,1.051622,3.684904,910,1546,636,910,0,67.857,10,normal
1780590373.5352108,14.006867600008263,14170,0.055908,-0.043701,1.044189,1.679389,2.122137,-1.08397,1.046598,2.915271,911,1549,638,911,1,67.857,14,normal
1780590373.5677948,14.039451500008,14202,0.053955,-0.032959,1.074463,3.450382,2.099237,-0.442748,1.076322,4.062998,920,1559,639,920,0,67.857,1,normal
1780590373.5979948,14.069651600002544,14233,0.050293,0.014648,1.061523,-0.496183,3.480916,-1.160305,1.062815,3.702605,921,1561,640,921,0,67.857,9,normal
1780590373.6291173,14.100774000005913,14264,0.041016,-0.05835,1.036865,2.175573,2.496183,-0.801527,1.039315,3.40683,922,1564,642,922,1,67.857,14,normal
1780590373.6605341,14.132190900010755,14295,0.035156,-0.027588,1.063477,3.007634,2.282443,-0.145038,1.064415,3.778418,924,1567,643,924,0,67.857,10,normal
1780590373.6932254,14.164882199998829,14327,0.030518,0.021973,1.062012,-0.29771,3.526718,-1.282443,1.062677,3.764443,925,1569,644,925,0,67.857,10,normal
1780590373.7232108,14.19486770000367,14358,0.050049,-0.062988,1.042969,2.129771,2.450382,-0.687023,1.046067,3.318478,926,1572,646,926,1,67.857,14,normal
1780590373.7539032,14.225560000006226,14389,0.045166,-0.008545,1.063477,2.870229,2.175573,-0.473282,1.06447,3.632537,928,1575,647,928,0,72.0,9,normal
1780590373.7849617,14.256618600004003,14420,0.025879,0.022461,1.080566,-0.51145,3.343511,-1.045802,1.08111,3.540388,929,1577,648,929,0,72.0,9,normal
1780590373.8160856,14.28774230000272,14451,0.043945,-0.05835,1.041748,1.91603,2.358779,-0.923664,1.044306,3.176187,930,1580,650,930,1,72.0,13,normal
1780590373.846985,14.318641899997601,14482,0.041504,-0.015869,1.071045,3.152672,2.51145,0.015267,1.071966,4.030751,932,1583,651,932,0,72.0,9,normal
1780590373.8789072,14.35056400000758,14513,0.029785,0.029541,1.073242,-0.038168,3.137405,-1.045802,1.074062,3.307335,933,1585,652,933,0,72.0,9,normal
1780590373.9099271,14.381583900001715,14545,0.054199,-0.074951,1.032715,2.503817,2.732824,-0.480916,1.036849,3.737474,934,1588,654,934,1,72.0,14,normal
1780590373.940997,14.412653699997463,14576,0.023193,0.005615,1.059814,2.679389,2.320611,-0.900763,1.060083,3.657286,936,1591,655,936,0,72.0,10,normal
1780590373.9722178,14.443874700009474,14607,0.046387,0.01001,1.071045,-0.129771,3.282443,-1.221374,1.072096,3.504715,937,1593,656,937,0,72.0,9,normal
1780590374.0030973,14.474754100010614,14638,0.026855,-0.043945,1.042236,2.030534,2.625954,-0.70229,1.043508,3.392922,938,1596,658,938,1,72.0,14,normal
1780590374.034341,14.505998000007821,14669,0.024902,-0.006348,1.055664,3.030534,2.312977,-0.603053,1.055977,3.85975,940,1599,659,940,0,42.857,9,normal
1780590374.065104,14.536760800008778,14700,0.053711,0.007568,1.058838,-0.427481,3.137405,-0.938931,1.060226,3.302672,941,1601,660,941,0,42.857,10,normal
1780590374.0960917,14.56774850000511,14731,0.046875,-0.052002,1.041992,1.923664,2.389313,-1.290076,1.044341,3.327702,942,1604,662,942,1,42.857,14,normal
1780590374.1274312,14.599087900001905,14763,0.028809,-0.020752,1.074951,3.328244,2.305344,-0.045802,1.075537,4.04894,951,1614,663,951,0,42.857,0,normal
1780590374.159074,14.630730800010497,14794,0.028076,0.029297,1.05249,-0.557252,3.083969,-1.10687,1.053272,3.323636,952,1616,664,952,0,42.857,9,normal
1780590374.1895375,14.661194300002535,14825,0.031738,-0.052734,1.046143,2.083969,2.40458,-0.847328,1.047952,3.292856,953,1619,666,953,1,42.857,14,normal
1780590374.2209392,14.692596000008052,14856,0.035889,-0.0271,1.068359,3.679389,2.480916,0.21374,1.069305,4.442807,955,1622,667,955,0,42.857,9,normal
1780590374.253677,14.725333700000192,14887,0.012451,0.02417,1.052978,-1.022901,3.244275,-1.145038,1.05333,3.589256,956,1624,668,956,0,42.857,9,normal
1780590374.2839577,14.755614599998808,14919,0.045654,-0.058594,1.030762,2.419847,2.618321,-1.335878,1.033435,3.80734,957,1627,670,957,1,68.0,14,normal
1780590374.3161016,14.787758300008136,14951,0.05957,-0.028564,1.072266,3.763359,2.10687,-0.198473,1.074299,4.317542,966,1637,671,966,0,68.0,0,normal
1780590374.3471196,14.818776400003117,14982,0.028076,0.019775,1.063232,-0.984733,3.603053,-0.984733,1.063787,3.862822,967,1639,672,967,0,68.0,9,normal
1780590374.3788035,14.850460200002999,15013,0.044678,-0.047119,1.040772,2.251908,2.564885,-1.076336,1.042795,3.578858,968,1642,674,968,1,68.0,14,normal
1780590374.4096704,14.881327200011583,15045,0.058594,-0.04248,1.067627,3.656489,1.91603,0.175573,1.070077,4.131817,977,1652,675,977,0,68.0,0,normal
1780590374.4410036,14.912660400004825,15076,0.041992,0.030273,1.077148,-0.664122,3.198473,-1.259542,1.078392,3.501105,978,1654,676,978,0,68.0,9,normal
1780590374.4709287,14.94258550000086,15107,0.046143,-0.068115,1.047363,1.816794,2.59542,-1.480916,1.05059,3.49715,980,1659,679,980,1,68.0,13,normal
1780590374.502089,14.973745900002541,15137,0.047852,-0.047607,1.057617,3.671756,2.572519,0.183206,1.059769,4.487004,982,1662,680,982,0,68.0,9,normal
1780590374.5332348,15.004891700009466,15168,0.049561,0.026611,1.056641,-0.389313,3.244275,-0.977099,1.058137,3.410514,983,1664,681,983,0,68.0,9,normal
1780590374.5643837,15.036040600010892,15199,0.03418,-0.03833,1.060059,1.519084,2.801527,-1.381679,1.061302,3.473501,984,1667,683,984,1,96.429,14,normal
1780590374.5971987,15.068855600009556,15232,0.051758,-0.053467,1.061035,3.717557,2.610687,0.244275,1.063641,4.54924,994,1682,688,994,0,96.429,0,normal
1780590374.6273632,15.099019900007988,15262,0.073242,0.020752,1.060547,-0.358779,3.083969,-0.648855,1.063275,3.171845,995,1684,689,995,0,96.429,9,normal
1780590374.6581335,15.12979040000937,15293,0.045898,-0.038086,1.049316,1.541985,2.748092,-1.290076,1.05101,3.405,996,1687,691,996,1,96.429,13,normal
1780590374.691143,15.162799800003995,15325,0.0271,-0.037598,1.061279,3.152672,2.503817,0.175573,1.062291,4.029797,1005,1697,692,1005,0,96.429,1,normal
1780590374.7215083,15.193165000004228,15357,0.053223,0.009521,1.056885,-0.671756,3.244275,-1.198473,1.058267,3.523196,1006,1699,693,1006,0,96.429,9,normal
1780590374.7541275,15.225784399997792,15388,0.028076,-0.057129,1.042236,2.19084,2.557252,-0.816794,1.044178,3.465035,1007,1702,695,1007,1,96.429,14,normal
1780590374.7839968,15.255653600004734,15419,0.026367,-0.004639,1.061279,2.916031,2.618321,-0.465649,1.061617,3.946602,1009,1705,696,1009,0,96.429,10,normal
1780590374.8149748,15.286631700000726,15450,0.049561,0.009277,1.065674,-0.641221,3.389313,-1.251908,1.066866,3.669589,1010,1707,697,1010,0,103.586,9,normal
1780590374.845867,15.317523700010497,15481,0.048584,-0.053223,1.038818,2.175573,2.450382,-1.038168,1.041315,3.437336,1011,1710,699,1011,1,103.586,15,normal
1780590374.8778377,15.3494944999984,15512,0.042725,-0.024414,1.073242,3.358779,2.389313,-0.137405,1.07437,4.124208,1013,1713,700,1013,0,103.586,10,normal
1780590374.9088707,15.380527400004212,15543,0.050537,0.017334,1.065186,-0.473282,2.625954,-1.229008,1.066525,2.937702,1014,1715,701,1014,0,103.586,10,normal
1780590374.9401,15.411756800007424,15575,0.060059,-0.052734,1.032227,2.038168,2.351145,-1.282443,1.035316,3.365512,1015,1718,703,1015,1,103.586,13,normal
1780590374.9709883,15.442645000002813,15606,0.040771,-0.006836,1.066406,3.221374,2.328244,-0.51145,1.067207,4.007437,1017,1721,704,1017,0,103.586,10,normal
1780590375.0029671,15.474623900008737,15637,0.002197,0.023682,1.051514,-0.328244,3.083969,-1.351145,1.051783,3.382928,1018,1723,705,1018,0,103.586,9,normal
1780590375.0340164,15.505673100007698,15668,0.061035,-0.052246,1.03833,1.78626,2.458015,-1.21374,1.041434,3.271961,1019,1726,707,1019,1,103.586,14,normal
1780590375.0639913,15.535648200006108,15699,0.030762,-0.02002,1.052246,3.40458,2.572519,0.305344,1.052886,4.278114,1021,1729,708,1021,0,103.586,10,normal
1780590375.0954154,15.567072100006044,15730,0.050537,0.013916,1.053955,-0.328244,3.0,-1.022901,1.055258,3.186545,1022,1731,709,1022,0,42.857,9,normal
1780590375.1265867,15.598243500004173,15761,0.052246,-0.040771,1.041016,1.938931,2.610687,-1.045802,1.043123,3.415969,1023,1734,711,1023,1,42.857,14,normal
1780590375.1585615,15.63021820000722,15793,0.037842,-0.012207,1.071289,3.030534,2.251908,-0.763359,1.072027,3.852006,1025,1737,712,1025,0,42.857,9,normal
1780590375.1901517,15.66180840000743,15825,0.039062,0.018555,1.07373,-0.229008,2.778626,-1.160305,1.074601,3.019854,1026,1739,713,1026,0,42.857,10,normal
1780590375.2217226,15.693379400006961,15856,0.045654,-0.060303,1.04126,2.068702,2.305344,-0.305344,1.044003,3.112454,1027,1742,715,1027,1,42.857,14,normal
1780590375.2523305,15.723987300007138,15887,0.026611,-0.006104,1.060059,2.923664,2.412214,-0.740458,1.06041,3.861977,1029,1745,716,1029,0,42.857,10,normal
1780590375.2831612,15.75481790000049,15917,0.046387,0.010498,1.046143,-0.770992,3.725191,-1.061069,1.047223,3.949347,1030,1747,717,1030,0,42.857,9,normal
1780590375.313326,15.78498280000349,15948,0.037354,-0.041016,1.052734,1.870229,2.709924,-1.206107,1.054195,3.506585,1031,1750,719,1031,1,42.857,14,normal
1780590375.3451016,15.816758400003891,15979,0.048584,-0.025635,1.074219,3.549618,2.152672,-0.053435,1.075622,4.151704,1033,1753,720,1033,0,42.857,10,normal
1780590375.3762765,15.847933299999568,16011,0.048584,0.016113,1.049561,-0.793893,3.129771,-1.10687,1.050808,3.41334,1034,1755,721,1034,0,42.705,9,normal
1780590375.407909,15.879565800001728,16042,0.032227,-0.060547,1.045166,1.78626,2.862595,-1.328244,1.047414,3.626212,1035,1758,723,1035,1,42.705,14,normal
1780590375.4384098,15.910066700002062,16073,0.029541,-0.027588,1.06543,3.633588,2.503817,-0.076336,1.066196,4.413376,1037,1761,724,1037,0,42.705,10,normal
1780590375.4699457,15.941602500010049,16104,0.077148,0.019775,1.057129,-0.961832,3.564885,-0.931298,1.060125,3.807998,1038,1763,725,1038,0,42.705,10,normal
1780590375.5010214,15.972678300007829,16135,0.042725,-0.047119,1.042969,1.862595,3.48855,-1.687023,1.044906,4.299452,1039,1766,727,1039,1,42.705,14,normal
1780590375.5330477,16.00470440000936,16167,0.031738,-0.039795,1.057861,3.931298,2.412214,0.40458,1.059085,4.630072,1048,1777,729,1048,0,42.705,0,normal
1780590375.5637405,16.03539720000117,16198,0.024902,0.033447,1.06543,-0.717557,3.091603,-1.015267,1.066245,3.332216,1049,1779,730,1049,0,42.705,9,normal
1780590375.5942528,16.06590970000252,16229,0.047852,-0.047852,1.043701,1.480916,2.755725,-1.694656,1.045893,3.557948,1050,1782,732,1050,1,42.705,14,normal
1780590375.6265817,16.098238400008995,16261,0.019287,-0.046387,1.065186,3.618321,2.343511,0.366412,1.066369,4.326494,1060,1793,733,1060,0,104.0,0,normal
1780590375.6563914,16.128048300000955,16292,0.044922,0.024658,1.063232,-0.656489,3.59542,-0.969466,1.064467,3.781254,1061,1795,734,1061,0,104.0,9,normal
1780590375.6875417,16.15919849999773,16322,0.040039,-0.042725,1.038574,1.274809,2.770992,-1.709924,1.040224,3.496766,1062,1798,736,1062,1,104.0,15,normal
1780590375.7189023,16.190559100010432,16354,0.053223,-0.044189,1.067383,3.709924,2.564885,0.229008,1.069622,4.51604,1066,1803,737,1066,0,104.0,9,normal
1780590375.7508729,16.222529700011364,16385,0.067871,0.023438,1.063477,-0.114504,3.549618,-0.969466,1.065898,3.681408,1067,1805,738,1067,0,104.0,10,normal
1780590375.7905147,16.262171399997897,16416,0.036377,-0.03833,1.053223,1.435114,2.938931,-1.694656,1.054548,3.683576,1068,1808,740,1068,1,104.0,14,normal
1780590375.8132834,16.284940300000017,16448,0.056885,-0.046631,1.063477,3.770992,2.580153,0.450382,1.066017,4.591341,1078,1819,741,1078,0,104.0,0,normal
1780590375.8438282,16.315485099999933,16479,0.071289,0.007324,1.065186,-0.557252,3.282443,-0.847328,1.067594,3.435539,1079,1821,742,1079,0,104.0,9,normal
1780590375.875131,16.346787800008315,16510,0.055176,-0.035889,1.057861,1.480916,2.725191,-1.648855,1.059907,3.51262,1080,1824,744,1080,1,104.0,14,normal
1780590375.908435,16.380091900005937,16542,0.027344,-0.033691,1.062256,3.656489,1.977099,-0.099237,1.063142,4.157966,1089,1834,745,1089,0,103.203,1,normal
1780590375.939725,16.411381700003403,16574,0.056396,0.015381,1.074219,-0.748092,2.877863,-1.343511,1.075808,3.262937,1090,1836,746,1090,0,103.203,9,normal
1780590375.971524,16.443180800008122,16606,0.048828,-0.078369,1.045166,2.358779,2.717557,-0.366412,1.049237,3.617072,1091,1839,748,1091,1,103.203,14,normal
1780590376.0022423,16.473899100004928,16637,0.051514,-0.006348,1.058838,2.679389,2.122137,0.076336,1.060109,3.418833,1093,1842,749,1093,0,103.203,10,normal
1780590376.0335412,16.50519809999969,16668,0.041504,0.018066,1.053711,-0.534351,3.167939,-1.534351,1.054683,3.560281,1094,1844,750,1094,0,103.203,9,normal
1780590376.0642097,16.535866600010195,16699,0.038574,-0.074219,1.047119,2.183206,2.450382,-0.709924,1.050455,3.35779,1095,1847,752,1095,1,103.203,14,normal
1780590376.0956926,16.567349400007515,16730,0.052979,0.005371,1.070312,3.122137,2.564885,-0.137405,1.071636,4.042927,1097,1850,753,1097,0,103.203,9,normal
1780590376.1258347,16.597491400010767,16761,0.009521,0.025879,1.061523,-0.503817,2.900763,-1.236641,1.061882,3.193359,1098,1852,754,1098,0,103.203,10,normal
1780590376.1585782,16.630235000004177,16792,0.041504,-0.067871,1.036865,2.167939,2.564885,-0.671756,1.039913,3.424887,1099,1855,756,1099,1,40.0,14,normal
1780590376.1944804,16.66613720000896,16824,0.064209,-0.017334,1.064697,2.603053,2.061069,-0.29771,1.066772,3.333545,1101,1858,757,1101,0,40.0,10,normal
1780590376.2277758,16.699432499997783,16861,0.050781,-0.031006,1.059326,2.114504,2.51145,-1.206107,1.060996,3.4976,1102,1861,759,1102,1,40.0,14,normal
1780590376.2581148,16.729771500002244,16892,0.041748,-0.030273,1.072998,3.572519,2.259542,-0.290076,1.074236,4.237047,1104,1864,760,1104,0,40.0,10,normal
1780590376.2890787,16.760735400006524,16923,0.043945,0.012451,1.051025,-0.419847,3.419847,-1.10687,1.052017,3.618948,1105,1866,761,1105,0,40.0,10,normal
1780590376.3197098,16.791366500008735,16954,0.053711,-0.047607,1.042725,1.412214,2.709924,-1.549618,1.045192,3.426274,1106,1869,763,1106,1,40.0,14,normal
1780590376.3521266,16.82378350000363,16986,0.036865,-0.032959,1.06543,3.145038,2.389313,-0.19084,1.066577,3.954302,1115,1882,767,1115,0,40.0,0,normal
1780590376.3832934,16.854950100008864,17018,0.02832,0.014893,1.043213,-0.343511,3.122137,-1.21374,1.043703,3.367329,1116,1884,768,1116,0,40.0,10,normal
1780590376.4144585,16.886115200002678,17049,0.051758,-0.058594,1.047363,2.29771,2.328244,-0.862595,1.050277,3.382937,1117,1887,770,1117,1,70.039,13,normal
1780590376.4447937,16.91645060000883,17080,0.057129,-0.009277,1.080811,3.21374,2.664122,-0.427481,1.082359,4.196238,1119,1890,771,1119,0,70.039,10,normal
1780590376.4760735,16.94773040000291,17111,0.003662,0.013916,1.044434,-0.396947,3.320611,-1.137405,1.044533,3.53238,1120,1892,772,1120,0,70.039,9,normal
1780590376.5080554,16.979712300002575,17142,0.051514,-0.050781,1.045654,2.427481,2.48855,-0.618321,1.048153,3.530986,1121,1895,774,1121,1,70.039,14,normal
1780590376.538517,17.010173800008488,17173,0.047607,-0.005371,1.070068,3.259542,1.900763,-0.19084,1.07114,3.778086,1123,1898,775,1123,0,70.039,10,normal
1780590376.5695105,17.041167200004566,17204,0.020996,0.012207,1.050049,-0.656489,3.175573,-1.015267,1.05033,3.397941,1124,1900,776,1124,0,70.039,10,normal
1780590376.600506,17.072162800002843,17235,0.046631,-0.045654,1.030029,2.480916,2.610687,-0.885496,1.032094,3.708738,1125,1903,778,1125,1,70.039,14,normal
1780590376.6318011,17.103457999997772,17266,0.045898,-0.020752,1.07373,3.435115,2.290076,-0.015267,1.074911,4.128522,1130,1909,779,1130,0,70.039,0,normal
1780590376.6634138,17.135070600008476,17298,0.040527,0.023193,1.063477,-1.068702,3.374046,-1.366412,1.064501,3.793862,1131,1911,780,1131,0,70.039,9,normal
1780590376.6944542,17.166111099999398,17329,0.05957,-0.057861,1.033447,2.847328,2.732824,-0.664122,1.036779,4.002083,1132,1914,782,1132,1,53.571,13,normal
1780590376.7476413,17.219298199997866,17360,0.035889,-0.014893,1.078857,3.435115,2.152672,0.282443,1.079557,4.063716,1134,1917,783,1134,0,53.571,10,normal
1780590376.75741,17.229066800005967,17391,0.02002,0.025635,1.054932,-0.977099,3.099237,-1.290076,1.055433,3.496325,1135,1919,784,1135,0,53.571,9,normal
1780590376.789302,17.26095900000655,17423,0.043945,-0.089355,1.041504,2.938931,2.740458,-0.671756,1.046253,4.074148,1136,1922,786,1136,1,53.571,14,normal
1780590376.8204217,17.29207860000315,17454,0.050293,-0.009521,1.056152,3.343511,1.870229,-0.29771,1.057392,3.842585,1138,1925,787,1138,0,53.571,9,normal
1780590376.8501606,17.321817300005932,17485,0.019531,0.014648,1.057129,-0.946565,3.343511,-1.450382,1.057411,3.765456,1139,1927,788,1139,0,53.571,9,normal
1780590376.881446,17.35310279999976,17516,0.035645,-0.063721,1.044434,2.167939,2.412214,-1.099237,1.046982,3.424479,1140,1930,790,1140,1,53.571,14,normal
1780590376.912851,17.384507900002063,17547,0.046387,-0.024658,1.048096,2.946565,2.114504,-0.091603,1.049411,3.627914,1142,1933,791,1142,0,53.571,9,normal
1780590376.944191,17.415847700001905,17578,0.016846,0.026367,1.049072,-0.618321,3.671756,-1.236641,1.049539,3.923442,1143,1935,792,1143,0,53.571,9,normal
1780590376.974585,17.44624190000468,17609,0.025391,-0.061768,1.043701,1.847328,2.587786,-1.076336,1.045836,3.356748,1144,1938,794,1144,1,42.857,14,normal
1780590377.0072482,17.478905000010855,17640,0.039795,-0.01709,1.065186,3.610687,2.358779,-0.267176,1.066066,4.321144,1146,1941,795,1146,0,42.857,10,normal
1780590377.0362384,17.507895200003986,17671,0.031006,0.018311,1.056641,-0.312977,3.580153,-1.282443,1.057254,3.815771,1147,1943,796,1147,0,42.857,9,normal
1780590377.068679,17.54033580000396,17702,0.036865,-0.046631,1.044678,1.740458,2.442748,-1.007634,1.046368,3.164101,1148,1946,798,1148,1,42.857,14,normal
1780590377.0987039,17.57036070000322,17733,0.033691,-0.02002,1.070801,3.335878,2.633588,-0.381679,1.071518,4.267264,1150,1949,799,1150,0,42.857,9,normal
1780590377.1289346,17.60059139999794,17764,0.047607,0.009033,1.072022,-0.603053,3.236641,-0.832061,1.073116,3.395857,1151,1951,800,1151,0,42.857,10,normal
1780590377.160061,17.63171760000114,17795,0.042725,-0.044678,1.040039,1.625954,2.587786,-1.274809,1.041875,3.31142,1152,1954,802,1152,1,42.857,14,normal
1780590377.1923563,17.664013100002194,17826,0.020264,-0.02002,1.064209,3.664122,2.557252,-0.114504,1.06459,4.469724,1154,1957,803,1154,0,42.857,10,normal
1780590377.2242873,17.695944100007182,17858,0.010498,0.019531,1.060547,-0.473282,3.061069,-1.206107,1.060779,3.323978,1155,1959,804,1155,0,42.857,10,normal
1780590377.253531,17.725187800009735,17889,0.054688,-0.059814,1.048096,2.183206,2.603053,-0.961832,1.051224,3.53092,1156,1962,806,1156,1,42.857,14,normal
1780590377.2853503,17.757007200008957,17919,0.02417,-0.025146,1.060059,3.671756,2.603053,-0.198473,1.060632,4.505227,1158,1965,807,1158,0,42.857,10,normal
1780590377.3157325,17.787389200006146,17951,0.012207,0.017334,1.064209,-0.633588,3.29771,-1.396947,1.06442,3.637002,1159,1967,808,1159,0,42.857,9,normal
1780590377.3478267,17.819483600003878,17982,0.054443,-0.058838,1.041992,2.251908,2.59542,-0.854962,1.045071,3.54094,1160,1970,810,1160,1,42.857,14,normal
1780590377.379418,17.851074800011702,18013,0.049316,-0.030518,1.060303,3.366412,2.519084,-0.19084,1.061888,4.208912,1162,1973,811,1162,0,42.857,10,normal
1780590377.4109519,17.88260870000522,18045,0.039062,0.018555,1.068848,-0.572519,3.229008,-1.351145,1.069722,3.54681,1163,1975,812,1163,0,42.857,10,normal
1780590377.4418554,17.913512300001457,18076,0.03833,-0.048828,1.044678,2.122137,2.870229,-0.992366,1.04652,3.704925,1164,1978,814,1164,1,42.857,14,normal
1780590377.4723766,17.944033500010846,18107,0.042969,-0.000244,1.056396,3.274809,2.435115,-0.251908,1.05727,4.088718,1166,1981,815,1166,0,42.857,9,normal
1780590377.5040553,17.975711999999476,18138,0.030273,0.015869,1.067383,-0.541985,3.022901,-1.175572,1.06793,3.288411,1167,1983,816,1167,0,42.857,9,normal
1780590377.5351205,18.006777400005376,18169,0.038818,-0.050537,1.046875,2.022901,2.351145,-0.633588,1.048813,3.165666,1168,1986,818,1168,1,42.857,13,normal
1780590377.5657952,18.037452100004884,18200,0.024658,-0.027344,1.055908,3.251908,2.732824,-0.671756,1.05655,4.300522,1170,1989,819,1170,0,42.857,9,normal
1780590377.5980077,18.069664399998146,18232,0.008301,0.011719,1.061279,-0.625954,3.480916,-1.274809,1.061376,3.759486,1171,1991,820,1171,0,42.857,9,normal
1780590377.6278687,18.099525400000857,18263,0.044922,-0.051758,1.039795,2.312977,2.381679,-1.053435,1.042051,3.4831,1172,1994,822,1172,1,42.857,14,normal
1780590377.660152,18.13180880001164,18294,0.067383,-0.019775,1.058594,2.885496,2.679389,-0.534351,1.06092,3.973757,1174,1997,823,1174,0,42.857,10,normal
1780590377.6900642,18.16172109999752,18325,0.008301,0.020752,1.057373,-0.160305,3.343511,-1.045802,1.057609,3.506917,1175,1999,824,1175,0,42.857,10,normal
1780590377.722193,18.19384990000981,18356,0.043213,-0.050537,1.047852,2.198473,2.473282,-1.114504,1.049959,3.49178,1176,2002,826,1176,1,42.857,13,normal
1780590377.7523823,18.224039100008667,18387,0.032715,-0.009277,1.08252,3.076336,2.473282,-0.603053,1.083054,3.993074,1178,2005,827,1178,0,42.857,9,normal
1780590377.7841809,18.255837600008817,18418,0.021484,0.011475,1.051025,-0.427481,3.320611,-1.007634,1.051308,3.496358,1179,2007,828,1179,0,42.857,9,normal
1780590377.8149352,18.28659200000402,18450,0.04248,-0.075195,1.040772,2.396947,2.59542,-0.816794,1.044349,3.626115,1180,2010,830,1180,1,42.705,14,normal
1780590377.8474386,18.31909530000121,18481,0.035889,0.001709,1.071289,2.603053,2.641221,-0.709924,1.071891,3.775702,1182,2013,831,1182,0,42.705,10,normal
1780590377.8768537,18.348510600000736,18512,0.039307,0.009766,1.058594,-0.854962,3.129771,-1.656489,1.059368,3.642853,1183,2015,832,1183,0,42.705,10,normal
1780590377.910577,18.382233900003484,18543,0.043457,-0.064697,1.035644,2.557252,2.641221,-0.312977,1.038573,3.689653,1184,2018,834,1184,1,42.705,14,normal
1780590377.9405138,18.412170600000536,18575,0.036621,-0.002197,1.058594,2.526718,2.503817,-0.29771,1.059229,3.569598,1186,2021,835,1186,0,42.705,9,normal
1780590377.9724152,18.444072099999175,18606,0.018066,0.027588,1.064209,-0.793893,3.21374,-1.389313,1.06472,3.590067,1187,2023,836,1187,0,42.705,10,normal
1780590378.003441,18.47509780000837,18637,0.052246,-0.082275,1.033936,2.427481,2.412214,-0.885496,1.038519,3.534904,1188,2026,838,1188,1,42.705,14,normal
1780590378.0341258,18.505782500011264,18668,0.048828,-0.013428,1.067383,3.335878,2.0,-0.51145,1.068583,3.922966,1190,2029,839,1190,0,42.705,9,normal
1780590378.0639656,18.535622299998067,18698,0.055908,0.015137,1.057373,-1.137405,3.564885,-1.145038,1.058958,3.91321,1191,2031,840,1191,0,42.705,9,normal
1780590378.0948374,18.566494200000307,18729,0.039795,-0.049316,1.044434,1.564886,2.618321,-1.473282,1.046354,3.387482,1192,2034,842,1192,1,43.011,14,normal
1780590378.1267817,18.598438500004704,18760,0.028809,-0.037354,1.069824,3.969466,2.496183,0.549618,1.070864,4.721194,1194,2037,843,1194,0,43.011,9,normal
1780590378.1568146,18.628471400006674,18791,0.025635,0.026367,1.066894,-0.648855,3.412214,-1.007634,1.067528,3.616565,1195,2039,844,1195,0,43.011,9,normal
1780590378.1886313,18.66028809999989,18823,0.04248,-0.058838,1.056396,1.89313,2.458015,-1.274809,1.058886,3.354239,1196,2042,846,1196,1,43.011,14,normal
1780590378.2200391,18.6916959000082,18854,0.041748,-0.028809,1.05835,3.633588,2.091603,0.083969,1.059564,4.193425,1198,2045,847,1198,0,43.011,9,normal
1780590378.2514129,18.723069700005,18886,0.058105,0.018066,1.074951,-0.832061,3.312977,-1.496183,1.076672,3.72917,1199,2047,848,1199,0,43.011,10,normal
1780590378.2826772,18.75433390001126,18917,0.0354,-0.049072,1.046143,2.030534,2.534351,-1.358779,1.047891,3.520268,1200,2050,850,1200,1,43.011,14,normal
1780590378.3144317,18.786088499997277,18948,0.026855,-0.023193,1.046875,3.526718,2.099237,-0.152672,1.047476,4.107048,1202,2053,851,1202,0,43.011,9,normal
1780590378.3443463,18.816003200001433,18979,0.043457,0.028076,1.056641,-0.458015,3.259542,-1.007634,1.057906,3.442342,1203,2055,852,1203,0,44.0,10,normal
1780590378.3766644,18.84832109999843,19010,0.038574,-0.035889,1.033936,2.038168,2.587786,-1.40458,1.035277,3.581007,1204,2058,854,1204,1,44.0,14,normal
1780590378.4077492,18.87940590000653,19041,0.041016,-0.025635,1.064941,3.366412,2.396947,-0.229008,1.066039,4.138904,1206,2061,855,1206,0,44.0,10,normal
1780590378.4381192,18.90977589999966,19072,0.029297,0.022461,1.050293,-0.656489,3.458015,-1.526718,1.050942,3.836628,1207,2063,856,1207,0,44.0,9,normal
1780590378.4698637,18.94152040001063,19103,0.047363,-0.069092,1.045898,2.328244,2.694656,-0.832061,1.049248,3.657078,1208,2066,858,1208,1,44.0,14,normal
1780590378.5007188,18.972375700002885,19135,0.045654,-0.020996,1.069336,3.244275,2.290076,-0.450382,1.070516,3.996575,1210,2069,859,1210,0,44.0,9,normal
1780590378.532668,19.004324800000177,19166,0.064453,0.007324,1.065186,-0.40458,2.984733,-1.389313,1.067159,3.317002,1211,2071,860,1211,0,44.0,9,normal
1780590378.564058,19.035714800003916,19197,0.040039,-0.077393,1.037354,2.259542,2.89313,-0.572519,1.041007,3.715307,1212,2074,862,1212,1,44.0,13,normal
1780590378.5946555,19.066312399998424,19228,0.033936,-0.01001,1.057617,3.152672,2.503817,-0.435114,1.058209,4.049415,1214,2077,863,1214,0,44.0,9,normal
1780590378.6265104,19.098167300006025,19259,0.017578,0.010742,1.060791,-0.48855,3.053435,-1.610687,1.060991,3.486612,1215,2079,864,1215,0,42.857,9,normal
1780590378.657117,19.128773800010094,19291,0.054443,-0.070801,1.033936,2.801527,2.664122,-0.328244,1.037786,3.879928,1216,2082,866,1216,1,42.857,14,normal
1780590378.6881306,19.159787299999152,19322,0.043701,-0.014404,1.063477,2.755725,2.671756,-0.465649,1.064472,3.86641,1218,2085,867,1218,0,42.857,10,normal
1780590378.7183495,19.190006300006644,19353,0.025635,0.023926,1.062744,-0.206107,3.198473,-1.412214,1.063322,3.502436,1219,2087,868,1219,0,42.857,10,normal
1780590378.7502282,19.221884900005534,19384,0.048828,-0.066406,1.046875,2.389313,2.328244,-0.541985,1.050115,3.379835,1220,2090,870,1220,1,42.857,14,normal
1780590378.7800899,19.251746599999024,19415,0.047607,-0.008789,1.058106,3.175573,2.244275,-0.29771,1.059212,3.899957,1222,2093,871,1222,0,42.857,9,normal
1780590378.8122003,19.283857000002172,19446,0.026855,0.009277,1.069092,-0.603053,2.969466,-1.045802,1.069469,3.20548,1223,2095,872,1223,0,42.857,9,normal
1780590378.8430927,19.314749400000437,19477,0.041504,-0.064941,1.038086,2.305344,2.572519,-0.969466,1.040943,3.587802,1224,2098,874,1224,1,42.857,14,normal
1780590378.8738244,19.345481099997414,19508,0.049316,-0.01416,1.054443,2.946565,2.541985,-0.221374,1.055691,3.897812,1226,2101,875,1226,0,42.857,9,normal
1780590378.9041405,19.375797300002887,19539,0.009277,0.022949,1.054688,-0.48855,3.473282,-1.022901,1.054978,3.653587,1227,2103,876,1227,0,42.857,9,normal
1780590378.9357786,19.407435400004033,19570,0.0271,-0.064453,1.048828,2.343511,2.847328,-0.748092,1.051156,3.76284,1228,2106,878,1228,1,42.857,14,normal
1780590378.9662974,19.437954100008938,19601,0.049316,-0.014404,1.06543,2.70229,2.244275,-0.862595,1.066668,3.617072,1230,2109,879,1230,0,42.857,10,normal
1780590378.997245,19.46890180000628,19632,0.029053,0.009766,1.067139,-0.335878,3.358779,-1.343511,1.067579,3.633074,1231,2111,880,1231,0,42.857,10,normal
1780590379.0299854,19.501642200004426,19663,0.032959,-0.051514,1.035644,2.320611,2.618321,-0.885496,1.037448,3.609008,1232,2114,882,1232,1,42.857,14,normal
1780590379.0601995,19.53185630000371,19695,0.023193,-0.005371,1.056885,2.740458,2.641221,-0.465649,1.057153,3.834448,1234,2117,883,1234,0,42.857,10,normal
1780590379.0913851,19.563041900008102,19726,0.044678,0.010254,1.062744,-0.770992,3.10687,-1.320611,1.063732,3.462814,1235,2119,884,1235,0,42.857,9,normal
1780590379.1219416,19.593598400009796,19757,0.045898,-0.067627,1.047119,2.70229,2.572519,-0.534351,1.050304,3.769052,1236,2122,886,1236,1,42.857,13,normal
1780590379.153789,19.625445800003945,19788,0.046143,-0.013184,1.060547,2.908397,2.694656,-0.351145,1.061632,3.980358,1238,2125,887,1238,0,42.857,9,normal
1780590379.1847413,19.65639810000721,19819,0.047119,0.01123,1.058838,-0.557252,3.40458,-1.320611,1.059945,3.69401,1239,2127,888,1239,0,42.857,9,normal
1780590379.217038,19.688694600001327,19850,0.067627,-0.076904,1.049561,2.419847,2.312977,-0.656489,1.054545,3.411232,1240,2130,890,1240,1,42.857,14,normal
1780590379.246702,19.718358800004353,19881,0.036377,-0.004883,1.070068,2.816794,2.114504,-0.40458,1.070698,3.545298,1242,2133,891,1242,0,42.857,10,normal
1780590379.2777388,19.749395500009996,19912,0.020752,0.016357,1.037598,-1.076336,3.465649,-1.427481,1.037934,3.899606,1243,2135,892,1243,0,42.857,9,normal
1780590379.3097003,19.781356999999844,19943,0.046631,-0.075684,1.034912,2.19084,2.78626,-0.625954,1.038723,3.599284,1244,2138,894,1244,1,42.857,14,normal
1780590379.3405542,19.812211099997512,19974,0.045898,-0.020996,1.061768,3.167939,2.122137,-0.312977,1.062966,3.825867,1246,2141,895,1246,0,42.857,10,normal
1780590379.3724177,19.84407459999784,20006,0.051514,0.01123,1.074219,-1.320611,3.290076,-1.381679,1.075512,3.804951,1247,2143,896,1247,0,42.857,9,normal
1780590379.403934,19.875590900002862,20037,0.035645,-0.083984,1.037598,2.580153,2.954198,-0.770992,1.041601,3.997362,1248,2146,898,1248,1,42.857,13,normal
1780590379.4354072,19.90706399999908,20068,0.026367,-0.021729,1.058106,3.21374,2.419847,-0.29771,1.058657,4.033909,1250,2149,899,1250,0,42.857,9,normal
1780590379.465267,19.936923800007207,20099,0.050293,0.027832,1.069092,-0.923664,3.48855,-1.748092,1.070636,4.009858,1251,2151,900,1251,0,42.857,9,normal
1780590379.495662,19.96731870000076,20130,0.071289,-0.086426,1.037842,2.480916,2.641221,-1.007634,1.043871,3.76116,1252,2154,902,1252,1,42.857,14,normal
1780590379.527343,19.99899990000995,20161,0.015137,-0.016602,1.05957,3.282443,2.244275,-0.099237,1.059808,3.977568,1254,2157,903,1254,0,42.857,10,normal
1780590379.5580392,20.029695900011575,20192,0.032471,0.012451,1.062988,-0.801527,3.229008,-1.51145,1.063557,3.654233,1255,2159,904,1255,0,42.857,9,normal
1780590379.590059,20.061715900010313,20223,0.046387,-0.055908,1.044434,2.045802,2.572519,-1.442748,1.046957,3.589524,1256,2162,906,1256,1,42.857,14,normal
1780590379.6202419,20.091898700004094,20254,0.040527,-0.0271,1.046875,3.198473,2.648855,-0.122137,1.04801,4.154706,1258,2165,907,1258,0,42.857,10,normal
1780590379.6505673,20.12222410000686,20285,0.030273,0.025879,1.061035,-0.717557,3.679389,-1.137405,1.061782,3.917458,1259,2167,908,1259,0,42.857,10,normal
1780590379.6819751,20.15363200000138,20316,0.050049,-0.056641,1.046143,1.89313,2.709924,-1.419847,1.04887,3.597721,1260,2170,910,1260,1,42.857,14,normal
1780590379.7127867,20.184443500009365,20347,0.052002,-0.033203,1.05835,3.206107,2.061069,-0.091603,1.060146,3.812548,1262,2173,911,1262,0,42.857,9,normal
1780590379.743882,20.21553880001011,20378,0.018799,0.020508,1.052002,-0.954198,3.70229,-1.381679,1.05237,4.065278,1263,2175,912,1263,0,43.011,9,normal
1780590379.7736237,20.24528060000739,20408,0.057617,-0.043945,1.048828,1.625954,2.839695,-1.21374,1.051328,3.490094,1264,2178,914,1264,1,43.011,13,normal
1780590379.8046625,20.27631929999916,20439,0.034424,-0.025391,1.058838,3.419847,2.732824,0.061069,1.059701,4.37806,1266,2181,915,1266,0,43.011,10,normal
1780590379.8356752,20.30733200001123,20470,0.055908,0.024414,1.055908,-0.412214,3.748092,-0.938931,1.057669,3.885834,1267,2183,916,1267,0,43.011,9,normal
1780590379.8677318,20.33938869999838,20501,0.053467,-0.043457,1.05127,1.740458,2.694656,-1.78626,1.053525,3.67166,1268,2186,918,1268,1,43.011,14,normal
1780590379.8985448,20.370201600002474,20533,0.064209,-0.036133,1.074951,3.473282,2.259542,0.015267,1.077473,4.143604,1280,2200,920,1280,0,43.011,0,normal
1780590379.9318762,20.403533100005006,20564,0.047607,0.016602,1.062988,-0.480916,3.290076,-1.129771,1.064183,3.511732,1281,2202,921,1281,0,43.011,9,normal
1780590379.9607413,20.43239820000599,20595,0.021484,-0.03833,1.032959,2.0,2.694656,-1.160305,1.033893,3.550702,1282,2205,923,1282,1,43.011,14,normal
1780590379.9932995,20.46495639999921,20626,0.034668,-0.033691,1.070557,3.480916,2.427481,0.030534,1.071648,4.243863,1291,2215,924,1291,0,43.011,1,normal
1780590380.0235648,20.495221600009245,20657,0.021484,0.02124,1.059326,-0.847328,3.221374,-0.992366,1.059757,3.47563,1292,2217,925,1292,0,103.943,9,normal
1780590380.0557241,20.527380900006392,20689,0.036377,-0.066406,1.023682,2.137405,2.870229,-0.969466,1.026478,3.707638,1293,2220,927,1293,1,103.943,14,normal
1780590380.0857563,20.55741300000227,20720,0.04834,-0.01416,1.064453,3.083969,2.526718,-0.167939,1.065644,3.99041,1295,2223,928,1295,0,103.943,10,normal
1780590380.1172738,20.588930700003402,20751,0.020264,0.024414,1.060547,-0.725191,3.465649,-1.076336,1.061021,3.700692,1296,2225,929,1296,0,103.943,9,normal
1780590380.1480527,20.619709400009015,20782,0.030273,-0.073975,1.03833,2.0,2.80916,-0.877863,1.041402,3.558374,1297,2228,931,1297,1,103.943,14,normal
1780590380.1816359,20.653292700008024,20814,0.048584,-0.025391,1.067871,2.900763,2.603053,-0.564886,1.069277,3.938199,1307,2239,932,1307,0,103.943,0,normal
1780590380.211197,20.682853700011037,20845,0.040283,0.018799,1.073975,-0.381679,3.015267,-1.473282,1.074894,3.377584,1308,2241,933,1308,0,103.943,9,normal
1780590380.2416089,20.71326560000307,20876,0.056396,-0.08252,1.046143,2.244275,2.656489,-0.465649,1.050906,3.508636,1309,2244,935,1309,1,103.943,13,normal
1780590380.273228,20.74488470000506,20907,0.013916,-0.007813,1.047852,2.923664,2.648855,-0.694656,1.047973,4.005844,1311,2247,936,1311,0,76.0,9,normal
1780590380.3035457,20.775202600008924,20937,0.050537,0.020996,1.050293,-0.534351,3.274809,-1.053435,1.051718,3.481326,1312,2249,937,1312,0,76.0,9,normal
1780590380.3337283,20.80538499999966,20968,0.022949,-0.033203,1.053955,2.320611,2.687023,-1.10687,1.054728,3.718936,1313,2252,939,1313,1,76.0,15,normal
1780590380.3644776,20.836134400000446,20999,0.042236,-0.02002,1.051025,3.290076,2.549618,-0.480916,1.052064,4.19004,1315,2255,940,1315,0,76.0,10,normal
1780590380.3946664,20.86632320001081,21030,0.048828,0.014404,1.056152,-0.916031,3.40458,-1.068702,1.057378,3.684074,1316,2257,941,1316,0,76.0,9,normal
1780590380.4258401,20.89749699999811,21060,0.042236,-0.059814,1.051025,1.610687,2.984733,-1.778626,1.053573,3.829681,1317,2260,943,1317,1,76.0,14,normal
1780590380.4581206,20.92977729999984,21092,0.061035,-0.033203,1.078125,3.954198,2.557252,-0.122137,1.080362,4.710641,1327,2271,944,1327,0,76.0,0,normal
1780590380.4886453,20.96030210000754,21123,0.063477,0.013428,1.043213,-0.816794,3.496183,-1.061069,1.045228,3.743837,1328,2273,945,1328,0,76.0,9,normal
1780590380.5197694,20.991426300010062,21154,0.036377,-0.05957,1.042236,1.80916,2.839695,-1.427481,1.044571,3.657134,1329,2276,947,1329,1,76.0,13,normal
1780590380.5520446,21.023701500002062,21186,0.04248,-0.016357,1.071045,3.458015,2.572519,0.152672,1.072012,4.312659,1338,2286,948,1338,0,96.774,1,normal
1780590380.584146,21.055802800008678,21218,0.049805,0.013916,1.061279,-1.068702,3.40458,-1.496183,1.062538,3.869348,1339,2288,949,1339,0,96.774,9,normal
1780590380.614671,21.086327800003346,21249,0.039551,-0.073975,1.037354,2.290076,2.839695,-0.969466,1.04074,3.774676,1340,2291,951,1340,1,96.774,15,normal
1780590380.646431,21.118087800001376,21280,0.024902,-0.012207,1.060059,3.152672,2.320611,-0.160305,1.060421,3.917942,1342,2294,952,1342,0,96.774,9,normal
1780590380.6759086,21.147565300008864,21311,0.054199,0.021729,1.065186,-1.068702,3.70229,-1.320611,1.066785,4.073462,1343,2296,953,1343,0,96.774,9,normal
1780590380.7087326,21.1803893000033,21342,0.035645,-0.054443,1.0271,1.847328,2.480916,-0.854962,1.029159,3.209132,1344,2299,955,1344,1,96.774,14,normal
1780590380.7390356,21.210692500011646,21373,0.016602,-0.018311,1.064209,3.312977,2.129771,-0.122137,1.064496,3.940388,1346,2302,956,1346,0,96.774,9,normal
1780590380.7694707,21.24112760000571,21404,0.025391,0.028809,1.0625,-0.503817,3.389313,-1.320611,1.063194,3.672232,1347,2304,957,1347,0,96.774,10,normal
1780590380.8269422,21.298598900000798,21435,0.055176,-0.066162,1.040039,1.984733,2.641221,-1.167939,1.043601,3.504182,1348,2307,959,1348,1,96.774,14,normal
1780590380.832003,21.303659800003516,21466,0.04541,-0.024414,1.05542,2.740458,2.40458,-0.19084,1.056678,3.650827,1350,2310,960,1350,0,42.857,9,normal
1780590380.863585,21.335241699998733,21497,0.01416,0.030273,1.06665,-0.870229,3.412214,-1.19084,1.067174,3.717338,1351,2312,961,1351,0,42.857,9,normal
1780590380.8946457,21.36630259999947,21528,0.038818,-0.07251,1.040527,1.938931,2.839695,-1.137405,1.043773,3.621741,1352,2315,963,1352,1,42.857,14,normal
1780590380.9262118,21.397868700005347,21559,0.048096,-0.03833,1.061768,3.244275,2.251908,-0.076336,1.063547,3.949967,1354,2318,964,1354,0,42.857,10,normal
1780590380.9563606,21.428017300000647,21590,0.027588,0.02417,1.055176,-0.40458,3.282443,-0.977099,1.055813,3.4486,1355,2320,965,1355,0,42.857,9,normal
1780590380.9882252,21.45988200001011,21621,0.017334,-0.04541,1.043213,1.824428,2.748092,-1.099237,1.044345,3.476905,1356,2323,967,1356,1,42.857,14,normal
1780590381.0174353,21.4890921000042,21652,0.060791,-0.032471,1.0625,3.427481,2.351145,-0.160305,1.064733,4.159472,1358,2326,968,1358,0,42.857,9,normal
1780590381.0496395,21.521296300008544,21683,0.041992,0.02002,1.053955,-0.427481,3.534351,-0.862595,1.054981,3.66312,1359,2328,969,1359,0,42.857,9,normal
1780590381.0796902,21.55134689999977,21714,0.035156,-0.031738,1.041504,1.969466,2.732824,-1.145038,1.04258,3.557842,1360,2331,971,1360,1,42.857,13,normal
1780590381.1117156,21.583372400011285,21745,0.043213,-0.022705,1.063721,3.045802,2.625954,-0.061069,1.06484,4.021974,1362,2334,972,1362,0,43.011,9,normal
1780590381.1418297,21.61348660000658,21776,0.049561,0.020508,1.053955,-0.503817,3.503817,-0.732824,1.055319,3.614913,1363,2336,973,1363,0,43.011,9,normal
1780590381.17283,21.644486900011543,21807,0.028564,-0.043213,1.033447,1.679389,2.503817,-1.206107,1.034745,3.247174,1364,2339,975,1364,1,43.011,14,normal
1780590381.2046094,21.676266300011775,21838,0.025391,-0.023682,1.060547,3.458015,2.435115,-0.427481,1.061115,4.250928,1366,2342,976,1366,0,43.011,10,normal
1780590381.2355683,21.707225200007088,21869,0.065186,0.014404,1.051025,-0.458015,3.320611,-0.961832,1.053143,3.487314,1367,2344,977,1367,0,43.011,9,normal
1780590381.2671316,21.738788400005433,21900,0.050537,-0.051025,1.032959,1.557252,2.931298,-1.091603,1.035452,3.494158,1368,2347,979,1368,1,43.011,14,normal
1780590381.2979095,21.769566300004954,21932,0.038574,-0.018311,1.069336,3.534351,2.694656,0.160305,1.070188,4.447304,1377,2357,980,1377,0,43.011,0,normal
1780590381.3300345,21.801691200002097,21963,0.032715,0.020264,1.068359,-0.40458,3.59542,-1.099237,1.069052,3.781408,1378,2359,981,1378,0,43.011,9,normal
1780590381.3597825,21.831439300003694,21994,0.054443,-0.050781,1.030762,1.977099,2.59542,-1.10687,1.033447,3.445328,1379,2362,983,1379,1,43.011,13,normal
1780590381.3914657,21.863122499999008,22025,0.020996,-0.024658,1.065918,3.244275,2.541985,-0.290076,1.06641,4.131725,1388,2372,984,1388,0,92.857,1,normal
1780590381.4230223,21.894679000004544,22057,0.046387,0.027832,1.071533,-0.648855,3.183206,-1.038168,1.072898,3.410514,1389,2374,985,1389,0,92.857,9,normal
1780590381.454309,21.92596570000751,22088,0.057617,-0.078369,1.035889,2.290076,2.709924,-0.755725,1.040445,3.627569,1390,2377,987,1390,1,92.857,14,normal
1780590381.4852064,21.956863200000953,22119,0.032959,-0.020752,1.06665,2.946565,2.603053,-0.21374,1.067361,3.937488,1392,2380,988,1392,0,92.857,9,normal
1780590381.5168426,21.988499400002183,22150,0.033936,0.016357,1.063721,-0.70229,3.328244,-1.40458,1.064388,3.680118,1393,2382,989,1393,0,92.857,10,normal
1780590381.5477057,22.019362500010175,22182,0.042725,-0.072266,1.029785,2.778626,2.763359,-0.351145,1.033201,3.934491,1394,2385,991,1394,1,92.857,14,normal
1780590381.578851,22.05050769999798,22213,0.054443,-0.027344,1.061035,3.0,2.816794,-0.114504,1.062783,4.116727,1396,2388,992,1396,0,92.857,9,normal
1780590381.6086428,22.08029969999916,22243,0.030273,0.014404,1.064453,-0.694656,3.51145,-0.740458,1.064981,3.655285,1397,2390,993,1397,0,92.857,9,normal
1780590381.6412487,22.11290540000482,22274,0.056885,-0.049316,1.051025,2.167939,2.419847,-1.21374,1.053718,3.468254,1398,2393,995,1398,1,92.857,14,normal
1780590381.670615,22.142271700009587,22305,0.052734,-0.016602,1.057861,3.167939,2.374046,-0.244275,1.059305,3.966308,1400,2396,996,1400,0,42.857,10,normal
1780590381.7030146,22.174671300002956,22336,0.013916,0.01123,1.055176,-1.030534,3.51145,-1.137405,1.055327,3.832228,1401,2398,997,1401,0,42.857,9,normal
1780590381.7346911,22.206348000006983,22368,0.024414,-0.070801,1.028564,2.801527,2.832061,-0.244275,1.031287,3.991089,1402,2401,999,1402,1,42.857,14,normal
1780590381.7671351,22.23879200000374,22400,0.029541,-0.008545,1.058838,2.633588,2.129771,-0.625954,1.059284,3.444347,1404,2404,1000,1404,0,42.857,9,normal
1780590381.7964008,22.26805759999843,22431,0.03833,0.011475,1.0625,-0.587786,3.450382,-1.473282,1.063253,3.797524,1405,2406,1001,1405,0,42.857,10,normal
1780590381.8331175,22.304774400006863,22467,0.036865,-0.05957,1.056152,3.969466,2.70229,0.312977,1.058473,4.81217,1414,2417,1003,1414,0,42.857,0,normal
1780590381.8647814,22.336438199999975,22498,0.060059,0.022217,1.05957,-0.78626,3.335878,-0.694656,1.061504,3.496975,1415,2419,1004,1415,0,42.857,9,normal
1780590381.8964396,22.368096400008653,22530,0.058105,-0.05835,1.04541,2.061069,2.70229,-1.21374,1.048648,3.608814,1416,2422,1006,1416,1,42.857,13,normal
1780590381.9271321,22.39878889999818,22561,0.035889,-0.028076,1.065186,3.572519,2.587786,0.137405,1.06616,4.413436,1418,2425,1007,1418,0,70.313,9,normal
1780590381.9590306,22.43068750000384,22592,0.025879,0.020996,1.074707,-0.564886,3.755725,-0.908397,1.075224,3.905093,1419,2427,1008,1419,0,70.313,9,normal
1780590381.9890506,22.46070750000945,22623,0.036865,-0.050537,1.040039,1.656489,2.564885,-1.335878,1.041918,3.332741,1420,2430,1010,1420,1,70.313,14,normal
1780590382.019744,22.491400800005067,22654,0.060547,-0.037598,1.053223,3.641221,2.160305,-0.175573,1.055631,4.23748,1422,2433,1011,1422,0,70.313,9,normal
1780590382.052232,22.52388890000293,22685,0.015625,0.032227,1.056885,-0.549618,3.564885,-0.961832,1.057491,3.733043,1423,2435,1012,1423,0,70.313,9,normal
1780590382.0804622,22.55211910000071,22716,0.023438,-0.043457,1.044434,1.526718,2.70229,-1.328244,1.0456,3.376014,1424,2438,1014,1424,1,70.313,13,normal
1780590382.1140468,22.585703700009617,22747,0.034668,-0.032959,1.063477,3.755725,2.40458,0.564886,1.064552,4.495172,1433,2448,1015,1433,0,70.313,0,normal
1780590382.1441884,22.615845300009823,22778,0.045898,0.021973,1.044922,-0.160305,3.587786,-0.916031,1.04616,3.706349,1434,2450,1016,1434,0,70.313,9,normal
1780590382.1763656,22.64802240001154,22809,0.032715,-0.044189,1.040283,1.610687,2.732824,-1.137405,1.041735,3.369916,1435,2453,1018,1435,1,70.313,14,normal
1780590382.2082658,22.67992249999952,22841,0.065674,-0.033691,1.068115,3.091603,2.847328,-0.10687,1.070662,4.204368,1437,2456,1019,1437,0,67.857,9,normal
1780590382.2383697,22.71002660000522,22872,0.04541,0.005371,1.051758,-0.572519,3.343511,-1.152672,1.052751,3.582666,1438,2458,1020,1438,0,67.857,9,normal
1780590382.2701993,22.74185620000935,22903,0.043701,-0.06665,1.037598,2.442748,2.839695,-0.442748,1.040654,3.771858,1439,2461,1022,1439,1,67.857,14,normal
1780590382.3014376,22.773094400006812,22935,0.033447,-0.003174,1.048828,3.007634,2.816794,0.137405,1.049366,4.122992,1441,2464,1023,1441,0,67.857,9,normal
1780590382.3311472,22.80280390000553,22966,0.067139,0.003662,1.06665,-0.236641,3.183206,-1.21374,1.068768,3.414962,1442,2466,1024,1442,0,67.857,9,normal
1780590382.3629656,22.834622399997897,22996,0.019043,-0.071533,1.026367,2.099237,2.839695,-1.137405,1.029033,3.710034,1443,2469,1026,1443,1,67.857,13,normal
1780590382.3928099,22.864466700004414,23027,0.035889,-0.023193,1.066894,2.862595,2.21374,-0.366412,1.06775,3.637218,1445,2472,1027,1445,0,67.857,9,normal
1780590382.4250076,22.896664300002158,23058,0.045166,0.019043,1.072266,-0.664122,3.48855,-1.19084,1.073385,3.745549,1446,2474,1028,1446,0,67.857,9,normal
1780590382.4552472,22.926904000007198,23089,0.025391,-0.047119,1.041016,2.267176,2.946565,-0.549618,1.042391,3.758246,1447,2477,1030,1447,1,67.857,14,normal
1780590382.4860349,22.95769170000858,23120,0.061035,-0.021484,1.064697,3.21374,2.557252,-0.053435,1.066662,4.107374,1449,2480,1031,1449,0,43.011,9,normal
1780590382.5173414,22.988998200002243,23151,0.032471,0.019531,1.076416,-0.694656,3.007634,-1.519084,1.077083,3.440352,1450,2482,1032,1450,0,43.011,10,normal
1780590382.5477095,23.019366300010006,23182,0.049072,-0.062256,1.04248,1.839695,2.648855,-0.984733,1.04549,3.372033,1451,2485,1034,1451,1,43.011,14,normal
1780590382.5789678,23.050624600000447,23212,0.045654,-0.033447,1.071045,3.435115,2.557252,0.022901,1.072539,4.282531,1453,2488,1035,1453,0,43.011,10,normal
1780590382.608017,23.079673700005515,23243,0.072021,0.024902,1.05957,-0.312977,3.633588,-0.564886,1.062307,3.69053,1454,2490,1036,1454,0,43.011,10,normal
1780590382.639194,23.11085080000339,23273,0.05127,-0.039795,1.044678,1.564886,2.778626,-1.503817,1.046692,3.525776,1455,2493,1038,1455,1,43.011,14,normal
1780590382.671419,23.143075600004522,23305,0.057129,-0.049561,1.06958,3.21374,2.320611,-0.053435,1.072251,3.964368,1464,2506,1042,1464,0,43.011,0,normal
1780590382.7033713,23.17502819999936,23337,0.030518,0.026611,1.050781,-0.122137,3.541985,-0.862595,1.051561,3.647553,1465,2508,1043,1465,0,43.011,9,normal
1780590382.7337644,23.20542130000831,23368,0.030762,-0.043701,1.037354,2.160305,2.290076,-0.89313,1.038729,3.272468,1466,2511,1045,1466,1,43.011,14,normal
1780590382.765846,23.237502700008918,23399,0.04834,-0.022949,1.070801,2.862595,2.648855,-0.374046,1.072137,3.918009,1468,2514,1046,1468,0,68.1,10,normal
1780590382.8042736,23.275930400006473,23430,0.012695,0.021973,1.052978,-0.244275,3.954198,-0.977099,1.053284,4.08045,1469,2516,1047,1469,0,68.1,10,normal
1780590382.8265622,23.298219000003883,23461,0.049072,-0.050781,1.034912,2.40458,2.938931,-0.572519,1.037319,3.840195,1470,2519,1049,1470,1,68.1,14,normal
1780590382.8574207,23.329077600006713,23491,0.05957,-0.023926,1.080322,3.282443,2.206107,-0.419847,1.082228,3.977136,1473,2523,1050,1473,0,68.1,0,normal
1780590382.8879368,23.35959370000637,23522,0.0354,0.016357,1.050781,-0.351145,3.59542,-0.679389,1.051505,3.675856,1474,2525,1051,1474,0,68.1,9,normal
1780590382.9190145,23.390671200002544,23553,0.042725,-0.04541,1.053467,2.114504,2.59542,-1.061069,1.05531,3.511865,1475,2528,1053,1475,1,68.1,14,normal
1780590382.9512677,23.422924400001648,23585,0.038574,-0.028076,1.076904,3.679389,2.366412,-0.221374,1.077961,4.380276,1480,2534,1054,1480,0,68.1,0,normal
1780590382.9833646,23.455021300003864,23616,0.052734,0.02002,1.055176,-0.870229,3.480916,-1.229008,1.056682,3.792695,1481,2536,1055,1481,0,68.1,9,normal
1780590383.01364,23.485296700004255,23647,0.042969,-0.056396,1.017822,2.320611,2.557252,-0.984733,1.020289,3.590887,1482,2539,1057,1482,1,68.1,14,normal
1780590383.0447266,23.516383300011512,23678,0.0271,-0.022461,1.064453,3.312977,2.21374,-0.10687,1.065035,3.985961,1484,2542,1058,1484,0,57.348,10,normal
1780590383.0741398,23.545796700011124,23709,0.005371,0.021973,1.054932,-1.167939,3.099237,-1.29771,1.055174,3.557162,1485,2544,1059,1485,0,57.348,9,normal
1780590383.1054862,23.57714290000149,23739,0.020996,-0.047363,1.051758,1.427481,2.732824,-1.541985,1.053033,3.447281,1486,2547,1061,1486,1,57.348,14,normal
1780590383.1367834,23.60844010001165,23771,0.032227,-0.031006,1.070801,3.992366,2.496183,0.374046,1.071734,4.723328,1495,2557,1062,1495,0,57.348,0,normal
1780590383.1684844,23.640141199997743,23802,0.032959,0.026367,1.062744,-0.679389,3.549618,-0.984733,1.063582,3.745806,1497,2561,1064,1497,0,57.348,0,normal
1780590383.198726,23.670382700001937,23833,0.053467,-0.043457,1.053955,1.778626,2.458015,-1.091603,1.056205,3.22443,1498,2564,1066,1498,1,57.348,14,normal
1780590383.2303605,23.702017400006298,23864,0.032959,-0.033691,1.06543,3.725191,2.290076,0.282443,1.066472,4.381926,1500,2567,1067,1500,0,57.348,9,normal
1780590383.2613833,23.7330401000072,23895,0.020752,0.015869,1.047363,-0.847328,3.465649,-1.145038,1.047689,3.746972,1501,2569,1068,1501,0,57.348,9,normal
1780590383.2935538,23.76521060000232,23927,0.050537,-0.061768,1.047119,2.145038,2.946565,-1.229008,1.050156,3.846283,1502,2572,1070,1502,1,57.348,14,normal
1780590383.324129,23.795785900001647,23958,0.025879,-0.026855,1.054199,3.328244,2.21374,-0.061069,1.054859,3.997698,1504,2575,1071,1504,0,71.429,9,normal
1780590383.3568609,23.82851770000707,23990,0.015625,0.020508,1.060059,-0.847328,3.740458,-1.534351,1.060372,4.130766,1505,2577,1072,1505,0,71.429,10,normal
1780590383.3878584,23.8595151000045,24021,0.050537,-0.067627,1.035156,2.557252,2.793893,-0.618321,1.038593,3.837668,1506,2580,1074,1506,1,71.429,14,normal
1780590383.4174442,23.88910100000794,24052,0.053955,0.0,1.051025,3.083969,2.389313,0.083969,1.052409,3.902145,1508,2583,1075,1508,0,71.429,9,normal
1780590383.448776,23.920432700004312,24082,0.016846,0.022705,1.070312,-0.656489,3.557252,-1.290076,1.070686,3.840484,1509,2585,1076,1509,0,71.429,9,normal
1780590383.4793696,23.95102649999899,24113,0.037354,-0.05249,1.047852,1.946565,2.557252,-1.022901,1.04983,3.372681,1510,2588,1078,1510,1,71.429,14,normal
1780590383.5110042,23.982660900001065,24144,0.057129,-0.029785,1.061035,3.122137,2.351145,0.137405,1.062989,3.910819,1512,2591,1079,1512,0,71.429,9,normal
1780590383.5410724,24.012729200010654,24175,0.061523,0.005615,1.054688,-0.59542,3.381679,-0.900763,1.056495,3.549881,1513,2593,1080,1513,0,71.429,9,normal
1780590383.5734415,24.04509830000461,24206,0.025879,-0.072021,1.013672,1.877863,2.80916,-0.770992,1.016557,3.465859,1514,2596,1082,1514,1,71.429,14,normal
1780590383.603358,24.075014900008682,24237,0.033447,-0.02124,1.062256,2.923664,2.396947,-0.244275,1.062994,3.788514,1516,2599,1083,1516,0,43.011,10,normal
1780590383.6344955,24.10615220000909,24268,0.050293,0.014648,1.067871,-0.519084,3.381679,-1.236641,1.069155,3.637923,1517,2601,1084,1517,0,43.011,10,normal
1780590383.665287,24.136943899997277,24299,0.043213,-0.054199,1.025146,2.458015,3.091603,-0.870229,1.027487,4.044397,1518,2604,1086,1518,1,43.011,14,normal
1780590383.6968956,24.168552400005865,24331,0.066162,0.001953,1.073242,3.022901,2.862595,0.038168,1.075281,4.163392,1520,2607,1087,1520,0,43.011,9,normal
1780590383.727299,24.198955700005172,24362,0.035156,0.020264,1.067383,-0.633588,3.40458,-1.152672,1.068154,3.649829,1521,2609,1088,1521,0,43.011,9,normal
1780590383.7596316,24.23128849999921,24393,0.063232,-0.056885,1.048828,2.465649,2.694656,-0.656489,1.052271,3.711007,1522,2612,1090,1522,1,43.011,13,normal
1780590383.7891958,24.260852600011276,24424,0.051025,-0.005615,1.052246,3.160305,2.687023,-0.152672,1.053497,4.151016,1524,2615,1091,1524,0,43.011,10,normal
1780590383.8216207,24.293277400007355,24455,0.010498,0.00293,1.050049,-0.763359,3.503817,-1.366412,1.050105,3.837516,1525,2617,1092,1525,0,43.011,9,normal
1780590383.8531308,24.324787500008824,24486,0.051025,-0.080322,1.040039,2.587786,2.496183,-0.48855,1.044383,3.628533,1526,2620,1094,1526,1,43.011,14,normal
1780590383.886409,24.358065799999167,24518,0.046875,-0.016357,1.044434,2.679389,2.267176,-0.442748,1.045613,3.537688,1528,2623,1095,1528,0,42.705,9,normal
1780590383.9152994,24.386956100002863,24549,0.055664,-0.000488,1.068848,-0.320611,3.183206,-1.40458,1.070296,3.494058,1529,2625,1096,1529,0,42.705,9,normal
1780590383.9477265,24.419383300002664,24580,0.071533,-0.061768,1.038574,2.870229,2.793893,-0.21374,1.042866,4.011202,1530,2628,1098,1530,1,42.705,13,normal
1780590383.978611,24.45026769999822,24612,0.075195,0.005615,1.046875,2.068702,2.824427,-0.503817,1.049587,3.537054,1532,2631,1099,1532,0,42.705,9,normal
1780590384.009189,24.480845600002795,24643,0.038818,-0.007813,1.070801,0.305344,3.305344,-1.709924,1.071533,3.733948,1533,2633,1100,1533,0,42.705,9,normal
1780590384.039679,24.511335900009726,24674,0.037354,-0.058594,1.042236,3.10687,2.961832,-0.183206,1.04455,4.296354,1534,2636,1102,1534,1,42.705,13,normal
1780590384.0714986,24.54315550001047,24705,0.057129,0.015381,1.059326,1.70229,2.633588,-0.251908,1.060977,3.145955,1536,2639,1103,1536,0,42.705,9,normal
1780590384.1017256,24.573382300004596,24736,0.071289,-0.002197,1.049561,0.099237,3.351145,-1.541985,1.051981,3.690222,1537,2641,1104,1537,0,42.705,9,normal
1780590384.1328316,24.604488299999502,24767,0.035889,-0.062012,1.033447,3.091603,3.007634,0.282443,1.035928,4.322458,1538,2644,1106,1538,1,42.705,14,normal
1780590384.1640778,24.63573449999967,24798,0.027832,0.021973,1.054199,2.129771,2.671756,-0.770992,1.054795,3.502661,1540,2647,1107,1540,0,42.857,9,normal
1780590384.1947658,24.66642249999859,24829,0.060547,-0.004639,1.055908,-0.045802,3.29771,-1.770992,1.057653,3.743448,1541,2649,1108,1541,0,42.857,10,normal
1780590384.2250304,24.696687200004817,24859,0.044434,-0.065918,1.035889,3.19084,3.061069,0.076336,1.038934,4.422378,1542,2652,1110,1542,1,42.857,14,normal
