host_epoch_s,host_elapsed_s,time_ms,ax,ay,az,gx,gy,gz,acc_mag,gyro_mag,pulse_count,edge_count,rise_count,fall_count,state,pulse_rate_hz,last_edge_dt_ms,label
1780591938.6309323,0.02910340001108125,189,0.034424,-0.0354,1.050781,2.312977,3.633588,-0.78626,1.051941,4.378473,18,29,11,18,0,0.0,0,damping
1780591938.6631536,0.06132480000087526,220,0.0354,-0.012695,1.057129,1.885496,2.732824,-1.160305,1.057798,3.517063,19,31,12,19,0,0.0,9,damping
1780591938.6935005,0.0916717000072822,251,0.050781,-0.023438,1.040283,1.419847,2.656489,-1.167939,1.041786,3.230632,20,34,14,20,1,79.681,13,damping
1780591938.7240765,0.12224760001117829,282,0.050537,-0.010254,1.05957,1.572519,2.618321,-0.938931,1.060824,3.195311,22,37,15,22,0,79.681,9,damping
1780591938.755191,0.15336219999880996,313,0.02417,-0.025879,1.049561,1.740458,2.748092,-1.007634,1.050158,3.405368,23,39,16,23,0,79.681,9,damping
1780591938.7862523,0.18442340000183322,344,0.031982,-0.02832,1.050293,1.580153,2.572519,-1.152672,1.051161,3.231623,24,42,18,24,1,79.681,14,damping
1780591938.8175378,0.2157090000109747,375,0.040771,-0.012939,1.052246,1.755725,2.931298,-1.015267,1.053115,3.564526,28,47,19,28,0,79.681,1,damping
1780591938.8482752,0.24644630000693724,407,0.051758,-0.03125,1.059326,1.236641,2.885496,-1.114504,1.06105,3.331289,29,49,20,29,0,79.681,9,damping
1780591938.8782911,0.27646230001118965,437,0.040283,-0.022461,1.050293,1.29771,2.78626,-1.229008,1.051305,3.31025,30,52,22,30,1,79.681,14,damping
1780591938.9104254,0.3085966000071494,468,0.018799,-0.023438,1.038086,1.496183,2.763359,-1.030534,1.038521,3.307071,32,55,23,32,0,79.681,9,damping
1780591938.9411101,0.33928140001080465,499,0.047852,-0.016602,1.051514,1.862595,2.603053,-1.381679,1.052733,3.486286,33,57,24,33,0,79.681,9,damping
1780591938.9712906,0.36946180000086315,530,0.027832,-0.026123,1.046387,2.10687,2.48855,-1.0,1.047083,3.41054,34,60,26,34,1,50.179,15,damping
1780591939.002451,0.4006221000017831,560,0.038574,-0.036621,1.06543,1.580153,2.648855,-1.244275,1.066756,3.325889,36,63,27,36,0,50.179,10,damping
1780591939.0339253,0.4320964000071399,592,0.036621,-0.036133,1.064697,0.977099,2.557252,-1.305344,1.065939,3.03285,37,65,28,37,0,50.179,9,damping
1780591939.0640287,0.46220000000903383,623,0.058838,-0.022461,1.065674,1.824428,2.687023,-1.435114,1.067533,3.5508,38,68,30,38,1,50.179,14,damping
1780591939.0957727,0.4939440000016475,654,0.03833,-0.031006,1.04834,2.175573,2.717557,-0.977099,1.049498,3.615654,41,75,34,41,0,50.179,1,damping
1780591939.1266744,0.5248456000117585,685,0.028809,-0.012695,1.056641,1.618321,2.732824,-1.358779,1.05711,3.4545,42,77,35,42,0,50.179,9,damping
1780591939.1578622,0.5560334000037983,716,0.044678,-0.018311,1.057129,1.48855,2.732824,-0.877863,1.058231,3.233381,43,80,37,43,1,50.179,13,damping
1780591939.1899166,0.588087700001779,748,0.022461,-0.029541,1.047852,2.152672,2.519084,-1.465649,1.048508,3.623245,52,90,38,52,0,50.179,0,damping
1780591939.2213655,0.6195366000029026,779,0.040039,-0.02002,1.046387,1.793893,2.954198,-0.992366,1.047344,3.595849,53,92,39,53,0,50.179,9,damping
1780591939.2514772,0.6496484000090277,810,0.027832,-0.026367,1.057373,1.778626,2.519084,-1.137405,1.058068,3.286789,54,95,41,54,1,71.429,14,damping
1780591939.2831187,0.6812898000061978,841,0.044434,-0.015137,1.050293,1.671756,3.229008,-1.167939,1.051341,3.819076,56,98,42,56,0,71.429,9,damping
1780591939.313806,0.7119773000013083,872,0.026855,-0.023682,1.068115,1.549618,2.793893,-1.282443,1.068715,3.442646,57,100,43,57,0,71.429,9,damping
1780591939.3452165,0.7433878000010736,903,0.037109,-0.038574,1.043945,1.78626,2.633588,-1.099237,1.045317,3.366724,58,103,45,58,1,71.429,15,damping
1780591939.3755288,0.7736999000044307,934,0.033447,-0.018311,1.048828,2.40458,2.732824,-1.061069,1.049521,3.791596,60,106,46,60,0,71.429,9,damping
1780591939.4074602,0.8056314999994356,965,0.030762,-0.022949,1.057861,2.007634,2.312977,-1.312977,1.058557,3.332321,61,108,47,61,0,71.429,10,damping
1780591939.4392395,0.8374107000126969,996,0.032227,-0.022949,1.053955,1.854962,2.541985,-1.351145,1.054697,3.424641,62,111,49,62,1,71.429,14,damping
1780591939.4699793,0.8681504000123823,1027,0.035645,-0.010498,1.05957,1.91603,2.854962,-1.21374,1.060222,3.646251,64,114,50,64,0,71.429,9,damping
1780591939.5015426,0.899713700011489,1059,0.054199,-0.02002,1.04834,0.854962,3.045802,-1.206107,1.049931,3.38564,65,116,51,65,0,71.429,9,damping
1780591939.5328462,0.9310174000129336,1090,0.03418,-0.027588,1.057373,1.442748,2.78626,-0.770992,1.058285,3.230974,66,119,53,66,1,42.857,14,damping
1780591939.5642445,0.9624156000063522,1121,0.039062,-0.015381,1.056885,2.236641,2.732824,-1.076336,1.057718,3.6918,68,122,54,68,0,42.857,10,damping
1780591939.5956607,0.9938318000058644,1152,0.019531,-0.018799,1.058838,1.748092,2.465649,-1.343511,1.059185,3.307608,69,124,55,69,0,42.857,9,damping
1780591939.6251502,1.0233215000043856,1183,0.042725,-0.017822,1.052978,1.259542,3.29771,-0.938931,1.053996,3.652798,70,127,57,70,1,42.857,14,damping
1780591939.6571946,1.055365799998981,1214,0.035156,-0.011475,1.042969,1.282443,3.068702,-1.21374,1.043624,3.540446,72,130,58,72,0,42.857,9,damping
1780591939.6873944,1.0855656000057934,1245,0.051758,-0.017578,1.062988,1.564886,2.458015,-1.114504,1.064393,3.119747,73,132,59,73,0,42.857,9,damping
1780591939.7181227,1.1162938000052236,1276,0.024414,-0.027588,1.043945,1.732824,2.580153,-0.89313,1.044595,3.233814,74,135,61,74,1,42.857,14,damping
1780591939.7498167,1.1479878000100143,1307,0.039062,-0.031738,1.057373,1.931298,2.801527,-1.206107,1.05857,3.610146,76,138,62,76,0,42.857,9,damping
1780591939.7810862,1.1792573999991873,1338,0.039795,-0.019775,1.052734,1.366412,2.969466,-1.145038,1.053672,3.463513,77,140,63,77,0,42.857,8,damping
1780591939.8116837,1.209854800006724,1369,0.041016,-0.020508,1.067383,1.59542,2.664122,-0.954198,1.068367,3.2486,78,143,65,78,1,43.011,14,damping
1780591939.8426008,1.2407719000038924,1400,0.039551,-0.011963,1.050293,1.679389,3.10687,-1.175572,1.051105,3.722226,80,146,66,80,0,43.011,10,damping
1780591939.8746297,1.2728009000129532,1431,0.027344,-0.01123,1.054443,1.610687,2.587786,-1.282443,1.054858,3.306903,81,148,67,81,0,43.011,10,damping
1780591939.9157317,1.313902900001267,1462,0.037354,-0.018555,1.05127,1.603053,2.877863,-0.961832,1.052096,3.431763,82,151,69,82,1,43.011,14,damping
1780591939.934973,1.3331442000053357,1493,0.05542,-0.008789,1.047119,1.458015,2.458015,-0.969466,1.048621,3.017866,84,154,70,84,0,43.011,9,damping
1780591939.9669542,1.3651252999989083,1524,0.03418,-0.016113,1.063965,1.48855,2.580153,-0.977099,1.064636,3.134915,85,156,71,85,0,43.011,9,damping
1780591939.9982255,1.396396600001026,1555,0.041504,-0.022705,1.042236,1.740458,2.664122,-0.916031,1.043309,3.311473,86,159,73,86,1,43.011,14,damping
1780591940.028208,1.4263791000121273,1586,0.031494,-0.030029,1.051758,1.78626,2.725191,-0.610687,1.052658,3.315166,88,162,74,88,0,43.011,9,damping
1780591940.0598724,1.4580436000105692,1617,0.044189,-0.022217,1.057373,1.984733,2.732824,-0.793893,1.058529,3.469548,89,164,75,89,0,43.011,8,damping
1780591940.0907483,1.4889196000003722,1648,0.034424,-0.026855,1.056396,1.526718,3.053435,-1.259542,1.057298,3.638788,90,167,77,90,1,43.011,14,damping
1780591940.1200788,1.518250100009027,1679,0.03418,-0.002441,1.044678,1.366412,2.748092,-1.0,1.04524,3.227862,94,172,78,94,0,43.011,9,damping
1780591940.1537788,1.551950000008219,1709,0.016357,-0.02124,1.055664,1.40458,2.557252,-0.961832,1.056004,3.072052,95,174,79,95,0,43.011,10,damping
1780591940.1834955,1.5816667000035523,1740,0.032227,-0.024902,1.051514,1.740458,2.969466,-1.122137,1.052302,3.620237,96,177,81,96,1,43.011,14,damping
1780591940.2133548,1.6115260000078706,1771,0.039062,-0.007324,1.052246,1.923664,2.80916,-0.923664,1.052996,3.52775,101,183,82,101,0,43.011,0,damping
1780591940.2442315,1.6424026000022423,1801,0.044189,-0.019531,1.060547,0.984733,2.603053,-1.229008,1.061647,3.042375,102,185,83,102,0,43.011,9,damping
1780591940.274853,1.6730242000048747,1832,0.049316,-0.030029,1.044189,1.671756,2.877863,-0.778626,1.045785,3.418058,103,188,85,103,1,43.011,14,damping
1780591940.3070538,1.7052250000124332,1864,0.031982,-0.012207,1.055664,2.015267,2.709924,-0.961832,1.056219,3.511426,112,198,86,112,0,43.011,0,damping
1780591940.338181,1.7363523000094574,1895,0.017578,-0.021729,1.050781,1.274809,2.587786,-0.824427,1.051153,3.000243,113,200,87,113,0,43.011,9,damping
1780591940.368539,1.7667102000123123,1926,0.055908,-0.032959,1.061768,1.740458,2.557252,-0.839695,1.063749,3.20528,114,203,89,114,1,86.331,15,damping
1780591940.3993447,1.7975159000052372,1957,0.036621,-0.008545,1.062012,2.244275,2.305344,-1.259542,1.062677,3.455116,116,206,90,116,0,86.331,9,damping
1780591940.4308858,1.8290569000091637,1988,0.011475,-0.019775,1.053467,1.19084,2.885496,-0.992366,1.053715,3.275512,117,208,91,117,0,86.331,9,damping
1780591940.4619527,1.8601239000126952,2019,0.028564,-0.019287,1.056396,1.152672,2.770992,-0.854962,1.056959,3.120578,118,211,93,118,1,86.331,15,damping
1780591940.4930682,1.89123940000718,2050,0.050293,-0.018799,1.051025,2.122137,2.465649,-1.08397,1.052396,3.428977,120,214,94,120,0,86.331,9,damping
1780591940.5243163,1.9224875000072643,2081,0.037842,-0.030518,1.058594,1.824428,2.351145,-0.862595,1.059709,3.098466,121,216,95,121,0,86.331,9,damping
1780591940.5557191,1.9538904000073671,2112,0.025879,-0.025635,1.037598,1.381679,3.038168,-1.229008,1.038237,3.556679,122,219,97,122,1,86.331,14,damping
1780591940.5855985,1.9837697000039043,2143,0.026367,-0.008057,1.049072,1.549618,2.549618,-1.10687,1.049434,3.1823,125,223,98,125,0,86.331,0,damping
1780591940.61651,2.0146812000020873,2174,0.038818,-0.009521,1.066406,1.557252,2.48855,-1.129771,1.067155,3.14552,126,225,99,126,0,86.331,9,damping
1780591940.6467075,2.0448788000066997,2204,0.024902,-0.028809,1.062988,1.374046,2.610687,-0.763359,1.06367,3.04736,127,228,101,127,1,46.763,15,damping
1780591940.6783743,2.07654540000658,2236,0.037598,-0.031738,1.061035,2.908397,2.938931,-1.19084,1.062175,4.302812,131,236,105,131,0,46.763,0,damping
1780591940.7087522,2.1069234000024153,2267,0.0354,-0.006104,1.062988,1.862595,2.70229,-1.183206,1.063595,3.488783,132,238,106,132,0,46.763,9,damping
1780591940.7394273,2.1375985000049695,2297,0.046387,-0.02002,1.070068,1.10687,3.152672,-0.916031,1.07126,3.464623,133,241,108,133,1,46.763,14,damping
1780591940.7718706,2.170041700010188,2329,0.018066,-0.027832,1.046875,1.641221,2.450382,-1.08397,1.047401,3.142128,142,251,109,142,0,46.763,1,damping
1780591940.8022864,2.200457600003574,2360,0.0271,-0.012695,1.054443,1.717557,3.068702,-0.870229,1.054868,3.622739,143,253,110,143,0,46.763,9,damping
1780591940.8337991,2.231970300010289,2391,0.037109,-0.025391,1.063965,1.847328,2.694656,-1.061069,1.064915,3.435063,144,256,112,144,1,46.763,14,damping
1780591940.8650763,2.263247599999886,2422,0.049805,-0.007813,1.058106,1.48855,2.839695,-1.206107,1.059306,3.425542,146,259,113,146,0,46.763,9,damping
1780591940.8961134,2.294284700008575,2453,0.03833,-0.01123,1.058106,1.450382,2.854962,-0.900763,1.058859,3.326528,147,261,114,147,0,46.763,9,damping
1780591940.9263947,2.3245659000094747,2484,0.02002,-0.027588,1.049072,1.40458,2.625954,-0.916031,1.049626,3.115701,148,264,116,148,1,75.0,15,damping
1780591940.9586818,2.3568529000040144,2515,0.049072,-0.024414,1.051758,1.679389,2.618321,-0.832061,1.053185,3.219981,153,270,117,153,0,75.0,0,damping
1780591940.99078,2.3889513000031,2547,0.047852,-0.023193,1.049805,1.427481,2.770992,-0.717557,1.051151,3.198592,154,272,118,154,0,75.0,9,damping
1780591941.0213885,2.4195597000070848,2578,0.054688,-0.01123,1.059082,1.656489,3.038168,-1.015267,1.060552,3.60627,155,275,120,155,1,75.0,14,damping
1780591941.0522106,2.450381800008472,2609,0.057861,-0.029541,1.059326,0.908397,3.251908,-0.687023,1.061316,3.44559,157,278,121,157,0,75.0,9,damping
1780591941.0825667,2.4807379000121728,2640,0.032715,-0.029053,1.047119,1.396947,2.778626,-0.78626,1.048033,3.20787,158,280,122,158,0,75.0,9,damping
1780591941.112792,2.5109631000086665,2671,0.037354,-0.029297,1.050293,1.832061,3.0,-1.061069,1.051365,3.671827,159,283,124,159,1,75.0,14,damping
1780591941.1425686,2.54073980000976,2701,0.05127,-0.009766,1.05249,1.519084,2.40458,-1.312977,1.053783,3.132655,161,286,125,161,0,75.0,9,damping
1780591941.1734684,2.5716395000054035,2731,0.025635,-0.029053,1.044189,1.335878,2.290076,-0.931298,1.044908,2.810042,162,288,126,162,0,75.0,9,damping
1780591941.204911,2.6030821000022115,2762,0.051025,-0.017578,1.074951,1.603053,3.335878,-0.687023,1.076305,3.764288,163,291,128,163,1,53.957,14,damping
1780591941.237017,2.63518810000096,2794,0.028564,-0.027344,1.050537,2.068702,2.824427,-1.0,1.051281,3.641005,172,301,129,172,0,53.957,0,damping
1780591941.2667,2.6648712000023806,2824,0.045898,-0.023438,1.064209,1.656489,2.259542,-0.969466,1.065456,2.964683,173,303,130,173,0,53.957,9,damping
1780591941.298223,2.696394099999452,2855,0.04834,-0.019775,1.061768,1.503817,3.030534,-0.969466,1.063051,3.519299,174,306,132,174,1,53.957,14,damping
1780591941.3297524,2.7279236000031233,2887,0.043457,-0.018555,1.065674,2.167939,2.793893,-0.923664,1.066721,3.65499,183,316,133,183,0,53.957,0,damping
1780591941.3616948,2.759866000007605,2918,0.02832,-0.024414,1.056885,1.343511,2.847328,-0.877863,1.057546,3.268477,184,318,134,184,0,53.957,9,damping
1780591941.391943,2.7901142000046093,2949,0.032227,-0.024902,1.060059,1.778626,2.618321,-1.068702,1.060841,3.340844,185,321,136,185,1,53.957,14,damping
1780591941.4232428,2.8214140000054613,2980,0.030518,-0.017578,1.056885,2.030534,2.862595,-1.10687,1.057471,3.680038,187,324,137,187,0,53.957,9,damping
1780591941.4554205,2.8535916000109864,3012,0.041992,-0.025879,1.060303,1.847328,3.015267,-0.832061,1.061449,3.632738,188,326,138,188,0,100.0,9,damping
1780591941.4868982,2.885069399999338,3043,0.042725,-0.027588,1.049316,1.519084,3.145038,-1.10687,1.050548,3.663884,189,329,140,189,1,100.0,14,damping
1780591941.5159354,2.9141067000018666,3074,0.043701,-0.023926,1.05127,1.290076,2.557252,-1.0,1.05245,3.033782,191,332,141,191,0,100.0,9,damping
1780591941.5472212,2.9453924000117695,3104,0.041992,-0.015381,1.066894,1.748092,2.801527,-1.122137,1.067831,3.487631,192,334,142,192,0,100.0,9,damping
1780591941.577875,2.976046200012206,3135,0.041504,-0.034912,1.047607,2.091603,2.526718,-1.038168,1.04901,3.44048,193,337,144,193,1,100.0,13,damping
1780591941.6090357,3.00720690000162,3166,0.051514,-0.016602,1.068115,1.679389,2.610687,-0.931298,1.069486,3.240887,195,340,145,195,0,100.0,9,damping
1780591941.6398785,3.0380495999997947,3197,0.017822,-0.023682,1.037109,1.687023,2.717557,-0.969466,1.037533,3.342308,196,342,146,196,0,100.0,9,damping
1780591941.6701777,3.068349000008311,3228,0.044678,-0.03125,1.054688,1.885496,2.931298,-1.251908,1.056096,3.70336,197,345,148,197,1,100.0,14,damping
1780591941.7017586,3.0999297000089427,3259,0.039795,-0.016846,1.052734,2.229008,2.664122,-0.679389,1.053621,3.539434,199,348,149,199,0,100.0,9,damping
1780591941.7322319,3.1304031000036048,3290,0.036865,-0.00293,1.061768,1.549618,2.793893,-0.748092,1.062411,3.28128,200,350,150,200,0,43.165,9,damping
1780591941.7640848,3.162255900009768,3321,0.038086,-0.029053,1.059082,2.114504,3.435115,-0.885496,1.060165,4.1298,201,353,152,201,1,43.165,14,damping
1780591941.7944703,3.1926415000052657,3352,0.043945,-0.015381,1.065186,2.19084,2.984733,-0.748092,1.066202,3.777307,203,356,153,203,0,43.165,9,damping
1780591941.826293,3.22446409999975,3383,0.030518,-0.021973,1.042725,1.519084,2.748092,-0.458015,1.043402,3.173232,204,358,154,204,0,43.165,9,damping
1780591941.857173,3.255344100005459,3414,0.037109,-0.032715,1.050049,1.778626,2.89313,-0.435114,1.051214,3.423892,205,361,156,205,1,43.165,14,damping
1780591941.8874357,3.28560680001101,3445,0.032227,-0.004639,1.050537,1.870229,3.0,-0.618321,1.051042,3.588882,208,365,157,208,0,43.165,0,damping
1780591941.9177525,3.3159238000080222,3475,0.042969,-0.019043,1.06543,0.908397,2.89313,-0.664122,1.066466,3.104262,209,367,158,209,0,43.165,8,damping
1780591941.9562624,3.3544336000049952,3506,0.042969,-0.005615,1.064453,1.625954,3.435115,-0.603053,1.065335,3.84804,210,370,160,210,1,43.165,14,damping
1780591941.9800243,3.3781955000013113,3536,0.038574,-0.020752,1.063721,2.236641,2.732824,-0.519084,1.064622,3.569362,211,372,161,211,1,43.165,12,damping
1780591942.010756,3.4089272000128403,3567,0.035645,-0.010742,1.053467,1.648855,3.007634,-0.251908,1.054124,3.439192,213,375,162,213,0,46.931,9,damping
1780591942.041396,3.4395670000085374,3598,0.050537,-0.033691,1.044434,1.900763,3.076336,-0.366412,1.046198,3.634694,214,378,164,214,1,46.931,14,damping
1780591942.0745778,3.4727490000077523,3631,0.054443,-0.037109,1.056641,1.877863,2.694656,-0.778626,1.058693,3.37547,226,391,165,226,0,46.931,0,damping
1780591942.1057355,3.5039067000034265,3663,0.038574,-0.008545,1.054443,1.549618,2.832061,-0.343511,1.055183,3.246519,227,393,166,227,0,46.931,9,damping
1780591942.1371405,3.5353116000042064,3694,0.024902,-0.0271,1.055664,1.114504,2.885496,-0.236641,1.056305,3.10229,228,396,168,228,1,46.931,14,damping
1780591942.1678371,3.566008400011924,3725,0.053955,-0.025146,1.053223,2.21374,2.541985,-0.541985,1.054904,3.4141,230,399,169,230,0,46.931,9,damping
1780591942.2000518,3.598223000008147,3757,0.046143,-0.020264,1.064697,1.587786,2.671756,-0.763359,1.065889,3.200322,231,401,170,231,0,46.931,8,damping
1780591942.230877,3.6290480000025127,3788,0.0354,-0.019287,1.060791,1.198473,3.183206,-0.709924,1.061557,3.474641,232,404,172,232,1,46.931,14,damping
1780591942.2622693,3.6604405000107363,3819,0.031494,-0.015137,1.052002,1.946565,2.580153,-0.396947,1.052582,3.256358,234,407,173,234,0,83.333,9,damping
1780591942.2928016,3.6909728000027826,3850,0.038086,-0.021484,1.055908,2.083969,2.816794,-0.587786,1.056813,3.552851,235,409,174,235,0,83.333,9,damping
1780591942.3233964,3.721567700005835,3881,0.031738,-0.019287,1.055176,1.259542,2.458015,-0.564886,1.055829,2.81911,236,412,176,236,1,83.333,15,damping
1780591942.356501,3.754672400013078,3913,0.029053,-0.026855,1.044434,2.167939,2.801527,-0.320611,1.045183,3.556867,245,422,177,245,0,83.333,0,damping
1780591942.3879042,3.7860753999993904,3944,0.038086,-0.021484,1.05127,1.603053,3.076336,-0.290076,1.052179,3.481058,246,424,178,246,0,83.333,9,damping
1780591942.4179394,3.8161107000050833,3975,0.029541,-0.022461,1.043701,1.977099,2.526718,-0.480916,1.044361,3.244149,247,427,180,247,1,83.333,14,damping
1780591942.4503396,3.8485107000014978,4006,0.046631,-0.014648,1.062744,1.931298,2.862595,-0.694656,1.063867,3.522344,249,430,181,249,0,83.333,9,damping
1780591942.4803684,3.8785395000013523,4037,0.014648,-0.016357,1.044189,1.519084,2.961832,-0.465649,1.04442,3.361086,250,432,182,250,0,83.333,8,damping
1780591942.5116172,3.9097884000075283,4068,0.055664,-0.017578,1.07251,1.580153,2.854962,-0.465649,1.074097,3.296137,251,435,184,251,1,83.333,14,damping
1780591942.5426092,3.940780300006736,4099,0.045654,-0.017822,1.06543,2.061069,2.366412,-0.557252,1.066556,3.187231,253,438,185,253,0,67.857,9,damping
1780591942.5734763,3.9716476000030525,4131,0.049561,-0.018311,1.059814,1.519084,2.580153,-0.534351,1.061131,3.041436,254,440,186,254,0,67.857,9,damping
1780591942.6049142,4.003085300006205,4162,0.026367,-0.03125,1.049561,1.671756,2.80916,-0.610687,1.050357,3.325521,255,443,188,255,1,67.857,15,damping
1780591942.6366,4.034771300008288,4193,0.04541,-0.028564,1.064209,2.183206,2.748092,-0.351145,1.06556,3.527279,257,446,189,257,0,67.857,9,damping
1780591942.666336,4.0645072000043,4224,0.030029,-0.013916,1.067627,1.427481,2.832061,0.007634,1.06814,3.171487,258,448,190,258,0,67.857,8,damping
1780591942.6985576,4.09672890001093,4255,0.043213,-0.015625,1.061523,1.938931,3.320611,-0.244275,1.062518,3.852996,259,451,192,259,1,67.857,14,damping
1780591942.7295763,4.12774760001048,4287,0.025635,-0.010986,1.060303,2.526718,2.648855,-0.290076,1.060669,3.672176,268,461,193,268,0,67.857,0,damping
1780591942.7609582,4.159129500010749,4318,0.023926,-0.01123,1.054688,1.648855,2.282443,-0.48855,1.055019,2.857787,269,463,194,269,0,67.857,9,damping
1780591942.7923503,4.190521500000614,4349,0.044434,-0.015137,1.067627,1.221374,2.641221,-0.587786,1.068658,2.96872,270,466,196,270,1,68.0,15,damping
1780591942.8359592,4.2341305000009015,4380,0.019531,-0.013672,1.05249,1.778626,2.625954,-0.610687,1.05276,3.229874,274,471,197,274,0,68.0,10,damping
1780591942.8535597,4.251731000011205,4411,0.021729,-0.003418,1.04834,1.076336,2.938931,-0.335878,1.04857,3.147798,275,473,198,275,0,68.0,9,damping
1780591942.885086,4.2832572000043,4442,0.05127,-0.017822,1.070557,1.78626,2.763359,-0.290076,1.071932,3.303183,276,476,200,276,1,68.0,15,damping
1780591942.9171464,4.315317700005835,4474,0.037109,-0.02417,1.063232,2.007634,2.679389,-0.061069,1.064154,3.348649,285,486,201,285,0,68.0,0,damping
1780591942.9473326,4.345503800010192,4505,0.015137,-0.005615,1.05249,0.931298,2.618321,-0.160305,1.052614,2.783634,288,490,202,288,0,68.0,9,damping
1780591942.9773815,4.375552700003027,4535,0.056641,-0.029297,1.068359,1.343511,2.603053,-0.114504,1.070261,2.931556,290,497,207,290,1,68.0,3,damping
1780591943.0093832,4.407554400007939,4567,0.026123,-0.010986,1.053467,2.076336,2.374046,-0.534351,1.053848,3.198874,303,512,209,303,0,68.0,0,damping
1780591943.0401378,4.438309000004665,4598,0.023926,-0.012207,1.066406,0.755725,3.129771,-0.198473,1.066744,3.22583,304,514,210,304,0,68.0,9,damping
1780591943.0719893,4.4701605000009295,4629,0.049072,-0.025391,1.057373,3.030534,2.282443,-0.053435,1.058816,3.794277,306,519,213,306,1,128.571,4,damping
1780591943.105354,4.50352520000888,4661,0.024902,-0.014648,1.050781,2.374046,2.610687,-0.389313,1.051178,3.550119,309,524,215,309,0,128.571,9,damping
1780591943.1366155,4.534786600008374,4693,0.04126,-0.025879,1.059326,0.992366,2.816794,-0.099237,1.060445,2.988138,312,528,216,312,0,128.571,9,damping
1780591943.1663792,4.564550400013104,4724,0.048828,-0.008545,1.063721,1.717557,3.152672,-0.053435,1.064875,3.590571,313,531,218,313,1,128.571,14,damping
1780591943.1990776,4.5972488000115845,4756,0.023926,-0.022705,1.052246,1.580153,3.068702,-0.358779,1.052763,3.470236,322,542,220,322,0,128.571,1,damping
1780591943.2302055,4.6283767000131775,4787,0.023438,-0.017334,1.052002,1.389313,2.290076,-0.175573,1.052406,2.6843,325,546,221,325,0,128.571,10,damping
1780591943.2612226,4.659393800000544,4818,0.047119,-0.026611,1.059082,1.442748,2.984733,-0.625954,1.060464,3.373718,327,553,226,327,1,128.571,3,damping
1780591943.2927806,4.690951900003711,4850,0.033936,-0.013672,1.053955,2.366412,2.465649,-0.129771,1.05459,3.419967,336,563,227,336,0,128.571,1,damping
1780591943.3252113,4.723382399999537,4882,0.054199,-0.029541,1.064941,1.458015,2.419847,-0.526718,1.066729,2.87383,337,565,228,337,0,122.53,9,damping
1780591943.3564372,4.754608300005202,4913,0.019775,-0.014893,1.044678,1.366412,2.961832,-0.679389,1.044971,3.331832,339,570,231,339,1,122.53,3,damping
1780591943.3877301,4.785901400013245,4944,0.044189,-0.009521,1.052734,2.343511,2.305344,-0.320611,1.053704,3.302945,342,575,233,342,0,122.53,8,damping
1780591943.4180443,4.816215500002727,4975,0.043701,-0.016113,1.053223,1.954198,2.389313,-0.396947,1.054252,3.112118,345,579,234,345,0,122.53,9,damping
1780591943.4492688,4.847440000012284,5006,0.033447,-0.011719,1.060791,1.068702,3.656489,-0.458015,1.061383,3.836901,346,582,236,346,1,122.53,15,damping
1780591943.4809911,4.879162400000496,5037,0.033447,-0.027588,1.056885,2.038168,2.175573,-0.442748,1.057774,3.013847,349,587,238,349,0,122.53,9,damping
1780591943.511566,4.909737000009045,5068,0.036377,-0.018066,1.052002,1.793893,2.290076,-0.290076,1.052786,2.923465,352,591,239,352,0,122.53,9,damping
1780591943.5433748,4.941545900001074,5100,0.042236,-0.025635,1.056885,1.496183,3.045802,-0.603053,1.058039,3.446614,354,598,244,354,1,122.53,4,damping
1780591943.5731602,4.971331400010968,5131,0.032715,-0.004395,1.049316,1.908397,2.770992,-0.755725,1.049835,3.448405,356,601,245,356,0,122.53,9,damping
1780591943.6051223,5.003293600006145,5162,0.035645,-0.015381,1.0625,2.038168,2.587786,-0.206107,1.063209,3.300492,357,603,246,357,0,71.429,8,damping
1780591943.6356611,5.03383240000403,5193,0.044678,-0.013428,1.066894,1.931298,2.687023,-0.320611,1.067914,3.324574,359,610,251,359,1,71.429,3,damping
1780591943.6661136,5.06428489999962,5224,0.024902,-0.023193,1.052246,1.580153,2.70229,-0.664122,1.052796,3.200049,362,615,253,362,0,71.429,9,damping
1780591943.697101,5.095272300008219,5255,0.059814,-0.032471,1.074219,1.374046,2.40458,-0.236641,1.076373,2.779569,363,617,254,363,0,71.429,9,damping
1780591943.7276309,5.125802100010333,5285,0.027344,-0.006104,1.039307,2.519084,3.152672,-0.40458,1.039684,4.055713,364,620,256,364,1,71.429,15,damping
1780591943.758516,5.15668720001122,5316,0.040283,-0.0271,1.061279,2.29771,2.816794,-0.526718,1.062389,3.673041,366,624,258,366,1,71.429,3,damping
1780591943.7880201,5.1861913000029745,5346,0.016113,-0.002686,1.044189,0.793893,3.557252,-0.022901,1.044317,3.644836,369,629,260,369,0,71.429,9,damping
1780591943.8335438,5.231714900000952,5377,0.059082,-0.026123,1.05542,1.503817,3.374046,-0.183206,1.057395,3.698542,370,633,263,370,0,71.429,7,damping
1780591943.8507524,5.248923500010278,5408,0.051758,-0.030029,1.064209,2.015267,2.541985,-0.29771,1.06589,3.257548,372,637,265,372,1,71.429,6,damping
1780591943.8819833,5.280154500011122,5439,0.036865,-0.008301,1.050049,0.854962,3.175573,-0.259542,1.050728,3.298876,374,640,266,374,0,61.372,9,damping
1780591943.9134433,5.311614400008693,5470,0.051514,-0.033447,1.052246,1.885496,3.732824,-0.038168,1.054037,4.182168,376,646,270,376,0,61.372,0,damping
1780591943.9448113,5.342982600006508,5501,0.058594,-0.013428,1.069336,2.259542,3.633588,0.145038,1.071024,4.2813,378,651,273,378,1,61.372,3,damping
1780591943.980932,5.379103100000066,5532,0.035645,-0.015381,1.050781,1.221374,3.083969,-0.274809,1.051498,3.328384,380,654,274,380,0,61.372,8,damping
1780591944.012802,5.41097300000547,5569,0.050537,-0.003906,1.043701,1.709924,3.496183,0.038168,1.044931,3.89212,381,657,276,381,1,61.372,15,damping
1780591944.043279,5.441450000012992,5600,0.030518,-0.035156,1.043701,1.244275,2.877863,-0.290076,1.044739,3.148723,384,662,278,384,0,61.372,9,damping
1780591944.0752175,5.473388600003091,5631,0.049561,-0.036133,1.050049,1.618321,2.984733,-0.427481,1.051838,3.422036,388,668,280,388,0,61.372,1,damping
1780591944.1056182,5.503789500013227,5663,0.055176,-0.007568,1.056641,2.21374,3.145038,-0.274809,1.058107,3.855831,389,671,282,389,1,61.372,15,damping
1780591944.1359942,5.534165500008385,5694,0.070068,-0.027588,1.059082,1.70229,3.29771,-0.183206,1.061756,3.715676,391,674,283,391,0,66.667,8,damping
1780591944.1668344,5.565005500000552,5724,0.045166,-0.032227,1.052734,1.687023,2.473282,-0.671756,1.054196,3.068294,393,678,285,393,0,66.667,0,damping
1780591944.1991556,5.5973268000088865,5756,0.049316,-0.009033,1.051514,2.320611,2.984733,-0.572519,1.052708,3.823826,395,683,288,395,1,66.667,4,damping
1780591944.2297828,5.627954100011266,5787,0.060547,-0.023682,1.061279,1.396947,3.122137,-0.641221,1.063269,3.479995,398,688,290,398,0,66.667,9,damping
1780591944.2612097,5.659380800003419,5818,0.025635,-0.024414,1.048584,2.335878,3.496183,-0.427481,1.049181,4.226389,399,690,291,399,0,66.667,8,damping
1780591944.2921133,5.690284500000416,5849,0.038574,-0.006348,1.046143,1.320611,3.198473,-0.374046,1.046873,3.48054,400,693,293,400,1,66.667,15,damping
1780591944.3230858,5.721257000011974,5880,0.054688,-0.030273,1.060547,1.061069,2.839695,-0.358779,1.062387,3.052614,403,698,295,403,0,66.667,9,damping
1780591944.3552482,5.753419400003622,5911,0.037598,-0.020996,1.041748,2.450382,2.961832,-0.435114,1.042638,3.86861,407,704,297,407,0,66.667,1,damping
1780591944.385975,5.784146100006183,5943,0.046143,-0.001709,1.047852,1.038168,3.480916,-0.534351,1.048868,3.671526,408,707,299,408,1,66.667,15,damping
1780591944.4162905,5.814461800007848,5973,0.034424,-0.006592,1.040772,1.465649,3.229008,-0.236641,1.041361,3.553958,410,710,300,410,0,68.1,8,damping
1780591944.448393,5.846564400009811,6004,0.052979,-0.043701,1.058838,1.816794,2.435115,-0.129771,1.061063,3.040948,412,714,302,412,0,68.1,0,damping
1780591944.479712,5.877883200009819,6036,0.057129,-0.003662,1.057129,1.679389,3.061069,-0.51145,1.058678,3.52875,414,719,305,414,1,68.1,4,damping
1780591944.5092478,5.9074190000101225,6067,0.039307,-0.008057,1.047119,1.564886,3.099237,0.030534,1.047888,3.472041,417,724,307,417,0,68.1,9,damping
1780591944.5420835,5.940254700006335,6098,0.04834,-0.029297,1.061035,2.114504,3.091603,-0.725191,1.06254,3.815106,418,726,308,418,0,68.1,8,damping
1780591944.5724058,5.97057710000081,6129,0.05542,-0.027588,1.050537,1.862595,3.145038,-0.015267,1.05236,3.655237,419,729,310,419,1,68.1,15,damping
1780591944.6035178,6.001688900010777,6160,0.05249,-0.012939,1.055908,1.984733,2.992366,-0.412214,1.057291,3.614324,422,734,312,422,0,68.1,9,damping
1780591944.6343632,6.032534300000407,6191,0.027588,-0.024658,1.056641,2.221374,2.603053,-0.465649,1.057288,3.453581,426,740,314,426,0,68.1,1,damping
1780591944.6651628,6.063333900005091,6222,0.066162,-0.045166,1.055664,2.099237,2.977099,-0.152672,1.058699,3.645987,427,743,316,427,1,68.1,15,damping
1780591944.6959655,6.094136800005799,6253,0.036865,-0.021484,1.055908,2.312977,2.824427,-0.603053,1.05677,3.700125,429,746,317,429,0,67.857,8,damping
1780591944.7282598,6.126431100012269,6284,0.025391,-0.016113,1.050049,1.763359,2.374046,-0.664122,1.050479,3.030938,431,750,319,431,0,67.857,0,damping
1780591944.759383,6.157554200006416,6315,0.049805,-0.032715,1.053467,1.633588,3.48855,-0.496183,1.055151,3.883914,433,755,322,433,1,67.857,4,damping
1780591944.788583,6.18675420001091,6346,0.046875,-0.01709,1.061523,1.267176,2.748092,-0.282443,1.062695,3.039328,436,760,324,436,0,67.857,9,damping
1780591944.8192463,6.217417400010163,6377,0.023926,-0.006836,1.045166,1.221374,2.824427,-0.290076,1.045462,3.09084,437,762,325,437,0,67.857,8,damping
1780591944.8495626,6.247733800002607,6407,0.039062,-0.007813,1.062988,1.91603,2.572519,-0.48855,1.063734,3.244643,438,765,327,438,1,67.857,15,damping
1780591944.8816657,6.279837000009138,6438,0.04541,-0.010498,1.058838,1.938931,2.732824,-0.145038,1.059863,3.353926,441,770,329,441,0,67.857,10,damping
1780591944.9118583,6.310029600004782,6469,0.018066,-0.019287,1.048828,1.59542,2.648855,-0.21374,1.049161,3.099594,444,774,330,444,0,67.857,9,damping
1780591944.9432795,6.341450799998711,6500,0.040527,-0.010986,1.06543,1.793893,2.862595,-0.335878,1.066257,3.394896,445,779,334,445,1,67.857,14,damping
1780591944.9743469,6.372518000003765,6532,0.038086,-0.020508,1.051025,2.70229,2.534351,-0.480916,1.051915,3.735852,454,789,335,454,0,89.606,0,damping
1780591945.0065575,6.404728699999396,6563,0.020752,-0.003174,1.055908,1.320611,2.770992,-0.480916,1.056117,3.107039,455,791,336,455,0,89.606,9,damping
1780591945.03642,6.434591299999738,6594,0.032715,-0.027344,1.049561,1.290076,2.854962,-0.641221,1.050426,3.197854,457,798,341,457,1,89.606,4,damping
1780591945.0678825,6.466053800002555,6625,0.026855,-0.012451,1.045166,1.946565,2.503817,-0.748092,1.045585,3.258505,460,803,343,460,0,89.606,8,damping
1780591945.0985641,6.496735300010187,6656,0.043213,-0.023193,1.062012,1.19084,2.473282,-0.534351,1.063144,2.796562,461,805,344,461,0,89.606,9,damping
1780591945.129495,6.527666000009049,6687,0.031006,-0.016602,1.05542,1.290076,3.0,-0.549618,1.056006,3.311552,462,808,346,462,1,89.606,15,damping
1780591945.162343,6.560514200013131,6718,0.039062,-0.006592,1.063965,1.343511,2.748092,-0.778626,1.064702,3.156468,465,813,348,465,0,89.606,10,damping
1780591945.1912162,6.589387300002272,6749,0.012207,-0.004639,1.053711,1.740458,2.068702,-0.587786,1.053792,2.766626,468,817,349,468,0,89.606,10,damping
1780591945.222703,6.620874200001708,6780,0.054443,-0.040039,1.058594,1.648855,2.763359,-0.580153,1.060749,3.269779,470,824,354,470,1,89.606,4,damping
1780591945.2533472,6.651518400001805,6811,0.0354,-0.007568,1.058594,2.076336,2.51145,-0.541985,1.059213,3.303377,472,827,355,472,0,64.516,9,damping
1780591945.285179,6.683350200008135,6842,0.020752,-0.020264,1.040283,1.839695,2.648855,-0.412214,1.040687,3.251281,473,829,356,473,0,64.516,9,damping
1780591945.3166244,6.714795600011712,6873,0.034424,-0.0354,1.049072,1.877863,3.244275,-0.618321,1.050234,3.799212,475,836,361,475,1,64.516,4,damping
1780591945.3472936,6.745464899999206,6904,0.044922,-0.019531,1.062256,2.343511,2.923664,-0.679389,1.063385,3.808074,477,839,362,477,0,64.516,9,damping
1780591945.3776326,6.775803800002905,6935,0.024414,-0.011963,1.052978,1.206107,3.068702,-0.664122,1.053329,3.363434,478,841,363,478,0,64.516,9,damping
1780591945.4098105,6.807981800011476,6966,0.034424,-0.012695,1.062256,1.091603,2.305344,-0.580153,1.062889,2.615872,479,844,365,479,1,64.516,14,damping
1780591945.4399617,6.83813290001126,6997,0.03418,-0.010742,1.062744,1.664122,2.480916,-0.534351,1.063348,3.034762,481,847,366,481,0,64.516,9,damping
1780591945.4714453,6.86961650000012,7028,0.036133,-0.026611,1.062012,0.427481,2.877863,-0.374046,1.062959,2.933385,482,849,367,482,0,64.516,10,damping
1780591945.5012264,6.899397600005614,7059,0.03125,-0.017334,1.060059,1.664122,2.435115,-0.396947,1.060661,2.976013,483,852,369,483,1,64.516,15,damping
1780591945.534267,6.9324381000042195,7091,0.046875,-0.016602,1.05835,2.21374,2.465649,-0.435114,1.059517,3.342064,492,862,370,492,0,71.429,0,damping
1780591945.5650144,6.96318560000509,7122,0.036133,-0.027344,1.06958,1.053435,2.763359,-0.458015,1.07054,2.9926,493,864,371,493,0,71.429,9,damping
1780591945.595815,6.9939861000020755,7153,0.0354,-0.016602,1.056641,1.274809,2.587786,-0.572519,1.057364,2.941012,495,871,376,495,1,71.429,4,damping
1780591945.627621,7.025792200001888,7185,0.021729,-0.02417,1.052002,2.0,2.015267,-0.40458,1.052504,2.867924,505,883,378,505,0,71.429,1,damping
1780591945.6586185,7.056789700000081,7215,0.052734,-0.013184,1.067139,1.503817,3.045802,-0.541985,1.068522,3.439785,506,885,379,506,0,71.429,8,damping
1780591945.6895697,7.087741000010283,7246,0.030029,-0.010742,1.052978,1.862595,2.267176,-0.564886,1.053461,2.98805,507,888,381,507,1,71.429,15,damping
1780591945.7202678,7.118438900011824,7277,0.049316,-0.017822,1.061523,2.160305,2.770992,-0.458015,1.062818,3.543317,509,892,383,509,1,71.429,4,damping
1780591945.7519383,7.150109500013059,7308,0.063721,-0.020996,1.073486,0.847328,3.335878,-0.381679,1.075581,3.462907,512,897,385,512,0,71.429,10,damping
1780591945.783343,7.181514200012316,7339,0.033691,-0.020264,1.06665,1.725191,3.267176,-0.435114,1.067375,3.720221,513,902,389,513,1,71.429,15,damping
1780591945.8155577,7.213729000010062,7372,0.024414,-0.019043,1.058594,1.78626,2.80916,-0.320611,1.059046,3.344383,522,912,390,522,0,106.762,0,damping
1780591945.8475397,7.245710800008965,7404,0.045166,-0.02002,1.065674,1.587786,2.900763,-0.19084,1.066818,3.312388,523,914,391,523,0,106.762,9,damping
1780591945.8782015,7.27637260001211,7435,0.01416,-0.009033,1.062256,1.572519,2.832061,-0.824427,1.062389,3.342614,525,921,396,525,1,106.762,4,damping
1780591945.9093518,7.307523000010406,7466,0.027344,-0.008789,1.049316,2.030534,2.083969,-0.641221,1.049709,2.979457,528,926,398,528,0,106.762,9,damping
1780591945.9402785,7.338449700007914,7497,0.05249,-0.029053,1.06665,1.450382,2.946565,-0.59542,1.068336,3.33772,529,928,399,529,0,106.762,8,damping
1780591945.9712393,7.369410500003141,7528,0.020508,-0.013428,1.050537,1.19084,2.10687,-0.610687,1.050823,2.495984,530,931,401,530,1,106.762,15,damping
1780591946.0020118,7.400182900004438,7559,0.034424,-0.032227,1.052002,1.519084,2.328244,-0.618321,1.053058,2.847922,533,936,403,533,0,106.762,9,damping
1780591946.0327747,7.430945900006918,7590,0.026367,-0.02002,1.058594,1.938931,2.19084,-0.412214,1.059111,2.954514,536,940,404,536,0,106.762,9,damping
1780591946.0641794,7.462350600006175,7621,0.037598,-0.004395,1.05957,1.946565,2.381679,-0.442748,1.060246,3.107658,537,945,408,537,1,106.762,15,damping
1780591946.0954895,7.4936606000119355,7652,0.029053,-0.024414,1.053955,1.259542,3.145038,-0.572519,1.054638,3.435912,539,948,409,539,0,60.714,8,damping
1780591946.125959,7.524130000005243,7683,0.040771,-0.042725,1.061035,1.503817,2.412214,-0.709924,1.062677,2.929886,540,950,410,540,0,60.714,8,damping
1780591946.1571412,7.555312399999821,7714,0.035156,-0.006348,1.063965,1.435114,2.763359,-0.916031,1.064564,3.245738,542,957,415,542,1,60.714,4,damping
1780591946.19,7.588171300012618,7746,0.026123,-0.019287,1.058838,1.877863,2.068702,-0.687023,1.059336,2.877133,552,969,417,552,0,60.714,0,damping
1780591946.2208564,7.619027700013248,7777,0.041504,-0.015869,1.065674,1.80916,1.946565,-0.824427,1.0666,2.782419,553,971,418,553,0,60.714,9,damping
1780591946.2512112,7.649382400006289,7808,0.018066,-0.026855,1.04248,1.244275,2.694656,-0.725191,1.042983,3.055372,554,974,420,554,1,60.714,15,damping
1780591946.2835126,7.681683700007852,7839,0.043457,-0.02417,1.062012,1.946565,2.671756,-0.564886,1.063175,3.353578,557,979,422,557,0,60.714,9,damping
1780591946.3145788,7.712750000006054,7871,0.042725,-0.02832,1.061279,1.267176,2.862595,-0.267176,1.062516,3.141905,560,984,424,560,1,60.714,10,damping
1780591946.3456845,7.743855700013228,7902,0.041748,-0.026611,1.056396,1.610687,2.389313,-0.847328,1.057556,3.003514,562,990,428,562,1,92.0,3,damping
1780591946.3762934,7.774464600006468,7933,0.04248,-0.02417,1.05835,1.458015,2.557252,-0.496183,1.059477,2.985221,564,993,429,564,0,92.0,8,damping
1780591946.407416,7.8055872000113595,7964,0.021973,-0.020752,1.050537,1.496183,2.603053,-0.412214,1.050972,3.030573,567,998,431,567,1,92.0,11,damping
1780591946.4380572,7.836228300002404,7995,0.037354,-0.024414,1.057129,0.351145,2.870229,-1.022901,1.05807,3.067221,569,1004,435,569,1,92.0,3,damping
1780591946.469504,7.8676753000036115,8026,0.042725,-0.019043,1.056641,1.267176,2.496183,-0.274809,1.057676,2.81286,572,1009,437,572,0,92.0,8,damping
1780591946.5006804,7.8988517000107095,8057,0.039795,-0.022217,1.055908,1.793893,2.778626,-0.366412,1.056891,3.327623,575,1013,438,575,0,92.0,8,damping
1780591946.531095,7.929266200007987,8088,0.032715,-0.039551,1.05249,1.664122,2.366412,-0.572519,1.053741,2.949066,577,1018,441,577,1,92.0,4,damping
1780591946.5623565,7.960527600007481,8119,0.048096,-0.018066,1.058838,2.21374,2.282443,-0.687023,1.060084,3.253028,580,1023,443,580,0,92.0,9,damping
1780591946.5935519,7.991723099999945,8150,0.024414,-0.017334,1.052246,1.740458,2.366412,-0.51145,1.052672,2.981725,583,1027,444,583,0,92.0,9,damping
1780591946.6240952,8.022266500003752,8181,0.02417,-0.021729,1.057617,1.450382,2.320611,-0.709924,1.058116,2.82716,585,1034,449,585,1,82.437,4,damping
1780591946.6559134,8.054084500006866,8212,0.023438,-0.019043,1.055176,1.709924,1.80916,-0.89313,1.055608,2.644727,587,1037,450,587,0,82.437,9,damping
1780591946.687042,8.085213199999998,8243,0.044922,-0.022461,1.062988,1.244275,2.427481,-0.59542,1.064174,2.792026,590,1041,451,590,0,82.437,9,damping
1780591946.7178614,8.116032500009169,8275,0.049561,-0.033936,1.052978,1.564886,2.946565,-0.923664,1.05469,3.46183,592,1048,456,592,1,82.437,3,damping
1780591946.7594454,8.157616500000586,8306,0.018555,-0.007813,1.042236,1.80916,2.923664,-0.221374,1.042431,3.445269,595,1053,458,595,0,82.437,9,damping
1780591946.7807229,8.178894100012258,8337,0.032471,-0.017578,1.057617,1.419847,2.557252,-0.458015,1.058262,2.960622,600,1059,459,600,0,82.437,9,damping
1780591946.811211,8.209382200002437,8368,0.039062,-0.033691,1.058594,1.427481,2.396947,-0.709924,1.05985,2.878723,601,1062,461,601,1,82.437,15,damping
1780591946.8424435,8.240614700000151,8399,0.04541,-0.017578,1.052246,0.854962,2.122137,-0.564886,1.053372,2.356591,604,1067,463,604,0,82.437,10,damping
1780591946.874281,8.272452100005466,8430,0.032471,-0.021973,1.052246,0.862595,2.80916,-0.328244,1.052976,2.95689,607,1072,465,607,1,82.437,10,damping
1780591946.9065552,8.304726400005165,8462,0.046387,-0.014648,1.061768,1.931298,3.51145,-0.320611,1.062881,4.020322,609,1078,469,609,1,85.409,3,damping
1780591946.935506,8.3336774000054,8493,0.053467,-0.007324,1.062256,1.572519,4.0,-0.396947,1.063626,4.316293,611,1081,470,611,0,85.409,9,damping
1780591946.9674847,8.365655900008278,8523,0.052002,-0.039551,1.072266,1.290076,2.770992,-0.51145,1.074254,3.099077,612,1084,472,612,1,85.409,11,damping
1780591946.9980526,8.396223800009466,8554,0.032959,-0.043701,1.051025,0.717557,3.099237,-0.778626,1.05245,3.275121,614,1090,476,614,1,85.409,3,damping
1780591947.0291092,8.427280400006566,8585,0.044189,-0.031738,1.055664,1.954198,3.10687,-0.496183,1.057065,3.703746,617,1095,478,617,0,85.409,9,damping
1780591947.0591094,8.457280700007686,8616,0.052734,-0.020264,1.061523,2.068702,2.572519,-0.854962,1.063026,3.410036,620,1099,479,620,0,85.409,8,damping
1780591947.0911264,8.489297700012685,8647,0.064453,-0.043945,1.058106,1.145038,3.221374,-0.641221,1.060977,3.478438,621,1102,481,621,1,85.409,15,damping
1780591947.1213865,8.519557600011467,8678,0.025146,-0.01123,1.048828,1.358779,3.335878,-0.374046,1.04919,3.621363,625,1109,484,625,0,85.409,1,damping
1780591947.1526337,8.55080490000546,8709,0.045898,-0.028076,1.069336,1.656489,2.442748,-0.427481,1.070689,2.982233,628,1114,486,628,1,85.409,10,damping
1780591947.1831787,8.581349800006137,8740,0.038574,-0.024902,1.051025,1.320611,2.740458,-0.916031,1.052028,3.176985,630,1120,490,630,1,75.54,3,damping
1780591947.2132409,8.611412000012933,8771,0.033203,-0.022949,1.060791,1.778626,2.870229,-0.618321,1.061559,3.43279,632,1123,491,632,0,75.54,9,damping
1780591947.245831,8.644002100001671,8802,0.025879,-0.023438,1.049561,1.587786,2.641221,-0.648855,1.050141,3.149306,633,1125,492,633,0,75.54,8,damping
1780591947.2764585,8.674629700006335,8833,0.035889,-0.025391,1.064209,1.282443,3.129771,-0.89313,1.065116,3.498258,635,1132,497,635,1,75.54,3,damping
1780591947.307167,8.705338200001279,8864,0.057373,-0.007568,1.060791,1.496183,2.89313,-0.221374,1.062368,3.264624,638,1137,499,638,0,75.54,8,damping
1780591947.337331,8.735502200011979,8894,0.025146,-0.028809,1.048584,1.274809,2.679389,-0.694656,1.049281,3.047427,641,1141,500,641,0,75.54,8,damping
1780591947.3676202,8.765791300000274,8925,0.034668,-0.012695,1.055664,1.435114,2.221374,-0.740458,1.056309,2.746331,642,1144,502,642,1,75.54,14,damping
1780591947.3990457,8.797216999999364,8956,0.045898,-0.019531,1.067139,1.900763,2.458015,-0.557252,1.068304,3.156782,645,1149,504,645,0,75.54,9,damping
1780591947.429565,8.827736200008076,8987,0.027832,-0.023193,1.048828,1.396947,2.70229,-0.580153,1.049454,3.096838,648,1153,505,648,0,75.54,9,damping
1780591947.461325,8.859496000004583,9018,0.031494,-0.020508,1.057617,1.740458,2.267176,-0.59542,1.058285,2.919556,650,1160,510,650,1,71.942,3,damping
1780591947.4918768,8.890048100001877,9049,0.038818,-0.014404,1.056641,2.167939,2.282443,-0.480916,1.057452,3.18446,654,1165,511,654,0,71.942,9,damping
1780591947.5232718,8.921442999999272,9080,0.042969,-0.013428,1.062012,1.763359,2.541985,-0.458015,1.062965,3.127443,655,1167,512,655,0,71.942,8,damping
1780591947.554946,8.953117100012605,9111,0.022461,-0.018066,1.056885,1.923664,2.473282,-0.51145,1.057278,3.174774,657,1174,517,657,1,71.942,3,damping
1780591947.5860105,8.984181600011652,9142,0.018799,-0.016846,1.060303,1.824428,2.183206,-0.938931,1.060603,2.996084,660,1179,519,660,0,71.942,10,damping
1780591947.6151025,9.013273600008688,9173,0.041748,-0.028564,1.064209,2.0,2.267176,-0.816794,1.06541,3.131651,663,1183,520,663,0,71.942,8,damping
1780591947.6480615,9.046232799999416,9204,0.039551,-0.03418,1.043701,1.076336,2.320611,-0.801527,1.045009,2.680705,664,1190,526,664,1,71.942,15,damping
1780591947.6777909,9.07596210000338,9235,0.028809,-0.026855,1.057861,2.129771,2.610687,-0.519084,1.058594,3.408968,666,1193,527,666,0,71.942,9,damping
1780591947.7104058,9.108577100007096,9266,0.018555,-0.014893,1.052246,1.610687,2.351145,-0.603053,1.052515,2.913052,669,1197,528,669,0,71.942,9,damping
1780591947.740194,9.138365200007684,9297,0.034424,-0.008789,1.05835,1.625954,2.534351,-0.664122,1.058946,3.083459,671,1204,533,671,1,75.269,3,damping
1780591947.7717466,9.169917800012627,9328,0.037598,-0.010986,1.066406,1.78626,2.580153,-0.320611,1.067125,3.154474,674,1211,537,674,0,75.269,9,damping
1780591947.8028166,9.20098790001066,9359,0.015381,-0.028076,1.047363,1.954198,2.725191,-0.473282,1.047852,3.386673,675,1213,538,675,0,75.269,8,damping
1780591947.8475528,9.245723900006851,9390,0.035645,-0.012451,1.061279,1.900763,2.435115,-1.007634,1.061951,3.249309,677,1218,541,677,1,75.269,3,damping
1780591947.8652458,9.263416900008451,9421,0.047852,-0.017578,1.055176,1.977099,1.931298,-0.587786,1.056406,2.825655,680,1223,543,680,0,75.269,10,damping
1780591947.895707,9.293878000011318,9452,0.026611,-0.018066,1.049072,1.778626,2.572519,-0.633588,1.049565,3.19105,683,1227,544,683,0,75.269,8,damping
1780591947.928109,9.326280100009171,9483,0.030762,-0.025879,1.056152,1.748092,2.328244,-0.671756,1.056917,2.987943,684,1232,548,684,1,75.269,15,damping
1780591947.9592226,9.35739370000374,9515,0.036377,-0.022217,1.054688,1.564886,2.580153,-1.015267,1.055548,3.183838,686,1235,549,686,0,75.269,8,damping
1780591947.9901974,9.388368600004469,9546,0.04248,-0.030273,1.061768,0.916031,2.748092,-0.40458,1.063048,2.92486,689,1242,553,689,1,75.269,10,damping
1780591948.022382,9.420553200005088,9578,0.038086,-0.022217,1.056885,1.900763,2.992366,-0.396947,1.057804,3.567173,691,1248,557,691,1,71.174,3,damping
1780591948.052295,9.45046610001009,9609,0.051514,-0.028564,1.052246,1.625954,3.21374,-0.381679,1.053893,3.621814,694,1253,559,694,0,71.174,8,damping
1780591948.0836675,9.481838800013065,9640,0.031494,-0.020264,1.059814,1.725191,3.351145,-0.549618,1.060476,3.809008,695,1255,560,695,0,71.174,9,damping
1780591948.114585,9.512756200012518,9671,0.027832,-0.03833,1.046387,1.564886,3.152672,-0.305344,1.047458,3.532908,697,1260,563,697,1,71.174,4,damping
1780591948.1451724,9.543343500001356,9702,0.04126,-0.026123,1.052002,1.229008,3.061069,-0.572519,1.053135,3.347892,702,1267,565,702,0,71.174,9,damping
1780591948.1776702,9.575841400001082,9733,0.052979,-0.034668,1.072022,1.679389,2.824427,-0.343511,1.07389,3.303897,705,1272,567,705,0,71.174,11,damping
1780591948.2097728,9.607944100003806,9765,0.05957,-0.020752,1.05249,1.625954,3.152672,-0.496183,1.054379,3.581796,706,1276,570,706,1,71.174,15,damping
1780591948.2402797,9.638450800004648,9796,0.061035,-0.01001,1.066162,1.51145,3.549618,-0.51145,1.067955,3.891767,708,1279,571,708,0,71.174,9,damping
1780591948.2712028,9.66937410000537,9827,0.025146,-0.026855,1.058838,1.923664,3.381679,-0.687023,1.059477,3.950726,713,1287,574,713,0,71.174,1,damping
1780591948.3024278,9.70059890000266,9859,0.041016,-0.023193,1.051758,1.80916,3.51145,-0.076336,1.052813,3.950844,715,1292,577,715,1,85.409,3,damping
1780591948.3336103,9.73178149999876,9890,0.056152,-0.016357,1.052002,1.053435,3.648855,-0.206107,1.053626,3.803465,718,1297,579,718,0,85.409,9,damping
1780591948.3646338,9.762805100006517,9921,0.060059,-0.02417,1.064453,1.854962,3.435115,-0.374046,1.06642,3.921837,719,1299,580,719,0,85.409,8,damping
1780591948.395644,9.79381510001258,9952,0.049316,-0.011963,1.046631,1.847328,3.824427,-0.053435,1.04786,4.247555,721,1304,583,721,1,85.409,3,damping
1780591948.426204,9.824375200012582,9983,0.04126,-0.005859,1.066406,1.625954,3.267176,-0.610687,1.06722,3.700149,724,1309,585,724,0,85.409,9,damping
1780591948.4570167,9.85518779999984,10014,0.057373,-0.040039,1.062256,2.0,3.167939,-0.137405,1.064557,3.748962,728,1315,587,728,0,85.409,1,damping
1780591948.488429,9.88660019999952,10045,0.048828,-0.020264,1.048096,1.549618,3.458015,-0.580153,1.049428,3.833505,729,1318,589,729,1,85.409,15,damping
1780591948.520425,9.918596300005447,10076,0.043457,-0.031982,1.054199,1.305344,3.977099,-0.358779,1.055579,4.201186,731,1321,590,731,0,85.409,9,damping
1780591948.5508857,9.949056900004507,10107,0.044678,-0.040771,1.060059,2.045802,3.206107,-0.419847,1.061783,3.826316,733,1325,592,733,0,85.409,0,damping
1780591948.582019,9.980190300004324,10138,0.064941,-0.016846,1.061523,1.862595,3.312977,-0.40458,1.063641,3.822141,735,1330,595,735,1,71.685,3,damping
1780591948.611933,10.010104200002388,10169,0.041504,-0.014893,1.053955,1.519084,3.236641,-0.251908,1.054877,3.58426,738,1335,597,738,0,71.685,9,damping
1780591948.6431015,10.041272600006778,10199,0.047607,-0.02002,1.054688,1.045802,2.694656,-0.946565,1.055951,3.041522,739,1337,598,739,0,71.685,8,damping
1780591948.6732953,10.071466400011559,10230,0.021729,-0.031006,1.052246,1.473282,3.312977,-0.824427,1.052927,3.718341,741,1342,601,741,1,71.685,3,damping
1780591948.70452,10.102691200008849,10261,0.024414,-0.013916,1.050781,1.59542,2.70229,-0.725191,1.051157,3.220813,744,1347,603,744,0,71.685,9,damping
1780591948.7357726,10.133943699998781,10292,0.047363,-0.020264,1.052978,1.618321,2.19084,-1.015267,1.054238,2.906804,747,1351,604,747,0,71.685,9,damping
1780591948.7668517,10.165022800007137,10323,0.030273,-0.016113,1.051514,1.78626,2.847328,-0.793893,1.052073,3.453732,748,1356,608,748,1,71.685,14,damping
1780591948.7975228,10.195693900008337,10354,0.029785,-0.019531,1.055908,1.480916,2.526718,-0.78626,1.056509,3.032428,750,1359,609,750,0,71.685,8,damping
1780591948.8293266,10.22749790000671,10385,0.036377,-0.018311,1.060791,1.48855,2.366412,-1.091603,1.061572,3.001214,751,1361,610,751,0,71.685,9,damping
1780591948.858733,10.256904200010467,10416,0.042236,-0.031494,1.053223,1.450382,2.259542,-0.526718,1.05454,2.736159,753,1368,615,753,1,64.748,4,damping
1780591948.8902814,10.288452699998743,10447,0.041504,-0.014648,1.05835,1.732824,2.19084,-0.885496,1.059264,2.930284,756,1373,617,756,0,64.748,8,damping
1780591948.92087,10.319041300012032,10478,0.015869,-0.013428,1.041992,1.59542,2.221374,-0.473282,1.0422,2.775584,757,1375,618,757,0,64.748,9,damping
1780591948.9529293,10.351100400002906,10509,0.047852,-0.02124,1.061768,2.083969,2.435115,-0.679389,1.063057,3.276322,758,1378,620,758,1,64.748,15,damping
1780591948.9838796,10.382050700005493,10540,0.031006,-0.007324,1.061523,1.870229,2.938931,-0.78626,1.062001,3.571173,761,1383,622,761,0,64.748,9,damping
1780591949.014258,10.412429200005135,10571,0.023926,-0.006836,1.041992,1.969466,2.396947,-0.671756,1.042289,3.174178,764,1387,623,764,0,64.748,9,damping
1780591949.0463877,10.444558800008963,10602,0.022705,-0.030273,1.049072,1.755725,2.679389,-0.824427,1.049754,3.307776,765,1392,627,765,1,64.748,15,damping
1780591949.0758762,10.474047399999108,10633,0.046387,-0.013428,1.052246,1.519084,1.801527,-0.89313,1.053354,2.520078,767,1395,628,767,0,64.748,9,damping
1780591949.10755,10.505721100009396,10664,0.020996,-0.013184,1.050537,1.282443,2.419847,-0.931298,1.05083,2.892687,768,1397,629,768,0,64.748,9,damping
1780591949.138401,10.536572299999534,10695,0.035645,-0.043213,1.041016,1.625954,2.740458,-0.763359,1.042522,3.276668,770,1404,634,770,1,60.932,4,damping
1780591949.169094,10.56726520000666,10726,0.026123,-0.01709,1.060059,2.099237,2.259542,-0.862595,1.060518,3.202561,773,1409,636,773,0,60.932,8,damping
1780591949.1996634,10.597834600004717,10757,0.037842,-0.017822,1.065674,1.648855,2.221374,-0.80916,1.066494,2.882354,774,1411,637,774,0,60.932,9,damping
1780591949.2312365,10.629407700005686,10788,0.022705,-0.011963,1.057373,1.832061,2.778626,-0.717557,1.057684,3.404717,775,1414,639,775,1,60.932,15,damping
1780591949.2615016,10.659672800000408,10819,0.029541,-0.019043,1.064697,1.541985,2.70229,-0.908397,1.065277,3.241184,778,1419,641,778,0,60.932,9,damping
1780591949.2932596,10.691430900013074,10850,0.028076,-0.020996,1.056885,1.732824,2.442748,-0.755725,1.057466,3.088822,781,1423,642,781,0,60.932,10,damping
1780591949.3245502,10.722721300000558,10881,0.048584,-0.034668,1.067871,1.732824,2.312977,-0.877863,1.069538,3.020461,784,1432,648,784,1,60.932,4,damping
1780591949.3538992,10.752070500006084,10912,0.035889,-0.006836,1.053711,1.778626,2.198473,-0.618321,1.054344,2.89467,786,1435,649,786,0,60.932,9,damping
1780591949.3864422,10.784613300013007,10942,0.055908,-0.032959,1.071045,1.274809,2.389313,-0.824427,1.073009,2.830836,787,1437,650,787,0,60.932,8,damping
1780591949.4161303,10.814301400008844,10973,0.037598,-0.013916,1.065918,1.625954,2.160305,-1.030534,1.066672,2.893552,789,1444,655,789,1,68.345,3,damping
1780591949.4475746,10.845745900005568,11004,0.020264,-0.016113,1.04834,1.992366,2.618321,-0.145038,1.048659,3.293352,792,1449,657,792,0,68.345,9,damping
1780591949.4795506,10.8777218000032,11036,0.019287,-0.015381,1.051025,1.885496,2.519084,-0.274809,1.051315,3.158544,795,1453,658,795,0,68.345,8,damping
1780591949.5113301,10.909501400004956,11067,0.033203,-0.034912,1.067383,1.610687,2.358779,-0.954198,1.06847,3.011419,796,1456,660,796,1,68.345,15,damping
1780591949.5422566,10.94042780000018,11098,0.031982,-0.023682,1.056641,1.977099,2.244275,-0.564886,1.05739,3.043811,799,1461,662,799,0,68.345,10,damping
1780591949.5744953,10.972666400004528,11130,0.025635,-0.016602,1.057617,1.587786,1.89313,-0.801527,1.058058,2.597586,802,1466,664,802,1,68.345,10,damping
1780591949.6050093,11.00318050000351,11161,0.039307,-0.030518,1.056885,1.396947,2.19084,-0.549618,1.058056,2.655808,804,1472,668,804,1,68.345,3,damping
1780591949.6414258,11.039597000009962,11192,0.040771,-0.015137,1.049561,1.801527,2.587786,-0.374046,1.050461,3.175224,806,1475,669,806,0,68.345,8,damping
1780591949.672914,11.071085100003984,11229,0.037109,-0.011719,1.054932,1.839695,2.80916,-0.603053,1.055649,3.411676,808,1480,672,808,1,74.219,3,damping
1780591949.7034009,11.101571999999578,11261,0.01709,-0.03125,1.044922,2.160305,2.877863,-0.885496,1.045529,3.705822,811,1485,674,811,0,74.219,9,damping
1780591949.7353632,11.133534500011592,11292,0.020996,-0.017334,1.046631,1.465649,2.610687,-0.396947,1.046985,3.020162,813,1489,676,813,0,74.219,8,damping
1780591949.7662194,11.164390600009938,11323,0.043945,-0.019531,1.070068,1.717557,1.969466,-0.679389,1.071148,2.700068,814,1494,680,814,1,74.219,14,damping
1780591949.79922,11.197391200010316,11355,0.026123,-0.01001,1.050537,2.175573,2.480916,-0.580153,1.05091,3.350319,823,1504,681,823,0,74.219,0,damping
1780591949.830266,11.228437100013252,11386,0.03125,-0.010742,1.051514,1.587786,2.679389,-0.870229,1.052033,3.233804,827,1510,683,827,0,74.219,0,damping
1780591949.859711,11.257882000005338,11417,0.039307,-0.028564,1.058594,1.847328,3.114504,-0.916031,1.059708,3.73522,829,1517,688,829,1,74.219,4,damping
1780591949.8916643,11.28983550000703,11448,0.035645,-0.020264,1.054932,2.396947,2.274809,-0.694656,1.055728,3.376782,832,1522,690,832,0,74.219,8,damping
1780591949.9228866,11.321057900000596,11479,0.040283,-0.031738,1.05542,1.312977,2.435115,-0.908397,1.056665,2.911851,833,1524,691,833,0,100.0,9,damping
1780591949.954045,11.35221620000084,11510,0.02124,-0.010498,1.046143,1.335878,2.992366,-1.137405,1.046411,3.468792,835,1529,694,835,1,100.0,4,damping
1780591949.9852803,11.383451500005322,11541,0.021729,-0.023682,1.053467,2.030534,3.129771,-0.793893,1.053957,3.814289,840,1536,696,840,0,100.0,9,damping
1780591950.015601,11.413772200001404,11572,0.023193,-0.018066,1.054199,1.580153,2.610687,-0.916031,1.054609,3.18617,843,1540,697,843,0,100.0,9,damping
1780591950.046911,11.445082100006402,11603,0.041016,-0.02417,1.065186,1.473282,2.900763,-0.549618,1.066249,3.299556,844,1545,701,844,1,100.0,15,damping
1780591950.0776162,11.475787400006084,11634,0.025879,-0.011475,1.046387,2.038168,3.175573,-0.748092,1.04677,3.846821,846,1548,702,846,0,100.0,9,damping
1780591950.1095886,11.50775980000617,11665,0.043701,-0.05249,1.05542,1.862595,2.503817,-0.854962,1.057628,3.235633,847,1550,703,847,0,100.0,8,damping
1780591950.139996,11.538167200007592,11696,0.018799,-0.018066,1.058838,1.244275,2.717557,-1.08397,1.059159,3.17936,849,1557,708,849,1,100.0,3,damping
1780591950.1711876,11.569358799999463,11727,0.043213,-0.022217,1.061523,1.847328,2.717557,-0.51145,1.062635,3.325556,852,1562,710,852,0,100.0,9,damping
1780591950.2017157,11.599886800002423,11758,0.023682,-0.018311,1.041992,1.832061,2.801527,-0.740458,1.042422,3.428305,853,1564,711,853,0,71.685,8,damping
1780591950.2326577,11.630828900000779,11789,0.032715,-0.016846,1.065918,1.51145,2.847328,-0.847328,1.066553,3.333125,854,1567,713,854,1,71.685,15,damping
1780591950.2635198,11.661690900000394,11820,0.047363,-0.034424,1.060059,2.122137,2.877863,-0.633588,1.061674,3.63139,857,1572,715,857,0,71.685,10,damping
1780591950.295537,11.693708100006916,11851,0.038818,-0.020752,1.05542,2.015267,2.603053,-0.59542,1.056337,3.345402,859,1576,717,859,0,71.685,9,damping
1780591950.3253224,11.723493600002257,11882,0.032227,-0.019043,1.05957,1.51145,2.900763,-0.862595,1.060231,3.382748,861,1583,722,861,1,71.685,3,damping
1780591950.3569772,11.755148299998837,11913,0.028564,-0.02417,1.053955,1.755725,2.519084,-1.068702,1.054619,3.251228,863,1586,723,863,0,71.685,9,damping
1780591950.388044,11.78621540000313,11944,0.049316,-0.040527,1.062012,1.679389,2.328244,-0.984733,1.063928,3.034925,866,1590,724,866,0,71.685,8,damping
1780591950.418062,11.816233200006536,11975,0.050293,-0.033203,1.062988,1.312977,3.0,-1.099237,1.064695,3.454306,868,1597,729,868,1,71.685,3,damping
1780591950.449649,11.847820400013006,12006,0.025146,-0.00415,1.054932,1.580153,3.015267,-0.778626,1.055239,3.492131,871,1602,731,871,0,71.685,9,damping
1780591950.480357,11.878528100001859,12037,0.01709,-0.013428,1.044434,1.412214,2.687023,-0.503817,1.04466,3.077056,874,1606,732,874,0,75.269,8,damping
1780591950.5128665,11.911037700003362,12068,0.033936,-0.012451,1.057373,1.870229,2.419847,-0.618321,1.057991,3.120214,876,1611,735,876,1,75.269,3,damping
1780591950.5415785,11.93974960000196,12099,0.028564,-0.006348,1.054199,1.793893,2.923664,-0.519084,1.054605,3.469195,879,1616,737,879,0,75.269,10,damping
1780591950.5736089,11.97178010000789,12130,0.036133,-0.040527,1.062012,1.030534,3.19084,-0.419847,1.063399,3.379309,881,1620,739,881,0,75.269,9,damping
1780591950.6041715,12.002342600011616,12161,0.033691,-0.041016,1.058838,1.610687,2.381679,-1.0,1.060167,3.044127,884,1629,745,884,1,75.269,3,damping
1780591950.6361687,12.034339900012128,12192,0.025635,-0.01416,1.054688,1.564886,2.21374,-0.519084,1.055094,2.760246,893,1639,746,893,0,75.269,0,damping
1780591950.6670613,12.065232400011155,12223,0.021973,-0.025391,1.048096,1.465649,3.022901,-0.656489,1.048633,3.423015,894,1641,747,894,0,75.269,8,damping
1780591950.6983173,12.096488499999396,12254,0.019531,-0.013428,1.051025,1.717557,2.549618,-0.641221,1.051293,3.140338,896,1648,752,896,1,75.269,3,damping
1780591950.7297125,12.127883699999074,12286,0.041504,-0.017822,1.050781,1.931298,2.862595,-0.633588,1.051752,3.510811,899,1653,754,899,0,75.269,8,damping
1780591950.7589407,12.157111900000018,12317,0.027832,-0.015381,1.054443,1.70229,2.0,-0.877863,1.054923,2.769194,904,1659,755,904,0,107.143,8,damping
1780591950.790259,12.18843010001001,12347,0.013428,-0.008057,1.052978,1.480916,2.564885,-0.732824,1.053095,3.05103,905,1662,757,905,1,107.143,15,damping
1780591950.8204386,12.218609700008528,12378,0.0271,-0.019043,1.056152,1.984733,2.59542,-1.0,1.056672,3.416924,908,1667,759,908,0,107.143,9,damping
1780591950.8512802,12.249451300012879,12408,0.052246,-0.024902,1.067383,1.343511,3.274809,-0.641221,1.068951,3.597299,910,1671,761,910,0,107.143,9,damping
1780591950.8836021,12.281773300011992,12439,0.033203,-0.01001,1.05249,1.91603,3.389313,-0.870229,1.053061,3.989476,912,1678,766,912,1,107.143,4,damping
1780591950.91515,12.31332120001025,12471,0.037842,-0.017578,1.055908,2.083969,2.557252,-0.877863,1.056732,3.413665,924,1691,767,924,0,107.143,0,damping
1780591950.9460752,12.34424650001165,12503,0.018066,-0.020508,1.047852,2.114504,2.450382,-0.694656,1.048208,3.310294,925,1693,768,925,0,107.143,9,damping
1780591950.9778512,12.376022299999022,12534,0.036865,-0.025146,1.054443,1.465649,3.465649,-1.251908,1.055387,3.965618,927,1700,773,927,1,107.143,4,damping
1780591951.0112145,12.409385600010864,12565,0.052734,-0.032715,1.069824,1.679389,3.053435,-1.030534,1.071623,3.633981,930,1705,775,930,0,107.143,9,damping
1780591951.040042,12.43821310000203,12596,0.053711,-0.045898,1.056641,1.549618,2.770992,-0.954198,1.059,3.315148,933,1709,776,933,0,103.943,9,damping
1780591951.0715096,12.469680700000026,12627,0.027588,-0.025635,1.057129,1.366412,3.374046,-1.068702,1.057799,3.793862,934,1712,778,934,1,103.943,15,damping
1780591951.1020825,12.500253600010183,12658,0.026123,-0.02124,1.05542,1.549618,2.381679,-0.587786,1.055957,2.901587,939,1719,780,939,0,103.943,1,damping
1780591951.1345637,12.532734799999162,12690,0.037598,-0.037109,1.050049,1.80916,2.274809,-0.572519,1.051377,2.962363,942,1724,782,942,1,103.943,10,damping
1780591951.1659415,12.564112600011867,12722,0.042725,-0.010986,1.056152,1.709924,3.389313,-0.740458,1.057073,3.867759,944,1730,786,944,1,103.943,3,damping
1780591951.1973445,12.595515799999703,12753,0.037354,-0.026367,1.053711,1.900763,2.954198,-0.351145,1.054702,3.530367,946,1733,787,946,0,103.943,9,damping
1780591951.2294672,12.627638300007675,12785,0.050293,-0.042969,1.070557,2.206107,3.412214,-0.274809,1.072598,4.072546,948,1737,789,948,0,103.943,1,damping
1780591951.2595801,12.657751400009147,12816,0.050537,-0.021484,1.062988,1.305344,3.022901,-0.977099,1.064406,3.434614,950,1742,792,950,1,103.943,3,damping
1780591951.291413,12.689584300009301,12847,0.054199,-0.026367,1.056396,1.08397,2.89313,-0.473282,1.058114,3.12557,953,1747,794,953,0,79.681,9,damping
1780591951.3232138,12.72138490001089,12879,0.063232,-0.035889,1.066406,1.91603,3.167939,-0.572519,1.068882,3.746303,954,1751,797,954,0,79.681,8,damping
1780591951.35511,12.753281199999037,12911,0.052002,-0.0271,1.047119,2.045802,2.984733,-0.679389,1.04876,3.68178,956,1762,806,956,1,79.681,0,damping
1780591951.3864741,12.784645200008526,12942,0.03833,-0.015381,1.057373,1.022901,3.091603,-0.442748,1.058179,3.28639,960,1767,807,960,0,79.681,9,damping
1780591951.4160762,12.814247300004354,12973,0.039795,-0.023438,1.053467,1.419847,3.679389,-0.519084,1.054479,3.977854,962,1774,812,962,1,79.681,4,damping
1780591951.4480698,12.846240900005796,13004,0.036133,-0.019043,1.054932,1.961832,2.763359,-0.534351,1.055722,3.430812,964,1778,814,964,1,79.681,3,damping
1780591951.4788842,12.87705530000676,13035,0.050537,-0.033203,1.061768,0.977099,3.526718,-0.80916,1.063488,3.74796,967,1783,816,967,0,79.681,9,damping
1780591951.5093355,12.907506700008526,13066,0.048828,-0.030518,1.057129,1.755725,3.519084,-0.129771,1.058696,3.93489,969,1787,818,969,1,79.681,0,damping
1780591951.5404918,12.938663000008091,13097,0.037842,-0.019775,1.04834,2.19084,2.671756,-0.396947,1.049209,3.477876,972,1792,820,972,1,76.0,3,damping
1780591951.571972,12.970143099999405,13128,0.044189,-0.018311,1.054443,1.030534,3.572519,-0.549618,1.055528,3.758587,975,1797,822,975,0,76.0,10,damping
1780591951.601825,12.99999630000093,13159,0.051758,-0.044434,1.059082,1.603053,3.29771,-0.603053,1.061277,3.715958,977,1803,826,977,0,76.0,0,damping
1780591951.6328404,13.031011600003694,13189,0.034912,-0.019775,1.04834,2.51145,2.80916,-0.091603,1.049107,3.769238,979,1806,827,979,1,76.0,14,damping
1780591951.6640077,13.062178799998946,13220,0.048828,-0.011963,1.059326,1.122137,3.145038,-0.801527,1.060518,3.43408,981,1809,828,981,0,76.0,9,damping
1780591951.6950953,13.093266500000027,13251,0.040771,-0.013916,1.048584,1.954198,3.48855,-0.137405,1.049468,4.000969,983,1815,832,983,0,76.0,1,damping
1780591951.7260187,13.12418980000075,13282,0.049805,-0.016846,1.058106,2.229008,4.152672,-0.740458,1.059411,4.770894,985,1820,835,985,1,76.0,3,damping
1780591951.7561877,13.154358900006628,13313,0.020996,-0.019043,1.053223,1.580153,2.854962,-0.450382,1.053604,3.294015,989,1825,836,989,0,76.0,9,damping
1780591951.7866333,13.184804500007886,13344,0.065674,-0.036133,1.064453,2.40458,3.435115,-0.374046,1.067089,4.209742,990,1827,837,990,0,76.0,8,damping
1780591951.817962,13.216133100009756,13374,0.04541,-0.020264,1.0625,1.946565,3.083969,-0.648855,1.063663,3.704186,992,1832,840,992,1,72.202,3,damping
1780591951.8477929,13.245964100002311,13405,0.06665,-0.01709,1.061768,1.206107,3.076336,-0.748092,1.063995,3.387946,995,1837,842,995,0,72.202,9,damping
1780591951.9013238,13.299495100000058,13436,0.058594,-0.032715,1.064209,1.763359,3.396947,-0.48855,1.066323,3.858414,999,1843,844,999,0,72.202,1,damping
1780591951.910956,13.309127000000444,13468,0.061279,-0.028564,1.053467,2.442748,3.458015,-0.648855,1.055634,4.283212,1000,1846,846,1000,1,72.202,14,damping
1780591951.943012,13.341183299999102,13499,0.037842,-0.009277,1.05127,1.274809,3.038168,0.091603,1.051991,3.296058,1002,1849,847,1002,0,72.202,8,damping
1780591951.9737062,13.371877500001574,13530,0.042969,-0.029785,1.060547,1.969466,3.335878,-0.251908,1.061835,3.882053,1004,1855,851,1004,0,72.202,1,damping
1780591952.0048761,13.403047400002833,13561,0.038818,-0.022461,1.050781,2.328244,3.496183,-0.610687,1.051738,4.244638,1006,1860,854,1006,1,72.202,3,damping
1780591952.0360596,13.434230900005787,13592,0.047363,-0.02002,1.056396,0.977099,3.251908,-0.992366,1.057647,3.537573,1009,1865,856,1009,0,72.202,8,damping
1780591952.0673869,13.465558000010788,13623,0.056641,-0.026611,1.053955,1.709924,3.679389,-0.290076,1.055811,4.067664,1010,1867,857,1010,0,72.202,9,damping
1780591952.0977237,13.495895000000019,13654,0.043457,-0.027588,1.05127,2.015267,3.458015,-0.442748,1.052529,4.02681,1012,1872,860,1012,1,71.429,4,damping
1780591952.1286192,13.526790300005814,13685,0.05542,-0.015625,1.060547,1.221374,3.045802,-0.870229,1.062109,3.39499,1017,1879,862,1017,0,71.429,9,damping
1780591952.1608982,13.559069300012197,13716,0.062988,-0.023193,1.063477,1.564886,3.328244,-0.343511,1.065593,3.693789,1019,1885,866,1019,0,71.429,1,damping
1780591952.1923785,13.590549700005795,13748,0.062744,-0.025146,1.058838,2.381679,2.694656,-0.351145,1.060993,3.613429,1021,1888,867,1021,1,71.429,15,damping
1780591952.2232676,13.621438700007275,13779,0.024902,-0.011719,1.049072,1.206107,3.328244,-0.396947,1.049433,3.562228,1023,1891,868,1023,0,71.429,9,damping
1780591952.253546,13.651717300002929,13810,0.047607,-0.027344,1.061523,1.48855,3.351145,-0.618321,1.062942,3.718639,1025,1895,870,1025,0,71.429,1,damping
1780591952.2835732,13.68174440000439,13841,0.050537,-0.0271,1.054443,2.374046,2.59542,-0.282443,1.056001,3.528749,1027,1900,873,1027,1,71.429,4,damping
1780591952.3143947,13.71256590000121,13871,0.051025,-0.019287,1.062744,1.160305,3.412214,-0.572519,1.064143,3.649286,1030,1905,875,1030,0,71.429,9,damping
1780591952.3448262,13.742997300010757,13902,0.050537,-0.034668,1.056885,1.89313,2.80916,-0.335878,1.05866,3.404135,1031,1907,876,1031,0,71.429,8,damping
1780591952.3771105,13.775281599999289,13933,0.049316,-0.018555,1.056885,1.862595,3.137405,-0.374046,1.058197,3.667762,1032,1910,878,1032,1,71.685,15,damping
1780591952.407602,13.805773200001568,13964,0.040039,-0.008789,1.060791,0.992366,3.152672,-0.656489,1.061583,3.369734,1035,1915,880,1035,0,71.685,10,damping
1780591952.4392505,13.837421700009145,13995,0.04126,-0.044434,1.064209,1.763359,3.343511,-0.625954,1.065935,3.831491,1039,1921,882,1039,0,71.685,0,damping
1780591952.4705744,13.868745600004331,14026,0.041748,-0.026367,1.056152,2.381679,2.954198,-0.816794,1.057306,3.881602,1040,1924,884,1040,1,71.685,15,damping
1780591952.502734,13.900905200003763,14058,0.029053,-0.013428,1.057861,1.572519,3.290076,-0.801527,1.058345,3.733612,1042,1927,885,1042,0,71.685,9,damping
1780591952.5330462,13.931217400007881,14089,0.0625,-0.030273,1.056641,1.603053,3.022901,-0.648855,1.05892,3.482632,1044,1931,887,1044,0,71.685,0,damping
1780591952.564993,13.96316410000145,14120,0.036865,-0.019043,1.044189,1.633588,3.610687,-0.656489,1.045013,4.017044,1046,1936,890,1046,1,71.685,3,damping
1780591952.5952213,13.993392500007758,14151,0.043701,-0.0271,1.058838,1.740458,2.870229,-0.633588,1.060086,3.415969,1049,1941,892,1049,0,71.685,9,damping
1780591952.6261475,14.02431880000222,14182,0.05127,-0.032471,1.056641,1.564886,3.664122,-0.725191,1.058382,4.04976,1050,1945,895,1050,0,71.685,7,damping
1780591952.6576831,14.055854300007923,14213,0.061523,-0.026123,1.054443,2.122137,2.908397,-0.641221,1.05656,3.656967,1052,1948,896,1052,1,71.429,14,damping
1780591952.6888182,14.086989500006894,14245,0.057617,-0.026367,1.056396,1.328244,3.267176,-0.839695,1.058295,3.625432,1055,1953,898,1055,0,71.429,10,damping
1780591952.719878,14.118049100012286,14276,0.044678,-0.030029,1.05835,1.366412,4.167938,-0.396947,1.059718,4.40413,1057,1960,903,1057,1,71.429,4,damping
1780591952.751449,14.149620399999549,14308,0.048584,-0.025879,1.05542,1.80916,3.740458,-0.610687,1.056854,4.199646,1066,1971,905,1066,0,71.429,0,damping
1780591952.7829554,14.181126600000425,14339,0.052002,-0.005859,1.066406,1.435114,3.160305,-0.229008,1.067689,3.478438,1067,1973,906,1067,0,71.429,9,damping
1780591952.8130572,14.211228300002404,14370,0.031738,-0.016357,1.053711,1.717557,3.312977,-0.80916,1.054316,3.81845,1069,1978,909,1069,1,71.429,4,damping
1780591952.8449707,14.243141900005867,14401,0.046875,-0.039062,1.079346,1.992366,2.954198,-0.59542,1.081069,3.612663,1071,1982,911,1071,1,71.429,4,damping
1780591952.8758821,14.27405340000405,14432,0.060303,-0.024414,1.064697,1.244275,3.053435,-0.603053,1.066683,3.351919,1074,1987,913,1074,0,71.429,9,damping
1780591952.9071763,14.305347500005155,14463,0.038818,-0.006836,1.056885,1.694656,3.160305,-0.763359,1.057619,3.666348,1075,1992,917,1075,1,92.0,15,damping
1780591952.939792,14.337963000012678,14495,0.026123,-0.019531,1.053223,1.450382,2.564885,-0.801527,1.053728,3.053636,1087,2005,918,1087,0,92.0,0,damping
1780591952.9708307,14.369001800005208,14527,0.049561,-0.025391,1.062256,1.671756,2.778626,-0.625954,1.063714,3.302628,1090,2009,919,1090,0,92.0,9,damping
1780591953.00218,14.400351200005389,14558,0.02417,-0.021484,1.046143,1.717557,2.725191,-1.145038,1.046642,3.41874,1092,2016,924,1092,1,92.0,4,damping
1780591953.0322635,14.430434800000512,14589,0.039062,-0.011719,1.0625,1.465649,2.816794,-0.801527,1.063282,3.274889,1095,2021,926,1095,0,92.0,8,damping
1780591953.0618246,14.459995700002764,14619,0.035889,-0.021729,1.055664,1.687023,2.59542,-0.564886,1.056497,3.14664,1096,2023,927,1096,0,92.0,9,damping
1780591953.0932631,14.49143430001277,14649,0.03833,-0.011963,1.058594,1.763359,2.89313,-0.78626,1.059355,3.478195,1098,2028,930,1098,1,92.0,4,damping
1780591953.1241448,14.522315900001558,14680,0.040283,-0.016846,1.059814,1.908397,2.603053,-1.091603,1.060714,3.407266,1101,2033,932,1101,0,92.0,9,damping
1780591953.154497,14.552668000003905,14711,0.043701,-0.006592,1.057129,1.29771,3.374046,-0.412214,1.058052,3.638428,1103,2037,934,1103,0,92.0,9,damping
1780591953.1847968,14.5829681000032,14741,0.042969,-0.015625,1.054443,1.748092,3.40458,-0.282443,1.055434,3.837546,1104,2042,938,1104,1,104.317,15,damping
1780591953.2173815,14.615552700008266,14773,0.049805,-0.025146,1.065186,2.335878,3.160305,-0.21374,1.066646,3.935675,1114,2053,939,1114,0,104.317,0,damping
1780591953.25003,14.648201200005133,14805,0.040283,-0.028076,1.051758,0.854962,2.885496,-0.793893,1.052903,3.112445,1115,2055,940,1115,0,104.317,9,damping
1780591953.2796438,14.677814900001977,14836,0.047363,-0.008057,1.076904,1.305344,2.625954,-0.824427,1.077975,3.046184,1117,2062,945,1117,1,104.317,4,damping
1780591953.3126504,14.710821700005908,14868,0.021729,-0.014893,1.059326,1.656489,3.183206,-0.694656,1.059654,3.655038,1127,2074,947,1127,0,104.317,0,damping
1780591953.3440504,14.742221700013033,14899,0.026611,-0.026367,1.056641,1.396947,2.862595,-0.709924,1.057304,3.263419,1128,2076,948,1128,0,104.317,9,damping
1780591953.37517,14.773341200008872,14930,0.03833,-0.033691,1.050781,1.458015,3.396947,-0.587786,1.05202,3.743066,1130,2081,951,1130,1,104.317,4,damping
1780591953.4066706,14.804841700010002,14962,0.027588,-0.015625,1.054199,1.618321,3.167939,-0.923664,1.054676,3.675317,1133,2086,953,1133,0,104.317,9,damping
1780591953.4376204,14.835791600009543,14993,0.037598,-0.030762,1.064209,1.267176,2.541985,-1.08397,1.065317,3.040133,1136,2091,955,1136,1,126.984,11,damping
1780591953.4698014,14.867972700012615,15025,0.037598,-0.033203,1.064209,1.78626,3.480916,-0.916031,1.06539,4.018285,1137,2095,958,1137,1,126.984,15,damping
1780591953.498978,14.897149200012791,15056,0.043701,-0.023438,1.052002,1.587786,2.801527,-0.572519,1.05317,3.270687,1139,2098,959,1139,0,126.984,9,damping
1780591953.5324829,14.930654100011452,15087,0.046387,-0.032959,1.06665,1.78626,2.610687,-0.664122,1.068167,3.232254,1141,2102,961,1141,0,126.984,0,damping
1780591953.5625038,14.960674900008598,15119,0.046631,-0.008545,1.050537,1.770992,3.274809,-0.412214,1.051606,3.745759,1143,2107,964,1143,1,126.984,3,damping
1780591953.5934527,14.991623800000525,15150,0.043457,-0.014893,1.059082,0.870229,2.862595,-0.59542,1.060078,3.050619,1146,2112,966,1146,0,126.984,9,damping
1780591953.6249008,15.023072100011632,15181,0.04248,-0.025146,1.069092,1.931298,2.908397,-0.435114,1.070231,3.518239,1147,2114,967,1147,0,126.984,8,damping
1780591953.6574147,15.05558590000146,15213,0.04248,-0.022461,1.055176,2.183206,3.167939,-0.572519,1.056269,3.889731,1149,2119,970,1149,1,126.984,3,damping
1780591953.6873462,15.085517300001811,15244,0.022949,-0.007813,1.049805,1.396947,2.923664,-0.70229,1.050085,3.315492,1152,2124,972,1152,0,63.745,10,damping
1780591953.718798,15.116969100010465,15274,0.028076,-0.017822,1.054199,1.801527,2.938931,-0.564886,1.054724,3.493123,1154,2130,976,1154,0,63.745,0,damping
1780591953.7500064,15.148177600000054,15306,0.04834,-0.02417,1.063965,2.816794,3.381679,-0.152672,1.065337,4.403793,1155,2133,978,1155,1,63.745,15,damping
1780591953.7820148,15.180186100013088,15337,0.033447,-0.020264,1.055908,1.381679,3.076336,-0.526718,1.056632,3.413256,1157,2136,979,1157,0,63.745,9,damping
1780591953.8116417,15.209812800007057,15368,0.058838,-0.038574,1.064453,2.137405,2.564885,-0.740458,1.066776,3.419856,1159,2140,981,1159,0,63.745,0,damping
1780591953.8435192,15.241690400012885,15399,0.04541,-0.011719,1.049805,2.152672,3.496183,-0.687023,1.050852,4.162846,1161,2145,984,1161,1,63.745,3,damping
1780591953.8747265,15.272897700007888,15430,0.025391,-0.002441,1.057861,0.984733,2.824427,-0.709924,1.058169,3.074261,1164,2150,986,1164,0,63.745,9,damping
1780591953.9047613,15.302932600010536,15461,0.033203,-0.010742,1.056396,1.633588,3.137405,-0.564886,1.056973,3.58204,1165,2154,989,1165,0,63.745,7,damping
1780591953.9369678,15.335139100003289,15492,0.03833,-0.022949,1.054443,2.236641,2.755725,-0.358779,1.055389,3.567255,1167,2157,990,1167,1,63.745,14,damping
1780591953.9662144,15.36438550001185,15524,0.041504,-0.009766,1.059082,1.267176,3.496183,-0.51145,1.05994,3.753746,1171,2164,993,1171,0,67.857,0,damping
1780591953.9993536,15.397524800006067,15554,0.050049,-0.018066,1.060547,1.832061,3.083969,-0.328244,1.061881,3.602091,1173,2170,997,1173,0,67.857,0,damping
1780591954.0279982,15.426169500002288,15585,0.037842,-0.018066,1.044922,2.59542,3.679389,-0.198473,1.045763,4.50705,1176,2175,999,1176,1,67.857,4,damping
1780591954.0581985,15.456369700012146,15615,0.05835,-0.019531,1.063965,1.312977,2.343511,-0.687023,1.065743,2.772716,1178,2178,1000,1178,0,67.857,9,damping
1780591954.089329,15.487500100003672,15646,0.027588,-0.02124,1.052002,2.10687,3.206107,-0.396947,1.052578,3.856889,1179,2180,1001,1179,0,67.857,9,damping
1780591954.1189914,15.517162500007544,15677,0.047852,-0.016846,1.059326,2.0,3.625954,-0.572519,1.06054,4.18035,1181,2185,1004,1181,1,67.857,4,damping
1780591954.1511886,15.549359800003003,15707,0.058594,-0.015869,1.058106,1.885496,3.206107,-0.427481,1.059845,3.743923,1184,2190,1006,1184,0,67.857,9,damping
1780591954.1816037,15.57977490000485,15738,0.023193,-0.029053,1.062256,2.137405,3.0,-0.709924,1.062906,3.751332,1187,2194,1007,1187,0,67.857,9,damping
1780591954.2134902,15.611661400005687,15769,0.050781,-0.020508,1.061523,1.908397,2.961832,-1.076336,1.062935,3.684146,1188,2197,1009,1188,1,67.857,15,damping
1780591954.2441518,15.642323000007309,15800,0.050781,-0.025146,1.061035,1.648855,2.694656,-0.671756,1.062547,3.22973,1192,2202,1010,1192,0,76.087,9,damping
1780591954.2755728,15.673743899998954,15831,0.052734,-0.037109,1.055908,1.519084,2.969466,-0.816794,1.057875,3.43402,1196,2208,1012,1196,0,76.087,0,damping
1780591954.3076146,15.705785700003617,15863,0.060791,-0.032959,1.055176,2.137405,3.351145,-0.59542,1.057439,4.019104,1198,2213,1015,1198,1,76.087,4,damping
1780591954.338171,15.73634210000455,15894,0.036865,-0.02124,1.044434,1.312977,2.984733,-0.564886,1.0453,3.309326,1202,2218,1016,1202,0,76.087,8,damping
1780591954.3691747,15.76734600000782,15925,0.038818,-0.023926,1.057861,1.862595,2.587786,-0.534351,1.058844,3.232867,1205,2222,1017,1205,0,76.087,0,damping
1780591954.4013338,15.79950490000192,15957,0.043213,-0.022461,1.052002,2.007634,3.038168,-0.145038,1.053129,3.644461,1207,2227,1020,1207,1,76.087,4,damping
1780591954.4327562,15.830927400005748,15988,0.028076,-0.020752,1.059326,1.030534,3.687023,-0.656489,1.059901,3.884214,1210,2232,1022,1210,0,76.087,9,damping
1780591954.4628482,15.861019400006626,16019,0.051514,-0.018799,1.056152,1.603053,3.251908,-0.832061,1.057575,3.719814,1212,2238,1026,1212,0,76.087,0,damping
1780591954.4958942,15.894065300002694,16051,0.041992,-0.019043,1.053467,1.694656,3.465649,-0.687023,1.054475,3.918492,1214,2247,1033,1214,1,87.649,0,damping
1780591954.526347,15.924518100000569,16082,0.029053,-0.010742,1.060547,1.48855,3.580153,-0.29771,1.060999,3.88869,1216,2250,1034,1216,0,87.649,9,damping
1780591954.5563946,15.954565700012608,16113,0.033203,-0.035645,1.05835,1.59542,3.206107,-0.251908,1.05947,3.589978,1218,2257,1039,1218,1,87.649,4,damping
1780591954.5872774,15.985448600011296,16143,0.049316,-0.018066,1.050293,2.21374,3.076336,-0.961832,1.051605,3.910193,1220,2261,1041,1220,1,87.649,4,damping
1780591954.6186419,16.01681300000928,16174,0.02124,-0.019775,1.045166,1.435114,2.755725,-0.557252,1.045569,3.156597,1225,2268,1043,1225,0,87.649,9,damping
1780591954.6481605,16.04633160000958,16205,0.049072,-0.03125,1.051025,1.450382,3.328244,-0.59542,1.052634,3.679041,1226,2270,1044,1226,0,87.649,8,damping
1780591954.6802497,16.078420900012134,16236,0.047119,-0.01709,1.049561,1.969466,3.007634,-0.480916,1.050757,3.627111,1228,2275,1047,1228,1,87.649,3,damping
1780591954.710098,16.10826910000469,16267,0.040771,-0.005615,1.048828,1.137405,2.473282,-0.389313,1.049635,2.749978,1231,2280,1049,1231,0,87.649,10,damping
1780591954.7422462,16.14041730000463,16298,0.027832,-0.022217,1.054932,1.992366,3.564885,-0.755725,1.055532,4.153198,1233,2286,1053,1233,0,87.649,0,damping
1780591954.7732353,16.171406600013142,16329,0.046875,-0.039307,1.046875,2.412214,2.717557,-0.389313,1.048661,3.654512,1235,2289,1054,1235,1,75.54,14,damping
1780591954.8048112,16.20298250000633,16360,0.042969,-0.019531,1.053223,1.221374,2.885496,-0.877863,1.05428,3.253995,1237,2292,1055,1237,0,75.54,9,damping
1780591954.8337708,16.231941900012316,16391,0.039307,-0.025879,1.049561,2.0,3.358779,-0.442748,1.050615,3.934135,1239,2298,1059,1239,0,75.54,1,damping
1780591954.8675773,16.26574860000983,16421,0.05127,-0.030762,1.059082,1.610687,3.48855,-0.48855,1.060768,3.873367,1241,2303,1062,1241,1,75.54,3,damping
1780591954.9026353,16.30080650000309,16452,0.053223,-0.009521,1.055664,1.061069,3.068702,-0.625954,1.057048,3.306754,1244,2308,1064,1244,0,75.54,8,damping
1780591954.9270558,16.325227000008454,16483,0.032471,-0.024414,1.062012,1.633588,3.221374,-0.770992,1.062788,3.693276,1245,2310,1065,1245,0,75.54,8,damping
1780591954.9580016,16.35617290000664,16514,0.05542,-0.02417,1.060791,2.335878,3.083969,-0.580153,1.062513,3.912003,1247,2315,1068,1247,1,75.54,3,damping
1780591954.9896252,16.38779630001227,16545,0.053223,-0.025879,1.056152,1.206107,2.419847,-0.793893,1.057809,2.817911,1252,2322,1070,1252,0,75.54,10,damping
1780591955.020786,16.418957200003206,16576,0.046875,-0.035645,1.057861,1.580153,3.030534,-0.625954,1.059499,3.474599,1255,2328,1073,1255,0,75.54,0,damping
1780591955.0498862,16.448057500005234,16607,0.032959,-0.007324,1.049316,2.114504,3.0,-0.427481,1.049859,3.695114,1256,2331,1075,1256,1,75.54,15,damping
1780591955.081899,16.480070100005833,16637,0.051758,-0.02417,1.050049,1.778626,3.381679,-0.496183,1.051601,3.852981,1258,2334,1076,1258,0,75.54,9,damping
1780591955.1123106,16.510481900011655,16668,0.030762,-0.030029,1.056396,2.167939,3.091603,-0.770992,1.057271,3.853881,1260,2338,1078,1260,0,75.54,0,damping
1780591955.1444626,16.542633800010663,16700,0.05835,-0.031738,1.061523,1.267176,3.503817,-0.221374,1.0636,3.732489,1262,2343,1081,1262,1,75.54,3,damping
1780591955.1756842,16.57385540001269,16731,0.038818,-0.016357,1.053223,0.770992,2.900763,-0.587786,1.054065,3.058488,1265,2348,1083,1265,0,75.54,9,damping
1780591955.2067363,16.60490760000539,16762,0.042969,-0.032471,1.064209,1.374046,2.862595,-0.320611,1.065571,3.191433,1266,2350,1084,1266,0,75.54,8,damping
1780591955.242667,16.640838100007386,16793,0.053711,-0.012695,1.059326,1.91603,3.458015,-0.496183,1.060763,3.984374,1268,2355,1087,1268,1,75.54,3,damping
1780591955.2740042,16.67217530000198,16830,0.03125,-0.039307,1.064453,1.053435,2.839695,-1.19084,1.065637,3.254488,1273,2362,1089,1273,0,75.54,1,damping
1780591955.3064706,16.704641800009995,16861,0.052246,-0.017822,1.054443,1.91603,3.419847,-0.89313,1.055887,4.020474,1275,2367,1092,1275,1,74.803,4,damping
1780591955.3359299,16.734101000009105,16892,0.033936,-0.025635,1.044189,1.709924,3.442748,-0.580153,1.045055,3.887535,1279,2372,1093,1279,0,74.803,8,damping
1780591955.3672018,16.76537290000124,16923,0.028076,-0.029297,1.049316,1.694656,3.099237,-0.931298,1.050101,3.653005,1281,2376,1095,1281,0,74.803,0,damping
1780591955.3989954,16.797166700009257,16955,0.04126,-0.016846,1.059082,2.465649,3.389313,-0.450382,1.060019,4.215414,1283,2381,1098,1283,1,74.803,4,damping
1780591955.4300966,16.82826790001127,16986,0.0625,-0.023926,1.060547,1.610687,3.343511,-0.496183,1.062656,3.744273,1286,2386,1100,1286,0,74.803,9,damping
1780591955.461211,16.859382100010407,17016,0.03833,-0.043701,1.057617,1.038168,3.160305,-1.030534,1.059213,3.482431,1293,2394,1101,1293,0,74.803,0,damping
1780591955.492218,16.89038910000818,17048,0.039062,-0.000732,1.051758,1.877863,3.21374,-0.770992,1.052483,3.801174,1294,2397,1103,1294,1,74.803,14,damping
1780591955.523632,16.921803300007014,17079,0.039062,-0.018066,1.05127,0.954198,2.885496,-0.381679,1.05215,3.063048,1296,2400,1104,1296,0,74.803,8,damping
1780591955.55473,16.95290110001224,17110,0.0354,-0.031982,1.0625,1.427481,3.10687,-0.641221,1.06357,3.478722,1299,2406,1107,1299,0,74.803,1,damping
1780591955.5847588,16.982930000012857,17141,0.055908,-0.031494,1.0625,2.076336,3.007634,-0.679389,1.064436,3.717338,1301,2411,1110,1301,1,92.857,3,damping
1780591955.6149514,17.0131226000085,17171,0.041992,-0.03125,1.054443,1.709924,3.305344,-0.671756,1.055742,3.781586,1304,2416,1112,1304,0,92.857,8,damping
1780591955.6449435,17.04311470000539,17201,0.033691,0.004395,1.064941,1.160305,3.465649,-1.145038,1.065483,3.829901,1305,2418,1113,1305,0,92.857,9,damping
1780591955.6754742,17.073645399999805,17232,0.018799,-0.022949,1.055908,1.557252,3.030534,-1.045802,1.056325,3.564109,1307,2423,1116,1307,1,92.857,3,damping
1780591955.7069106,17.10508180000761,17263,0.055664,-0.03125,1.061768,2.29771,3.10687,-0.656489,1.063685,3.919578,1312,2430,1118,1312,0,92.857,9,damping
1780591955.7368524,17.13502359999984,17293,0.032715,-0.027344,1.044434,1.114504,3.465649,-0.770992,1.045304,3.721192,1314,2434,1120,1314,0,92.857,9,damping
1780591955.7685318,17.166702900009113,17324,0.029541,-0.016846,1.058838,1.396947,3.145038,-0.938931,1.059384,3.567116,1315,2439,1124,1315,1,92.857,15,damping
1780591955.7989404,17.19711150000512,17356,0.050049,-0.041504,1.056152,2.671756,2.961832,-0.778626,1.058152,4.06411,1324,2449,1125,1324,0,92.857,0,damping
1780591955.8311617,17.229332900009467,17387,0.059082,-0.025635,1.0625,1.587786,3.137405,-0.969466,1.06445,3.647498,1327,2455,1128,1327,0,92.857,0,damping
1780591955.8618007,17.259971899999073,17418,0.03125,-0.005615,1.05542,1.290076,2.763359,-0.793893,1.055897,3.151304,1329,2462,1133,1329,1,101.083,4,damping
1780591955.8930311,17.29120220000914,17449,0.038818,-0.025391,1.052734,1.824428,2.801527,-0.59542,1.053756,3.395823,1339,2474,1135,1339,0,101.083,0,damping
1780591955.9244492,17.322620400009328,17480,0.033936,-0.023193,1.046387,1.587786,2.763359,-0.59542,1.047194,3.242182,1340,2476,1136,1340,0,101.083,9,damping
1780591955.9553742,17.353545400008443,17511,0.039307,-0.004395,1.05249,1.618321,3.076336,-1.045802,1.053233,3.629946,1342,2481,1139,1342,1,101.083,3,damping
1780591955.9869852,17.385156500007724,17542,0.018555,-0.022217,1.061279,1.854962,3.038168,-0.824427,1.061674,3.653906,1345,2486,1141,1345,0,101.083,9,damping
1780591956.0164375,17.41460870001174,17573,0.05249,-0.032227,1.056396,2.183206,2.89313,-0.618321,1.058191,3.676807,1348,2490,1142,1348,0,101.083,9,damping
1780591956.0480452,17.446216299998923,17604,0.041748,-0.034668,1.059814,1.610687,2.51145,-0.580153,1.061203,3.039453,1349,2495,1146,1349,1,101.083,15,damping
1780591956.079423,17.47759410001163,17635,0.055664,-0.020264,1.059082,1.549618,3.29771,-0.687023,1.060737,3.707858,1351,2498,1147,1351,0,101.083,9,damping
1780591956.1108932,17.50906450000184,17666,0.032227,-0.02417,1.047119,1.80916,2.900763,-0.824427,1.047894,3.516699,1353,2502,1149,1353,0,101.083,8,damping
1780591956.1418934,17.54006460000528,17697,0.022461,-0.026855,1.043213,1.526718,3.122137,-1.030534,1.0438,3.624998,1355,2509,1154,1355,1,93.19,3,damping
1780591956.171816,17.569987200011383,17728,0.034912,-0.01001,1.061279,2.022901,2.282443,-1.0,1.0619,3.209622,1358,2514,1156,1358,0,93.19,9,damping
1780591956.2029724,17.60114370001247,17758,0.028076,-0.018311,1.062012,1.282443,3.030534,-0.671756,1.06254,3.358579,1359,2516,1157,1359,0,93.19,8,damping
1780591956.2332668,17.631437900010496,17789,0.03833,-0.009766,1.060059,1.618321,2.358779,-0.770992,1.060796,2.962639,1361,2521,1160,1361,1,93.19,3,damping
1780591956.2652247,17.663395900002797,17820,0.04248,-0.016113,1.057617,1.954198,2.687023,-1.099237,1.058593,3.499615,1364,2526,1162,1364,0,93.19,10,damping
1780591956.2942288,17.692399899999145,17851,0.032715,-0.007324,1.063965,1.412214,3.396947,-0.603053,1.064493,3.727904,1366,2530,1164,1366,0,93.19,9,damping
1780591956.3245287,17.72269990001223,17882,0.029785,-0.013672,1.057861,1.0,3.091603,-1.0,1.058369,3.399707,1368,2537,1169,1368,1,93.19,3,damping
1780591956.3572679,17.75543910000124,17913,0.04126,-0.019531,1.057861,2.091603,2.526718,-0.610687,1.058846,3.336472,1381,2551,1170,1381,0,93.19,0,damping
1780591956.3885195,17.78669069999887,17945,0.03125,-0.029297,1.046875,1.625954,2.740458,-0.687023,1.047751,3.25973,1383,2555,1172,1383,0,93.19,8,damping
1780591956.4204586,17.818629700006568,17975,0.029053,-0.010254,1.05542,1.496183,2.267176,-0.671756,1.055869,2.798197,1385,2562,1177,1385,1,107.914,3,damping
1780591956.4517517,17.84992290000082,18007,0.064453,-0.023682,1.060303,1.358779,3.175573,-0.89313,1.062524,3.567664,1388,2567,1179,1388,0,107.914,9,damping
1780591956.4836419,17.881812999999966,18039,0.041504,-0.024658,1.056641,1.816794,2.549618,-1.053435,1.057743,3.303183,1391,2571,1180,1391,0,107.914,9,damping
1780591956.5147376,17.912908800004516,18070,0.03833,-0.03833,1.055176,1.832061,2.923664,-0.564886,1.056567,3.496192,1392,2574,1182,1392,1,107.914,15,damping
1780591956.5460749,17.94424599999911,18101,0.037842,-0.017334,1.040527,1.389313,3.717557,-0.358779,1.04136,3.984864,1395,2579,1184,1395,0,107.914,9,damping
1780591956.578691,17.976862100011203,18133,0.023682,-0.021484,1.049316,1.969466,3.251908,-0.427481,1.049804,3.82576,1399,2585,1186,1399,0,107.914,0,damping
1780591956.6109817,18.009153000006336,18165,0.055176,-0.030029,1.063232,1.442748,3.709924,-0.572519,1.065086,4.021546,1401,2592,1191,1401,1,107.914,3,damping
1780591956.6418674,18.04003860001103,18197,0.025635,-0.012451,1.049072,1.251908,3.061069,-0.656489,1.049459,3.371705,1403,2595,1192,1403,0,107.914,9,damping
1780591956.6725478,18.070719000010286,18228,0.028076,-0.013184,1.048584,2.236641,3.610687,-0.442748,1.049043,4.270322,1405,2599,1194,1405,0,79.051,0,damping
1780591956.7034283,18.10159940000449,18259,0.047852,-0.029541,1.047852,2.389313,3.099237,-0.465649,1.049359,3.940928,1407,2604,1197,1407,1,79.051,3,damping
1780591956.7343848,18.13255590001063,18290,0.043457,-0.011963,1.045898,1.152672,3.648855,-0.992366,1.046869,3.953174,1410,2609,1199,1410,0,79.051,9,damping
1780591956.7654595,18.163630800001556,18321,0.050293,-0.023682,1.066162,1.48855,3.396947,-0.732824,1.06761,3.780484,1411,2613,1202,1411,0,79.051,7,damping
1780591956.7994347,18.19760580000002,18355,0.051514,-0.028564,1.07373,2.610687,2.412214,-0.977099,1.075345,3.686351,1422,2628,1206,1422,0,79.051,0,damping
1780591956.8308933,18.229064500003005,18386,0.036865,-0.034912,1.063477,1.045802,3.21374,-0.916031,1.064688,3.501562,1424,2632,1208,1424,0,79.051,9,damping
1780591956.8737473,18.271918500002357,18418,0.026367,-0.030273,1.046387,1.610687,2.961832,-1.022901,1.047157,3.523221,1426,2639,1213,1426,1,79.051,4,damping
1780591956.8939276,18.292098700010683,18449,0.040771,-0.024902,1.057617,2.290076,3.007634,-0.908397,1.058696,3.887865,1429,2644,1215,1429,0,79.051,8,damping
1780591956.9253976,18.323568899999373,18480,0.062988,-0.031006,1.066162,1.343511,3.083969,-0.763359,1.068471,3.449436,1430,2646,1216,1430,0,99.206,9,damping
1780591956.9564013,18.35457250000036,18511,0.0271,-0.02002,1.05957,1.251908,3.351145,-0.419847,1.060106,3.601905,1432,2651,1219,1432,1,99.206,3,damping
1780591956.985471,18.383642100001452,18542,0.022217,-0.006104,1.046631,1.755725,3.496183,-0.633588,1.046884,3.963244,1435,2656,1221,1435,0,99.206,9,damping
1780591957.016761,18.414932200001203,18573,0.044434,-0.026367,1.060303,1.770992,2.908397,-0.740458,1.061561,3.484748,1437,2660,1223,1437,0,99.206,9,damping
1780591957.0489237,18.44709500001045,18604,0.048584,-0.031738,1.05835,1.10687,2.954198,-1.389313,1.059939,3.447121,1438,2665,1227,1438,1,99.206,15,damping
1780591957.07996,18.478131200012285,18635,0.026611,-0.019043,1.059814,1.954198,3.274809,-0.847328,1.060319,3.906562,1440,2668,1228,1440,0,99.206,9,damping
1780591957.1104305,18.508601600013208,18666,0.040527,-0.036377,1.045898,1.847328,2.801527,-0.572519,1.047315,3.404255,1443,2672,1229,1443,0,99.206,8,damping
1780591957.141705,18.53987620001135,18697,0.042969,-0.026611,1.066406,1.167939,3.312977,-0.900763,1.067603,3.626468,1445,2679,1234,1445,1,99.206,3,damping
1780591957.1724982,18.570669400010956,18728,0.049072,-0.003662,1.069092,1.687023,3.015267,-0.763359,1.070224,3.538446,1448,2684,1236,1448,0,99.206,9,damping
1780591957.2036972,18.601868400000967,18759,0.030518,-0.020996,1.05249,1.137405,2.763359,-0.641221,1.053142,3.056306,1449,2686,1237,1449,0,68.1,8,damping
1780591957.23392,18.63209130000905,18790,0.033936,-0.030762,1.061523,2.183206,2.083969,-0.740458,1.062511,3.107667,1451,2691,1240,1451,1,68.1,3,damping
1780591957.2661874,18.664358599999105,18821,0.038086,-0.019287,1.053711,1.748092,2.396947,-0.969466,1.054575,3.121064,1454,2696,1242,1454,0,68.1,10,damping
1780591957.2973013,18.69547240000975,18852,0.022949,-0.010254,1.051758,1.977099,2.664122,-0.374046,1.052058,3.338619,1457,2700,1243,1457,0,68.1,9,damping
1780591957.3278012,18.72597240000323,18883,0.020508,-0.023926,1.056152,1.793893,2.969466,-0.778626,1.056622,3.555564,1459,2707,1248,1459,1,68.1,3,damping
1780591957.3571978,18.755369000005885,18914,0.035156,-0.009277,1.050049,2.656489,2.564885,-0.824427,1.050678,3.78355,1461,2710,1249,1461,0,68.1,8,damping
1780591957.389751,18.787922100003925,18945,0.046143,-0.032471,1.053711,1.748092,2.618321,-0.671756,1.05522,3.219112,1463,2714,1251,1463,0,68.1,8,damping
1780591957.4207687,18.818939900011173,18976,0.027344,-0.011963,1.060791,1.870229,3.10687,-0.961832,1.061211,3.751736,1465,2721,1256,1465,1,68.1,3,damping
1780591957.4525404,18.85071150001022,19007,0.022705,-0.024902,1.057129,2.496183,2.618321,-1.007634,1.057666,3.755244,1472,2730,1258,1472,0,68.1,1,damping
1780591957.4828472,18.881018400003086,19039,0.031006,-0.030029,1.053711,1.534351,3.351145,-0.969466,1.054595,3.811072,1475,2734,1259,1475,0,92.857,8,damping
1780591957.5149295,18.913100800011307,19070,0.028076,-0.038818,1.051025,1.763359,3.145038,-0.992366,1.052117,3.739718,1476,2737,1261,1476,1,92.857,14,damping
1780591957.5457735,18.94394480000483,19101,0.049316,-0.015625,1.055908,1.076336,2.984733,-1.038168,1.057175,3.338401,1479,2742,1263,1479,0,92.857,9,damping
1780591957.577187,18.975358300012886,19132,0.030518,-0.018311,1.050049,1.534351,2.664122,-0.679389,1.050652,3.148548,1482,2747,1265,1482,1,92.857,10,damping
1780591957.608172,19.006343100001686,19164,0.040039,-0.035889,1.052246,1.946565,3.526718,-0.70229,1.053619,4.089018,1485,2755,1270,1485,1,92.857,3,damping
1780591957.639405,19.03757630000473,19195,0.061035,-0.030762,1.062012,1.793893,3.427481,-0.557252,1.064209,3.908479,1487,2758,1271,1487,0,92.857,8,damping
1780591957.6710362,19.069207500011544,19226,0.044678,-0.035645,1.05835,1.847328,2.961832,-1.08397,1.059892,3.655142,1489,2762,1273,1489,0,92.857,1,damping
1780591957.702154,19.100325100007467,19258,0.035156,-0.007568,1.048584,2.045802,3.709924,-0.381679,1.0492,4.253765,1491,2767,1276,1491,1,92.857,3,damping
1780591957.7332697,19.131440800003475,19289,0.061035,-0.019531,1.059326,0.969466,3.320611,-0.381679,1.061263,3.48023,1494,2772,1278,1494,0,76.0,9,damping
1780591957.7642899,19.162461100000655,19320,0.053223,-0.043701,1.066162,1.381679,3.122137,-0.381679,1.068384,3.435471,1496,2776,1280,1496,0,76.0,8,damping
1780591957.795456,19.193627100001322,19351,0.05542,-0.02124,1.050781,1.59542,3.679389,-0.435114,1.052456,4.03393,1497,2779,1282,1497,1,76.0,14,damping
1780591957.8264396,19.22461070001009,19382,0.048584,-0.023682,1.05957,0.732824,3.832061,-0.503817,1.060948,3.933898,1501,2786,1285,1501,0,76.0,1,damping
1780591957.8560874,19.254258700006176,19413,0.050781,-0.054443,1.060303,1.29771,3.541985,-0.51145,1.062913,3.806743,1504,2792,1288,1504,0,76.0,1,damping
1780591957.8880486,19.28621980000753,19444,0.054199,-0.008057,1.054688,1.931298,3.389313,-0.763359,1.05611,3.97493,1506,2797,1291,1506,1,76.0,3,damping
1780591957.9180617,19.316233000005013,19475,0.033203,-0.004395,1.047852,1.259542,3.320611,-0.580153,1.048387,3.598538,1508,2800,1292,1508,0,76.0,9,damping
1780591957.9493215,19.347492800006876,19505,0.0354,-0.030518,1.049561,1.129771,3.343511,-0.580153,1.050601,3.576594,1510,2804,1294,1510,0,76.0,1,damping
1780591957.9807026,19.378873900001054,19536,0.068604,-0.02124,1.059814,1.78626,3.419847,-0.526718,1.062245,3.894035,1512,2809,1297,1512,1,76.0,3,damping
1780591958.01159,19.409761300004902,19567,0.033203,-0.024658,1.048828,1.633588,3.435115,-0.59542,1.049643,3.850084,1515,2814,1299,1515,0,75.54,9,damping
1780591958.0429027,19.441073800000595,19598,0.039795,-0.032471,1.060059,1.610687,3.358779,-0.89313,1.061302,3.830586,1518,2818,1300,1518,0,75.54,8,damping
1780591958.0730145,19.471185800008243,19629,0.05249,-0.052734,1.053955,2.419847,3.152672,-0.312977,1.056578,3.986597,1519,2821,1302,1519,1,75.54,15,damping
1780591958.1048744,19.50304550000874,19660,0.061523,-0.025391,1.057617,1.175572,3.694656,-0.748092,1.059709,3.948683,1522,2826,1304,1522,0,75.54,9,damping
1780591958.1362283,19.53439950000029,19691,0.030518,-0.030273,1.061035,1.717557,3.259542,-0.648855,1.061906,3.741073,1526,2832,1306,1526,0,75.54,1,damping
1780591958.1674013,19.565572600011365,19722,0.066406,-0.051758,1.061768,2.030534,3.465649,-0.687023,1.0651,4.07502,1528,2837,1309,1528,1,75.54,3,damping
1780591958.1973987,19.59556980000343,19753,0.046631,-0.023193,1.062988,1.351145,3.679389,-0.625954,1.064263,3.969297,1531,2842,1311,1531,0,75.54,8,damping
1780591958.2287343,19.626905400000396,19784,0.013916,-0.012207,1.044678,1.496183,2.885496,-0.519084,1.044842,3.291519,1533,2846,1313,1533,0,75.54,0,damping
1780591958.2600374,19.658208500011824,19815,0.047852,-0.030029,1.059082,1.541985,3.641221,-0.854962,1.060588,4.045636,1535,2851,1316,1535,1,75.54,4,damping
1780591958.2908332,19.689004400002887,19846,0.051025,-0.034668,1.060547,1.641221,3.160305,-0.664122,1.062339,3.622457,1538,2856,1318,1538,0,82.437,9,damping
1780591958.3222914,19.720462600002065,19877,0.039062,-0.025879,1.052734,1.854962,3.038168,-0.78626,1.053777,3.645484,1541,2860,1319,1541,1,82.437,8,damping
1780591958.3520148,19.750185900004,19908,0.025635,-0.03125,1.054932,1.450382,3.519084,-0.793893,1.055706,3.888165,1542,2865,1323,1542,1,82.437,15,damping
1780591958.3819323,19.780103500001132,19938,0.033936,-0.019287,1.054688,1.946565,2.59542,-0.870229,1.05541,3.358961,1545,2870,1325,1545,0,82.437,8,damping
1780591958.412455,19.810626300008153,19968,0.032959,-0.039062,1.060547,1.625954,2.305344,-1.045802,1.061778,3.00866,1547,2874,1327,1547,0,82.437,9,damping
1780591958.4446375,19.842808800007333,19999,0.044922,-0.018066,1.066162,1.274809,2.778626,-1.427481,1.067261,3.373959,1549,2881,1332,1549,1,82.437,3,damping
1780591958.475123,19.873294200006058,20031,0.021484,-0.023193,1.056641,1.557252,2.496183,-0.572519,1.057113,2.997289,1559,2893,1334,1559,0,82.437,0,damping
1780591958.5058396,19.90401080000447,20062,0.02417,-0.019043,1.054688,2.244275,2.435115,-0.618321,1.055136,3.368809,1560,2895,1335,1560,0,82.437,9,damping
1780591958.5372112,19.93538230001286,20093,0.025879,-0.028076,1.053223,1.732824,3.175573,-1.21374,1.053915,3.815771,1562,2900,1338,1562,1,82.437,3,damping
1780591958.568364,19.96653510000033,20124,0.037109,-0.015381,1.049805,1.450382,2.946565,-1.198473,1.050573,3.496025,1565,2905,1340,1565,0,97.122,10,damping
1780591958.6005847,19.998755900000106,20156,0.03418,-0.029053,1.057373,1.259542,3.198473,-0.870229,1.058324,3.54598,1569,2911,1342,1569,0,97.122,0,damping
1780591958.631062,20.029233200009912,20187,0.044434,-0.037598,1.054443,1.732824,3.29771,-0.625954,1.056049,3.777485,1570,2916,1346,1570,1,97.122,15,damping
1780591958.6622145,20.060385600008885,20218,0.053955,-0.03125,1.057861,1.381679,2.961832,-0.656489,1.059697,3.333536,1572,2919,1347,1572,0,97.122,9,damping
1780591958.6940408,20.09221190000244,20249,0.025391,-0.020996,1.059326,1.503817,2.89313,-0.916031,1.059838,3.386854,1575,2924,1349,1575,1,97.122,10,damping
1780591958.724594,20.122765300009632,20280,0.029053,-0.041992,1.044434,1.580153,3.381679,-0.603053,1.045681,3.781046,1577,2930,1353,1577,1,97.122,3,damping
1780591958.754651,20.152822300005937,20311,0.05127,-0.022461,1.059082,0.961832,2.969466,-0.954198,1.06056,3.263946,1580,2935,1355,1580,0,97.122,9,damping
1780591958.7860138,20.18418510000629,20342,0.0271,-0.013672,1.052002,1.541985,3.045802,-0.931298,1.05244,3.538635,1581,2937,1356,1581,0,97.122,8,damping
1780591958.8169086,20.215079800007516,20373,0.036865,-0.019775,1.050781,1.473282,2.984733,-1.076336,1.051614,3.498241,1583,2942,1359,1583,1,97.122,3,damping
1780591958.8490603,20.247231500005,20404,0.025635,-0.020996,1.048096,1.10687,2.801527,-0.923664,1.048619,3.150694,1586,2947,1361,1586,0,75.0,9,damping
1780591958.8793175,20.277488700012327,20435,0.053223,-0.024414,1.063721,1.48855,2.847328,-0.732824,1.065331,3.295465,1589,2952,1363,1589,1,75.0,11,damping
1780591958.9109159,20.309087000001455,20466,0.034668,-0.04126,1.05542,1.763359,3.351145,-0.671756,1.056795,3.845889,1590,2956,1366,1590,1,75.0,15,damping
1780591958.9415514,20.339722700009588,20497,0.032471,-0.01709,1.051758,1.320611,3.083969,-0.770992,1.052398,3.442282,1592,2959,1367,1592,0,75.0,9,damping
1780591958.9729953,20.37116650000098,20528,0.015869,-0.033203,1.046631,2.122137,2.114504,-0.839695,1.047278,3.111218,1596,2966,1370,1596,1,75.0,10,damping
1780591959.0032086,20.401379900009488,20559,0.043945,-0.044434,1.059326,1.709924,3.21374,-0.618321,1.061168,3.692463,1598,2972,1374,1598,1,75.0,3,damping
1780591959.0350492,20.433220500010066,20590,0.02417,-0.000977,1.053223,0.839695,2.977099,-0.732824,1.0535,3.178874,1601,2977,1376,1601,0,75.0,9,damping
1780591959.0654802,20.463651300000492,20621,0.029785,-0.028809,1.046143,1.145038,2.916031,-0.938931,1.046963,3.270465,1602,2979,1377,1602,0,75.0,8,damping
1780591959.096275,20.494446200013044,20652,0.047852,-0.0271,1.068604,2.114504,2.465649,-0.778626,1.070018,3.340181,1604,2984,1380,1604,1,75.0,3,damping
1780591959.1291287,20.527299800000037,20683,0.046875,-0.033691,1.05835,1.229008,2.80916,-1.198473,1.059923,3.292139,1607,2989,1382,1607,0,75.269,10,damping
1780591959.1581101,20.556281400000444,20714,0.03418,-0.024414,1.05127,1.374046,2.587786,-1.022901,1.052108,3.10338,1610,2994,1384,1610,1,75.269,11,damping
1780591959.1903715,20.588542700003018,20745,0.02417,-0.044189,1.053711,2.083969,3.412214,-0.526718,1.054914,4.03281,1611,2998,1387,1611,1,75.269,15,damping
1780591959.220505,20.618676300000516,20776,0.046875,-0.018066,1.056396,1.633588,2.320611,-1.10687,1.05759,3.046146,1613,3001,1388,1613,0,75.269,9,damping
1780591959.2517874,20.649958699999843,20807,0.027832,-0.020508,1.057129,1.465649,2.48855,-0.984733,1.057694,3.051345,1616,3006,1390,1616,1,75.269,11,damping
1780591959.2833917,20.68156280000403,20838,0.04126,-0.039551,1.052978,1.320611,3.396947,-1.137405,1.054528,3.817977,1618,3012,1394,1618,1,75.269,3,damping
1780591959.3147552,20.712926500011235,20870,0.042725,-0.018311,1.055908,1.633588,3.29771,-0.59542,1.056931,3.728006,1621,3017,1396,1621,0,75.269,8,damping
1780591959.346031,20.74420210000244,20901,0.038818,-0.030762,1.05249,2.183206,3.175573,-0.725191,1.053655,3.921295,1624,3021,1397,1624,0,75.269,8,damping
1780591959.3759456,20.774116800006595,20932,0.05957,-0.048584,1.050293,1.900763,3.0,-0.625954,1.053102,3.606206,1626,3026,1400,1626,1,75.269,3,damping
1780591959.4075117,20.80568290001247,20962,0.042236,-0.017822,1.05957,1.641221,2.793893,-0.656489,1.060562,3.306119,1629,3031,1402,1629,0,78.853,9,damping
1780591959.438321,20.836492300004466,20994,0.03125,-0.026611,1.046875,1.908397,3.030534,-0.557252,1.047679,3.624451,1633,3037,1404,1633,0,78.853,1,damping
1780591959.4695847,20.867755800005398,21025,0.045166,-0.0354,1.049805,1.763359,3.671756,-0.480916,1.051372,4.101525,1635,3042,1407,1635,1,78.853,4,damping
1780591959.4991395,20.89731080000638,21056,0.047607,-0.029053,1.059814,1.564886,2.732824,-1.0,1.061281,3.304118,1637,3045,1408,1637,0,78.853,8,damping
1780591959.5312088,20.92937990000064,21086,0.026855,-0.018311,1.04834,1.59542,2.419847,-0.763359,1.048844,2.997289,1640,3049,1409,1640,0,78.853,9,damping
1780591959.5620058,20.96017690000008,21117,0.033691,-0.014893,1.071045,1.564886,2.10687,-1.061069,1.071678,2.830836,1642,3056,1414,1642,1,78.853,4,damping
1780591959.592174,20.990345199999865,21148,0.042236,-0.007324,1.058594,2.061069,2.664122,-0.679389,1.059461,3.436149,1645,3061,1416,1645,0,78.853,9,damping
1780591959.6235921,21.021763400000054,21179,0.017578,-0.00708,1.049561,1.664122,2.78626,-0.70229,1.049732,3.320506,1648,3065,1417,1648,0,78.853,9,damping
1780591959.654909,21.053080000012415,21210,0.025391,-0.016357,1.060791,1.312977,2.030534,-1.244275,1.061221,2.719411,1649,3068,1419,1649,1,78.853,15,damping
1780591959.6858928,21.084064100010437,21241,0.031738,-0.011719,1.061279,1.625954,2.656489,-1.160305,1.061818,3.323698,1652,3073,1421,1652,0,82.437,9,damping
1780591959.7171907,21.115361900010612,21273,0.0354,-0.023926,1.061035,1.48855,2.244275,-0.961832,1.061895,2.859662,1655,3078,1423,1655,1,82.437,10,damping
1780591959.749171,21.147342299998854,21304,0.049805,-0.0354,1.055664,1.198473,2.656489,-1.19084,1.057431,3.148233,1658,3086,1428,1658,1,82.437,3,damping
1780591959.7816756,21.17984680000518,21335,0.026123,-0.010254,1.042725,1.694656,2.946565,-0.70229,1.043102,3.470925,1660,3089,1429,1660,0,82.437,9,damping
1780591959.8105164,21.208687500009546,21366,0.040771,-0.027588,1.059326,1.763359,2.801527,-0.740458,1.060469,3.392089,1661,3092,1431,1661,1,82.437,11,damping
1780591959.8401055,21.23827670000901,21397,0.046875,-0.028076,1.057861,0.908397,2.70229,-0.969466,1.059271,3.011216,1663,3098,1435,1663,1,82.437,3,damping
1780591959.8719714,21.270142500012298,21428,0.052734,-0.03125,1.060303,1.099237,2.687023,-0.671756,1.062073,2.979878,1666,3103,1437,1666,0,82.437,9,damping
1780591959.9031403,21.301311600007466,21459,0.026611,-0.027832,1.050781,1.259542,3.0,-0.832061,1.051486,3.358388,1669,3107,1438,1669,0,82.437,9,damping
1780591959.9342072,21.332378300008713,21489,0.035889,-0.012695,1.052734,1.78626,2.053435,-1.167939,1.053422,2.961655,1670,3110,1440,1670,1,82.437,15,damping
1780591959.966868,21.36503920001269,21520,0.034668,-0.019775,1.063232,1.389313,2.755725,-1.175572,1.063981,3.302451,1675,3117,1442,1675,0,82.437,1,damping
1780591959.996678,21.394849400006933,21552,0.027344,-0.018799,1.050781,1.778626,2.114504,-0.832061,1.051305,2.885648,1678,3122,1444,1678,1,82.437,9,damping
1780591960.027827,21.425998100006836,21583,0.032227,-0.033203,1.048584,1.580153,2.877863,-0.641221,1.049604,3.345167,1680,3128,1448,1680,1,82.437,3,damping
1780591960.0592127,21.4573839000077,21614,0.020264,-0.010254,1.045166,1.641221,2.870229,-0.916031,1.045413,3.43088,1682,3131,1449,1682,0,82.437,9,damping
1780591960.0888815,21.487052600001334,21645,0.047607,-0.022217,1.065674,1.274809,3.091603,-0.923664,1.066968,3.469338,1683,3133,1450,1683,0,82.437,9,damping
1780591960.1214943,21.51966540000285,21676,0.027832,-0.038574,1.058594,1.732824,3.022901,-0.572519,1.059662,3.53106,1685,3140,1455,1685,1,82.437,3,damping
1780591960.1517642,21.549935300005018,21707,0.037842,-0.022705,1.066894,1.152672,3.183206,-0.916031,1.067807,3.507216,1688,3145,1457,1688,0,82.437,9,damping
1780591960.181742,21.579913100009435,21738,0.024902,-0.03125,1.059326,1.48855,2.519084,-1.21374,1.060079,3.167764,1691,3149,1458,1691,0,82.437,9,damping
1780591960.2139862,21.612157399998978,21768,0.026123,-0.031006,1.052002,1.969466,2.610687,-0.824427,1.052783,3.37256,1692,3152,1460,1692,1,82.437,15,damping
1780591960.2439358,21.642107000006945,21799,0.031738,-0.016846,1.05127,1.763359,2.625954,-0.580153,1.051883,3.215843,1695,3157,1462,1695,0,71.685,9,damping
1780591960.2752404,21.673411700001452,21830,0.025391,-0.028809,1.054443,2.076336,2.351145,-0.862595,1.055142,3.253172,1698,3161,1463,1698,0,71.685,10,damping
1780591960.3060772,21.70424850001291,21861,0.035156,-0.025879,1.048584,1.816794,2.832061,-1.251908,1.049492,3.590068,1700,3168,1468,1700,1,71.685,3,damping
1780591960.3360152,21.734186300003785,21892,0.029541,-0.004883,1.059814,1.847328,2.694656,-0.954198,1.060237,3.40357,1703,3173,1470,1703,0,71.685,9,damping
1780591960.3650966,21.763267700007418,21922,0.042725,-0.030029,1.0625,1.061069,2.641221,-1.29771,1.063783,3.128253,1704,3175,1471,1704,0,71.685,8,damping
1780591960.3970597,21.79523080000945,21952,0.034912,-0.029053,1.051758,2.343511,2.984733,-0.648855,1.052738,3.849894,1706,3182,1476,1706,1,71.685,3,damping
1780591960.427539,21.825710300006904,21983,0.027832,-0.020264,1.056152,2.236641,2.671756,-0.900763,1.056713,3.598919,1708,3186,1478,1708,1,71.685,3,damping
1780591960.4606934,21.858864500012714,22015,0.024414,-0.033936,1.057373,1.10687,2.442748,-1.206107,1.058199,2.940557,1711,3191,1480,1711,0,71.685,9,damping
1780591960.4908714,21.889042700000573,22046,0.048096,-0.013428,1.061768,1.068702,2.755725,-1.236641,1.062941,3.20397,1712,3196,1484,1712,1,71.685,15,damping
1780591960.5226119,21.92078300000867,22078,0.04541,-0.019775,1.05835,1.633588,2.633588,-1.068702,1.059508,3.278188,1715,3201,1486,1715,0,71.685,9,damping
1780591960.5546808,21.952851900001406,22110,0.047119,-0.021973,1.060303,1.603053,2.343511,-0.954198,1.061577,2.995383,1718,3206,1488,1718,1,71.685,10,damping
1780591960.586076,21.984247300002608,22141,0.056641,-0.039551,1.060059,1.656489,2.801527,-0.778626,1.062307,3.346456,1720,3212,1492,1720,1,71.685,3,damping
1780591960.6170094,22.015180600006715,22172,0.036621,-0.021484,1.056396,0.793893,3.0,-0.648855,1.057249,3.170375,1723,3217,1494,1723,0,71.685,9,damping
1780591960.6480036,22.046174700008123,22203,0.02832,-0.022949,1.059082,1.656489,2.114504,-0.526718,1.059709,2.737245,1724,3219,1495,1724,0,71.685,8,damping
1780591960.6794186,22.07758979999926,22234,0.041748,-0.027832,1.059082,1.717557,2.641221,-1.10687,1.06027,3.339344,1726,3224,1498,1726,1,71.685,3,damping
1780591960.7085958,22.106766900004004,22265,0.02417,-0.00415,1.052734,1.587786,2.877863,-0.908397,1.05302,3.410036,1729,3229,1500,1729,0,71.685,10,damping
1780591960.7395225,22.137693700002274,22295,0.03418,-0.0271,1.05835,1.503817,2.145038,-0.885496,1.059248,2.765277,1731,3233,1502,1731,0,71.685,8,damping
1780591960.7714145,22.169585700001335,22327,0.030762,-0.044678,1.041504,2.129771,2.389313,-0.755725,1.042915,3.288748,1734,3240,1506,1734,1,71.685,14,damping
1780591960.8016818,22.19985300001281,22358,0.040771,-0.007813,1.062012,1.564886,2.908397,-0.900763,1.062823,3.423304,1736,3243,1507,1736,0,75.0,8,damping
1780591960.8390598,22.23723090000567,22389,0.018066,-0.015625,1.05249,1.40458,2.51145,-0.89313,1.052761,3.012957,1739,3247,1508,1739,1,75.0,9,damping
1780591960.870339,22.268510000008973,22426,0.02002,-0.016846,1.060059,2.183206,2.473282,-1.08397,1.060381,3.472536,1745,3255,1510,1745,0,75.0,8,damping
1780591960.910169,22.30834010000399,22457,0.020264,-0.011719,1.055908,1.419847,2.473282,-0.969466,1.056168,3.012135,1748,3261,1513,1748,0,75.0,8,damping
1780591960.9337158,22.331887100008316,22488,0.056885,-0.025146,1.06958,1.557252,2.679389,-0.984733,1.071387,3.251747,1749,3264,1515,1749,1,75.0,14,damping
1780591960.9626193,22.360790500009898,22519,0.036621,-0.021484,1.057373,1.816794,2.557252,-0.984733,1.058225,3.287853,1751,3268,1517,1751,1,75.0,4,damping
1780591960.994502,22.392673300011666,22550,0.04126,-0.025391,1.055176,1.427481,2.946565,-0.832061,1.056287,3.378206,1754,3273,1519,1754,0,75.0,9,damping
1780591961.0250814,22.423252600012347,22581,0.028809,-0.005371,1.050049,1.992366,2.465649,-0.908397,1.050458,3.297595,1756,3280,1524,1756,1,75.0,3,damping
1780591961.0590622,22.45723340001132,22613,0.030273,-0.035645,1.057861,1.78626,2.473282,-1.007634,1.058894,3.21297,1765,3290,1525,1765,0,113.725,1,damping
1780591961.0882065,22.4863777999999,22645,0.023926,-0.009766,1.043945,1.587786,2.59542,-0.89313,1.044265,3.170954,1766,3292,1526,1766,0,113.725,8,damping
1780591961.11898,22.51715100000729,22675,0.042236,-0.025391,1.067383,1.274809,2.78626,-1.480916,1.06852,3.403159,1769,3301,1532,1769,1,113.725,3,damping
1780591961.1504233,22.548594400010188,22706,0.020264,-0.029541,1.054199,1.862595,2.923664,-0.946565,1.054808,3.593475,1772,3306,1534,1772,0,113.725,8,damping
1780591961.1825469,22.580718100012746,22737,0.022705,-0.012695,1.048584,1.870229,2.48855,-0.587786,1.048907,3.167985,1775,3310,1535,1775,0,113.725,8,damping
1780591961.2128286,22.6109998000029,22768,0.029297,-0.02832,1.061768,2.175573,2.419847,-1.030534,1.062549,3.413324,1776,3313,1537,1776,1,113.725,14,damping
1780591961.244575,22.6427463,22799,0.044922,-0.02002,1.064209,1.641221,2.717557,-1.221374,1.065345,3.401541,1779,3318,1539,1779,0,113.725,9,damping
1780591961.275018,22.6731892000098,22830,0.04126,-0.035156,1.053223,1.633588,2.465649,-0.877863,1.054617,3.085235,1782,3322,1540,1782,0,113.725,9,damping
1780591961.3071768,22.70534800000314,22862,0.049316,-0.054443,1.061035,1.885496,2.709924,-1.236641,1.063575,3.525346,1784,3329,1545,1784,1,113.725,3,damping
1780591961.3373394,22.73551050000242,22893,0.030273,-0.003418,1.044678,1.343511,2.755725,-1.030534,1.045122,3.234354,1786,3332,1546,1786,0,75.0,8,damping
1780591961.3670416,22.76521280000452,22923,0.035889,-0.022461,1.0625,1.473282,2.267176,-0.740458,1.063343,2.803377,1787,3334,1547,1787,0,75.0,8,damping
1780591961.396774,22.794945200002985,22953,0.032715,-0.026855,1.055664,1.59542,2.664122,-1.099237,1.056512,3.294121,1789,3341,1552,1789,1,75.0,3,damping
1780591961.4274378,22.825609000006807,22984,0.036377,-0.029785,1.0625,2.29771,2.625954,-0.977099,1.06354,3.623511,1792,3346,1554,1792,0,75.0,10,damping
1780591961.4589665,22.857137700004387,23014,0.033447,-0.009521,1.063232,1.435114,3.053435,-0.870229,1.063801,3.484296,1794,3350,1556,1794,0,75.0,8,damping
1780591961.489452,22.88762300000235,23044,0.061523,-0.033447,1.067383,1.015267,3.381679,-0.78626,1.069678,3.617282,1795,3355,1560,1795,1,75.0,15,damping
1780591961.522465,22.920636100010597,23077,0.053467,-0.029541,1.066894,2.145038,2.671756,-0.923664,1.068642,3.548608,1809,3371,1562,1809,0,75.0,0,damping
1780591961.5529382,22.951109400004498,23109,0.014648,-0.026855,1.052734,2.091603,2.580153,-0.80916,1.053179,3.418586,1811,3375,1564,1811,0,75.0,9,damping
1780591961.5844092,22.98258039999928,23140,0.025635,-0.036621,1.054932,1.969466,2.885496,-0.969466,1.055878,3.625568,1813,3382,1569,1813,1,75.0,3,damping
1780591961.6161058,23.014276900008554,23171,0.04126,-0.021484,1.057617,1.801527,2.236641,-0.847328,1.05864,2.994332,1816,3387,1571,1816,0,107.914,9,damping
1780591961.647733,23.045904200000223,23203,0.047119,-0.025879,1.058106,1.167939,2.961832,-1.007634,1.05947,3.33944,1817,3389,1572,1817,0,107.914,8,damping
1780591961.6796677,23.07783880000352,23234,0.033936,-0.030518,1.053467,1.625954,3.114504,-0.80916,1.054455,3.605357,1819,3394,1575,1819,1,107.914,3,damping
1780591961.709174,23.107345100012026,23265,0.02832,-0.009033,1.061768,1.465649,2.931298,-0.709924,1.062184,3.3533,1822,3399,1577,1822,0,107.914,10,damping
1780591961.7404776,23.13864879999892,23296,0.034912,-0.027344,1.068604,1.442748,2.793893,-1.091603,1.069523,3.328507,1825,3404,1579,1825,1,107.914,11,damping
1780591961.7712104,23.16938150000351,23327,0.039551,-0.050781,1.0625,1.900763,2.564885,-1.160305,1.064448,3.396741,1826,3410,1584,1826,1,107.914,15,damping
1780591961.8025901,23.200761400003103,23358,0.041992,-0.021973,1.047852,1.335878,2.694656,-0.984733,1.048923,3.164718,1828,3413,1585,1828,0,107.914,9,damping
1780591961.8344302,23.232601499999873,23389,0.016602,-0.017578,1.047607,1.755725,2.229008,-1.007634,1.047886,3.011042,1831,3418,1587,1831,1,107.914,10,damping
1780591961.8655677,23.263738800000283,23421,0.037598,-0.033203,1.049805,2.076336,2.977099,-0.778626,1.051002,3.712216,1833,3424,1591,1833,1,68.0,3,damping
1780591961.906948,23.305119299999205,23452,0.039307,-0.037598,1.054199,1.152672,2.908397,-0.664122,1.055602,3.1982,1836,3429,1593,1836,0,68.0,9,damping
1780591961.9263582,23.324529400008032,23482,0.050293,-0.023682,1.061035,1.312977,2.587786,-0.694656,1.06249,2.983806,1837,3431,1594,1837,0,68.0,8,damping
1780591961.9568222,23.354993400003877,23513,0.027344,-0.040039,1.05127,1.137405,3.091603,-0.78626,1.052387,3.386724,1839,3436,1597,1839,1,68.0,3,damping
1780591961.9889467,23.387117900012527,23544,0.037109,-0.014404,1.070312,1.526718,2.610687,-0.961832,1.071052,3.17359,1844,3443,1599,1844,0,68.0,9,damping
1780591962.0206897,23.418860900012078,23575,0.037598,-0.039307,1.055908,1.412214,2.068702,-0.900763,1.057308,2.661814,1847,3448,1601,1847,1,68.0,11,damping
1780591962.0508642,23.449035300000105,23607,0.054199,-0.022217,1.060303,1.618321,3.0,-0.770992,1.061919,3.494766,1848,3452,1604,1848,1,68.0,15,damping
1780591962.080472,23.47864310001023,23637,0.024902,-0.009033,1.049805,1.725191,2.931298,-0.900763,1.050139,3.518546,1850,3455,1605,1850,0,68.0,8,damping
1780591962.1126606,23.510831800012966,23668,0.036621,-0.019043,1.057373,2.099237,2.160305,-0.908397,1.058178,3.146252,1853,3459,1606,1853,0,68.0,8,damping
1780591962.143754,23.541925300000003,23699,0.039795,-0.03418,1.062256,1.763359,2.419847,-0.78626,1.06355,3.09569,1855,3466,1611,1855,1,79.137,3,damping
1780591962.1745827,23.57275390000723,23730,0.032227,-0.02124,1.058838,2.061069,2.923664,-0.885496,1.059541,3.685094,1858,3471,1613,1858,0,79.137,8,damping
1780591962.2053127,23.603483900005813,23761,0.02002,-0.00708,1.055908,2.053435,2.282443,-0.877863,1.056122,3.19324,1859,3473,1614,1859,0,79.137,8,damping
1780591962.2362235,23.634394600012456,23792,0.025635,-0.038574,1.057373,1.519084,2.206107,-0.923664,1.058387,2.833316,1861,3478,1617,1861,1,79.137,3,damping
1780591962.2672932,23.665464500008966,23823,0.037354,-0.007324,1.060303,1.221374,1.977099,-1.152672,1.060986,2.594095,1864,3483,1619,1864,0,79.137,9,damping
1780591962.2985501,23.696721400003298,23854,0.019043,-0.023682,1.04834,1.381679,2.564885,-1.152672,1.04878,3.133102,1867,3488,1621,1867,1,79.137,10,damping
1780591962.329767,23.72793820001243,23885,0.026611,-0.029785,1.052002,1.419847,2.717557,-1.068702,1.05276,3.247031,1869,3494,1625,1869,1,79.137,3,damping
1780591962.3609762,23.75914740000735,23916,0.031494,-0.014648,1.051025,1.152672,2.748092,-1.305344,1.051599,3.253395,1871,3497,1626,1871,0,79.137,8,damping
1780591962.391064,23.789235000003828,23947,0.049072,-0.016846,1.054199,1.91603,2.40458,-0.641221,1.055475,3.140755,1874,3502,1628,1874,1,79.137,11,damping
1780591962.4236794,23.821850600012112,23978,0.019043,-0.023682,1.056396,1.51145,2.679389,-0.816794,1.056833,3.182886,1876,3508,1632,1876,1,75.269,3,damping
1780591962.4532063,23.851377400002093,24009,0.032959,-0.019531,1.060547,1.519084,2.557252,-0.862595,1.061239,3.09697,1879,3513,1634,1879,0,75.269,9,damping
1780591962.4844904,23.882661700001336,24040,0.036621,-0.026367,1.053711,1.877863,2.526718,-1.053435,1.054677,3.319698,1882,3517,1635,1882,0,75.269,8,damping
1780591962.5152655,23.91343670000788,24071,0.041504,-0.032227,1.058838,1.473282,2.732824,-1.229008,1.060141,3.339064,1883,3520,1637,1883,1,75.269,14,damping
1780591962.5456302,23.943801500005065,24102,0.028809,-0.005859,1.052246,1.503817,2.725191,-0.870229,1.052657,3.231939,1886,3525,1639,1886,0,75.269,10,damping
1780591962.5774052,23.975576500000898,24133,0.033936,-0.031494,1.05127,1.435114,2.938931,-0.916031,1.052288,3.396466,1889,3530,1641,1889,1,75.269,10,damping
1780591962.608829,24.00700019999931,24165,0.035156,-0.028564,1.049316,1.679389,3.183206,-0.587786,1.050294,3.64673,1892,3538,1646,1892,1,75.269,3,damping
1780591962.6401212,24.038292500001262,24196,0.039551,-0.026367,1.045898,1.778626,3.045802,-0.671756,1.046978,3.590498,1894,3541,1647,1894,0,75.269,9,damping
1780591962.671275,24.06944600000861,24227,0.042236,-0.038574,1.05835,1.694656,3.40458,-0.572519,1.059894,3.845882,1896,3545,1649,1896,0,75.269,1,damping
1780591962.7027438,24.100915000002715,24258,0.052246,-0.014404,1.060059,1.969466,2.656489,-0.59542,1.061443,3.360097,1898,3550,1652,1898,1,78.571,3,damping
1780591962.7333617,24.131532800005516,24289,0.061035,-0.023682,1.066894,1.419847,3.267176,-0.412214,1.068901,3.586129,1901,3555,1654,1901,0,78.571,9,damping
1780591962.7652407,24.163411800007452,24321,0.027588,-0.028564,1.057129,2.007634,3.946565,-0.793893,1.057875,4.49847,1904,3559,1655,1904,0,78.571,8,damping
1780591962.7962315,24.194402600012836,24352,0.031494,-0.027588,1.047363,1.603053,3.564885,-0.70229,1.0482,3.971322,1905,3562,1657,1905,1,78.571,15,damping
1780591962.8272507,24.225421900002402,24383,0.043945,-0.025635,1.053955,1.442748,2.870229,-0.70229,1.055182,3.288305,1908,3567,1659,1908,0,78.571,9,damping
1780591962.8581562,24.256327300012344,24414,0.051025,-0.037598,1.059814,1.641221,3.351145,-1.076336,1.061708,3.883591,1910,3573,1663,1910,0,78.571,2,damping
1780591962.888995,24.287166200010688,24445,0.030029,-0.015137,1.053223,1.748092,3.450382,-0.587786,1.053759,3.912346,1912,3578,1666,1912,1,78.571,3,damping
1780591962.920087,24.318258300001617,24476,0.038818,-0.02124,1.048584,0.908397,3.068702,-0.992366,1.049517,3.350658,1914,3581,1667,1914,0,78.571,9,damping
1780591962.9525535,24.35072480000963,24507,0.060303,-0.04834,1.07373,1.832061,4.137404,-0.709924,1.076508,4.580236,1916,3585,1669,1916,0,78.571,1,damping
1780591962.9834013,24.381572600002983,24539,0.043213,-0.028076,1.051514,1.89313,3.29771,-0.442748,1.052776,3.828166,1918,3590,1672,1918,1,71.174,3,damping
1780591963.0142007,24.412371900005382,24570,0.058838,-0.035889,1.061768,1.244275,3.89313,-0.793893,1.064002,4.163526,1921,3595,1674,1921,0,71.174,9,damping
1780591963.0442789,24.442450100003043,24601,0.038818,-0.018799,1.052734,2.251908,3.29771,-0.694656,1.053618,4.053212,1923,3601,1678,1923,0,71.174,1,damping
