host_epoch_s,host_elapsed_s,time_ms,ax,ay,az,gx,gy,gz,acc_mag,gyro_mag,pulse_count,edge_count,rise_count,fall_count,state,pulse_rate_hz,last_edge_dt_ms,label
1780598901.7337978,0.03200540000398178,846040,0.047363,-0.045166,1.051025,1.061069,2.59542,-0.923664,1.053061,2.952156,14638,24639,9999,14638,0,110.714,1,normal
1780598901.7655702,0.06377760000759736,846071,0.056152,-0.006104,1.059326,2.877863,3.259542,-0.534351,1.060831,4.380894,14640,24644,10002,14640,1,110.714,14,normal
1780598901.7956493,0.09385679999832064,846102,0.049561,0.008545,1.046875,0.862595,2.832061,-0.816794,1.048082,3.071122,14645,24651,10004,14645,0,110.714,0,normal
1780598901.8279617,0.12616919999709353,846133,0.036621,-0.044678,1.05542,1.961832,2.549618,-0.877863,1.057,3.334664,14647,24655,10006,14647,0,110.714,1,normal
1780598901.856862,0.1550697000056971,846164,0.058838,-0.008301,1.058594,2.908397,3.381679,-0.374046,1.06026,4.475984,14651,24661,10008,14651,0,110.714,6,normal
1780598901.887888,0.18609550000110175,846194,0.024414,-0.024658,1.050537,0.335878,2.641221,-1.061069,1.05111,2.866135,14655,24667,10010,14655,0,107.527,0,normal
1780598901.9195657,0.21777319999819156,846225,0.040527,-0.042236,1.058594,1.832061,2.549618,-0.366412,1.060211,3.160895,14657,24671,10012,14657,0,107.527,1,normal
1780598901.9502966,0.248504100003629,846257,0.052734,-0.035889,1.053223,1.946565,2.70229,-0.664122,1.055152,3.39596,14662,24677,10013,14662,0,107.527,6,normal
1780598901.982016,0.28022369999962393,846288,0.057129,-0.003418,1.068604,0.89313,3.519084,-0.732824,1.070135,3.703872,14665,24681,10014,14665,0,107.527,6,normal
1780598902.0130777,0.311285300005693,846319,0.0271,-0.044678,1.045166,2.183206,2.10687,-0.664122,1.046472,3.105857,14667,24686,10017,14667,1,107.527,14,normal
1780598902.0448182,0.3430256999999983,846350,0.052002,-0.017822,1.050537,1.664122,2.503817,-0.877863,1.051974,3.131939,14673,24693,10018,14673,0,107.527,1,normal
1780598902.0798469,0.37805430000298657,846382,0.047119,-0.046387,1.061523,1.244275,2.633588,-0.839695,1.063581,3.031352,14675,24697,10020,14675,0,107.527,0,normal
1780598902.107781,0.4059884000016609,846413,0.047363,0.002197,1.050049,2.992366,3.320611,-0.40458,1.051119,4.488251,14678,24702,10022,14678,1,107.527,14,normal
1780598902.138864,0.43707159999758005,846444,0.056641,-0.015137,1.04541,0.671756,2.694656,-1.198473,1.047053,3.024693,14683,24709,10024,14683,0,112.0,0,normal
1780598902.1699762,0.46818379999604076,846475,0.02124,-0.031982,1.050293,1.709924,2.89313,-1.053435,1.050994,3.521898,14685,24713,10026,14685,0,112.0,0,normal
1780598902.2011542,0.49936170000000857,846506,0.050293,-0.032471,1.055176,2.229008,2.946565,-0.450382,1.056873,3.722038,14689,24719,10028,14689,0,112.0,5,normal
1780598902.2315965,0.5298040000052424,846537,0.038086,0.008301,1.056641,0.740458,3.083969,-0.816794,1.057359,3.275103,14693,24725,10030,14693,0,112.0,0,normal
1780598902.2627528,0.5609604000055697,846568,0.041992,-0.033936,1.053711,2.076336,2.618321,-0.51145,1.055093,3.380585,14695,24730,10033,14695,1,112.0,14,normal
1780598902.2921896,0.5903971000079764,846599,0.03125,-0.037109,1.051758,1.984733,2.450382,-0.458015,1.052876,3.186426,14700,24737,10035,14700,0,112.0,0,normal
1780598902.3223023,0.6205099000071641,846630,0.059326,0.000732,1.0625,0.977099,3.244275,-0.946565,1.064155,3.517958,14702,24741,10037,14702,0,112.0,0,normal
1780598902.3547242,0.652931600008742,846660,0.032959,-0.054932,1.043945,2.557252,2.045802,-0.625954,1.045909,3.334166,14704,24746,10040,14704,1,112.0,14,normal
1780598902.3849442,0.6831516999955056,846691,0.042725,-0.006348,1.058106,1.847328,2.335878,-0.78626,1.058987,3.080122,14709,24753,10042,14709,0,112.0,1,normal
1780598902.4166987,0.7149061999953119,846722,0.043213,-0.024658,1.064941,0.687023,3.030534,-0.816794,1.066103,3.212988,14711,24757,10044,14711,0,100.719,1,normal
1780598902.4477262,0.7459338000044227,846753,0.051025,-0.07666,1.037842,2.412214,2.725191,-0.541985,1.041919,3.679564,14713,24762,10047,14713,1,100.719,14,normal
1780598902.4784372,0.7766446000023279,846784,0.040771,-0.012207,1.047363,1.778626,2.534351,-0.374046,1.048228,3.118711,14718,24769,10049,14718,0,100.719,1,normal
1780598902.509591,0.8077985999989323,846815,0.070312,-0.061035,1.056885,0.816794,2.366412,-0.984733,1.060978,2.690122,14720,24773,10051,14720,0,100.719,1,normal
1780598902.5397437,0.8379512999963481,846846,0.05249,-0.005127,1.052002,2.885496,3.442748,-0.274809,1.053323,4.500458,14724,24779,10053,14724,0,100.719,6,normal
1780598902.571858,0.8700654999993276,846877,0.044434,-0.02002,1.051758,0.664122,2.770992,-0.870229,1.052886,2.979388,14728,24785,10055,14728,0,100.719,0,normal
1780598902.6021504,0.9003578999981983,846908,0.044434,-0.041992,1.053467,1.610687,3.061069,-0.89313,1.055239,3.572413,14730,24789,10057,14730,0,100.719,1,normal
1780598902.6335883,0.9317959000036353,846939,0.053955,-0.031982,1.058838,2.328244,2.778626,-0.59542,1.060694,3.673691,14735,24795,10058,14735,0,100.719,6,normal
1780598902.6632123,0.9614198000053875,846970,0.052002,-0.005615,1.053955,0.793893,3.274809,-1.053435,1.055252,3.530491,14737,24799,10060,14737,0,100.719,0,normal
1780598902.6960588,0.9942661999957636,847001,0.035889,-0.038818,1.041016,2.229008,2.458015,-0.587786,1.042357,3.369838,14739,24804,10063,14739,1,100.358,13,normal
1780598902.7273448,1.0255523000087123,847033,0.025635,0.005127,1.050781,1.229008,2.343511,-0.610687,1.051106,2.715777,14744,24811,10065,14744,0,100.358,1,normal
1780598902.7577803,1.0559878000058234,847064,0.03125,-0.03418,1.054199,0.641221,2.793893,-0.839695,1.055216,2.986987,14746,24815,10067,14746,0,100.358,0,normal
1780598902.788137,1.0863444999995409,847094,0.038574,-0.057861,1.04248,1.89313,2.778626,-0.687023,1.044797,3.43172,14748,24820,10070,14748,1,100.358,13,normal
1780598902.818244,1.1164513999974588,847124,0.020264,-0.008301,1.047607,1.610687,2.587786,-0.320611,1.047836,3.064921,14752,24825,10071,14752,0,100.358,1,normal
1780598902.8501978,1.1484054000029573,847155,0.018799,-0.042236,1.049072,0.824427,3.10687,-0.839695,1.05009,3.32226,14754,24829,10073,14754,0,100.358,0,normal
1780598902.8798666,1.1780741999973543,847186,0.046143,-0.043701,1.049805,2.900763,2.664122,-0.770992,1.051727,4.013278,14757,24834,10075,14757,1,100.358,14,normal
1780598902.912089,1.2102966999955242,847217,0.051025,-0.014404,1.052246,1.053435,2.305344,-1.221374,1.053581,2.813554,14762,24841,10077,14762,0,100.358,0,normal
1780598902.942417,1.240624400001252,847248,0.034668,-0.043701,1.048584,1.587786,2.603053,-0.992366,1.050067,3.206516,14764,24845,10079,14764,0,100.358,0,normal
1780598902.986612,1.2848194999969564,847279,0.043213,-0.009766,1.052978,2.679389,4.183206,-0.389313,1.05391,4.982961,14768,24851,10081,14768,0,104.317,5,normal
1780598903.0032349,1.301442500000121,847309,0.05542,-0.018799,1.048096,0.442748,2.305344,-1.053435,1.049728,2.573006,14772,24857,10083,14772,0,104.317,0,normal
1780598903.034117,1.3323245000065072,847340,0.030273,-0.038574,1.057129,1.70229,3.160305,-0.694656,1.058266,3.65621,14773,24859,10084,14773,0,104.317,5,normal
1780598903.0656853,1.363892699999269,847371,0.057373,-0.037842,1.061035,2.419847,2.839695,-0.732824,1.063259,3.802178,14776,24865,10087,14776,0,104.317,5,normal
1780598903.0967839,1.394991299996036,847402,0.05542,-0.028076,1.064209,0.557252,3.053435,-0.748092,1.066021,3.192748,14780,24871,10089,14780,0,104.317,0,normal
1780598903.1280546,1.426262199995108,847433,0.038574,-0.027344,1.053467,1.923664,2.603053,-0.59542,1.054527,3.291032,14782,24876,10092,14782,1,104.317,14,normal
1780598903.1588902,1.4570977999974275,847465,0.018311,-0.002441,1.046387,1.519084,2.59542,-0.526718,1.04655,3.053072,14787,24883,10094,14787,0,104.317,1,normal
1780598903.1894042,1.4876117999956477,847495,0.058105,-0.009033,1.067139,0.969466,3.061069,-1.206107,1.068758,3.429971,14789,24887,10096,14789,0,104.317,0,normal
1780598903.220398,1.5186055000085616,847526,0.04834,-0.071533,1.048096,1.824428,2.778626,-0.465649,1.051646,3.356505,14791,24892,10099,14791,1,104.317,14,normal
1780598903.2523208,1.5505283999955282,847557,0.035889,-0.006104,1.050049,1.351145,2.274809,-0.572519,1.05068,2.707052,14796,24899,10101,14796,0,100.719,1,normal
1780598903.2812738,1.5794812999956775,847588,0.031738,-0.055176,1.050781,0.839695,2.458015,-1.0,1.052707,2.78333,14798,24903,10103,14798,0,100.719,1,normal
1780598903.3142242,1.6124317000067094,847618,0.050781,-0.019043,1.058594,2.89313,2.335878,-0.816794,1.059982,3.807056,14800,24908,10106,14800,1,100.719,14,normal
1780598903.343334,1.6415415999945253,847650,0.053955,0.000488,1.055664,0.70229,2.114504,-0.778626,1.057042,2.360211,14805,24915,10108,14805,0,100.719,1,normal
1780598903.3770025,1.6752101000020048,847681,0.047607,-0.043701,1.058838,1.763359,2.389313,-1.183206,1.060808,3.196596,14807,24919,10110,14807,0,100.719,1,normal
1780598903.406642,1.7048494000046048,847712,0.063232,-0.015625,1.054199,2.580153,3.687023,-0.687023,1.056209,4.552288,14811,24925,10112,14811,0,100.719,6,normal
1780598903.43702,1.7352277000027243,847743,0.044678,-0.031494,1.044922,0.351145,2.564885,-1.221374,1.046351,2.862463,14815,24931,10114,14815,0,100.719,0,normal
1780598903.4699,1.768107299998519,847774,0.045166,-0.027588,1.044434,2.045802,2.473282,-0.824427,1.045774,3.313927,14816,24934,10116,14816,1,100.719,18,normal
1780598903.5008633,1.7990709000005154,847806,0.009766,-0.021729,1.044678,1.526718,2.229008,-0.572519,1.044949,2.761724,14822,24941,10117,14822,0,100.719,0,normal
1780598903.5317547,1.8299623000057181,847837,0.043213,-0.009277,1.068115,0.931298,3.114504,-1.19084,1.069029,3.462015,14824,24945,10119,14824,0,100.0,0,normal
1780598903.561878,1.8600853999960236,847868,0.029297,-0.056885,1.043213,1.801527,2.312977,-0.549618,1.045173,2.982858,14826,24950,10122,14826,1,100.0,13,normal
1780598903.5925312,1.890738700007205,847899,0.043213,-0.000488,1.04834,1.580153,2.885496,-0.465649,1.04923,3.32262,14831,24957,10124,14831,0,100.0,0,normal
1780598903.623919,1.9221265999949537,847930,0.021484,-0.04126,1.047119,0.908397,2.900763,-0.603053,1.048152,3.098917,14832,24959,10125,14832,0,100.0,6,normal
1780598903.6549342,1.9531415999954334,847961,0.037842,-0.003906,1.045654,2.885496,3.114504,-0.580153,1.046346,4.285184,14835,24964,10127,14835,1,100.0,14,normal
1780598903.687422,1.9856295000063255,847992,0.036133,-0.028076,1.050293,0.450382,2.854962,-0.938931,1.051289,3.038954,14840,24971,10129,14840,0,100.0,0,normal
1780598903.7189019,2.0171092999953544,848024,0.061035,-0.040283,1.050049,2.305344,3.076336,-0.816794,1.052592,3.93009,14842,24976,10132,14842,1,100.0,14,normal
1780598903.7491112,2.0473187000025064,848055,0.050781,-0.031006,1.052002,2.175573,2.656489,-0.587786,1.053683,3.48361,14846,24981,10133,14846,0,100.0,5,normal
1780598903.7807631,2.078970600006869,848086,0.05542,0.010498,1.058594,0.717557,3.465649,-0.717557,1.060095,3.611163,14850,24987,10135,14850,0,100.0,0,normal
1780598903.8116105,2.109817899996415,848117,0.040039,-0.042969,1.046875,1.961832,2.503817,-0.549618,1.048521,3.227997,14852,24992,10138,14852,1,100.0,14,normal
1780598903.8417442,2.1399517999961972,848148,0.036377,-0.029053,1.052002,1.816794,2.618321,-0.709924,1.053032,3.265017,14856,24997,10139,14856,0,100.0,5,normal
1780598903.8731575,2.1713650000019697,848179,0.043701,-0.010986,1.065186,0.954198,2.916031,-0.770992,1.066138,3.163567,14858,25001,10141,14858,0,100.0,1,normal
1780598903.9041097,2.2023172000044724,848210,0.075684,-0.04248,1.047119,2.480916,3.099237,-0.687023,1.05071,4.028922,14860,25006,10144,14860,1,100.0,14,normal
1780598903.934308,2.2325156000006245,848241,0.057373,0.009766,1.055664,1.473282,2.648855,-0.625954,1.057267,3.094966,14865,25013,10146,14865,0,100.0,1,normal
1780598903.9649818,2.263189400007832,848271,0.016602,-0.046143,1.05127,0.862595,2.335878,-0.770992,1.052413,2.606688,14867,25017,10148,14867,0,100.0,1,normal
1780598903.9962718,2.29447930000606,848302,0.058105,-0.038086,1.0625,2.641221,3.099237,-0.877863,1.064769,4.165568,14870,25022,10150,14870,1,100.0,14,normal
1780598904.031513,2.329720499998075,848337,0.039062,0.008057,1.052246,1.396947,2.496183,-0.610687,1.053002,2.92495,14875,25029,10152,14875,0,100.0,0,normal
1780598904.0627007,2.360908200003905,848368,0.033691,-0.058105,1.042725,2.145038,2.198473,-0.648855,1.044886,3.139345,14877,25034,10155,14877,1,99.602,13,normal
1780598904.094422,2.392629699999816,848399,0.031494,-0.005371,1.051025,1.427481,1.969466,-0.503817,1.051511,2.484014,14882,25041,10157,14882,0,99.602,1,normal
1780598904.125204,2.4234116000006907,848430,0.037842,-0.042236,1.070068,0.816794,2.633588,-1.091603,1.07157,2.965558,14884,25045,10159,14884,0,99.602,0,normal
1780598904.1560833,2.4542909000010695,848461,0.060303,-0.024902,1.059326,2.48855,2.435115,-0.641221,1.061333,3.540315,14887,25050,10161,14887,1,99.602,13,normal
1780598904.1863947,2.484602199998335,848492,0.063477,0.005127,1.062988,0.80916,2.183206,-0.89313,1.064894,2.493754,14892,25057,10163,14892,0,99.602,0,normal
1780598904.2178085,2.5160160999948857,848523,0.030029,-0.042969,1.049316,1.648855,2.259542,-1.007634,1.050625,2.973143,14894,25061,10165,14894,0,99.602,0,normal
1780598904.2489796,2.5471870000037597,848554,0.048828,-0.010498,1.060547,3.137405,2.473282,-0.610687,1.061722,4.041456,14898,25067,10167,14898,0,99.602,6,normal
1780598904.2803617,2.5785692000063136,848585,0.032227,-0.029541,1.049316,0.419847,2.442748,-1.10687,1.050227,2.714489,14901,25071,10168,14901,0,99.602,6,normal
1780598904.3110714,2.6092787999950815,848616,0.052979,-0.053467,1.051758,2.175573,2.335878,-0.59542,1.054448,3.247147,14903,25076,10171,14903,1,99.602,14,normal
1780598904.341348,2.639555500005372,848647,0.043213,-0.030029,1.056885,2.221374,2.687023,-0.419847,1.058194,3.511533,14907,25081,10172,14907,0,107.527,5,normal
1780598904.370924,2.669131600006949,848678,0.068848,-0.006592,1.0625,0.648855,3.274809,-0.618321,1.064749,3.395248,14911,25087,10174,14911,0,107.527,0,normal
1780598904.4022214,2.700428900003317,848708,0.03833,-0.023193,1.046143,2.221374,2.885496,-0.671756,1.047101,3.702951,14913,25092,10177,14913,1,107.527,14,normal
1780598904.4341254,2.7323329000064405,848739,0.027832,-0.032471,1.045654,1.801527,2.832061,-0.358779,1.046528,3.375617,14917,25097,10178,14917,0,107.527,5,normal
1780598904.4647558,2.7629634000040824,848770,0.044434,-0.009277,1.053467,0.946565,3.320611,-0.473282,1.054444,3.485174,14919,25101,10180,14919,0,107.527,0,normal
1780598904.4960256,2.7942331999947783,848801,0.032959,-0.057373,1.044189,1.89313,3.022901,-0.610687,1.046284,3.618675,14921,25106,10183,14921,1,107.527,14,normal
1780598904.525966,2.8241734000039287,848833,0.056396,-0.006836,1.061035,1.21374,2.450382,-0.664122,1.062555,2.814,14926,25113,10185,14926,0,107.527,1,normal
1780598904.5588872,2.8570946999971056,848863,0.028076,-0.04834,1.063721,0.977099,2.671756,-1.076336,1.065188,3.041628,14928,25117,10187,14928,0,107.527,0,normal
1780598904.5881765,2.886383899996872,848894,0.051758,-0.006104,1.046143,3.068702,2.870229,-0.587786,1.04744,4.242716,14931,25122,10189,14931,1,107.527,14,normal
1780598904.619517,2.917724500002805,848925,0.045654,-0.006592,1.048096,0.80916,2.549618,-0.885496,1.04911,2.817694,14936,25129,10191,14936,0,104.317,0,normal
1780598904.6500356,2.9482432000077097,848956,0.034668,-0.049316,1.05127,1.633588,2.687023,-1.091603,1.052996,3.328708,14938,25133,10193,14938,0,104.317,1,normal
1780598904.682509,2.9807164999947418,848987,0.044434,-0.032959,1.055664,2.274809,3.015267,-0.442748,1.057113,3.802975,14941,25137,10194,14941,0,104.317,6,normal
1780598904.712656,3.0108635000069626,849019,0.05957,0.007324,1.058838,0.870229,2.687023,-1.114504,1.060538,3.036364,14945,25143,10196,14945,0,104.317,0,normal
1780598904.745501,3.0437086000019917,849050,0.047119,-0.029541,1.04834,2.068702,2.48855,-0.419847,1.049814,3.263232,14947,25148,10199,14947,1,104.317,13,normal
1780598904.7759364,3.0741437999968184,849081,0.024658,-0.014648,1.050537,1.435114,2.160305,-0.328244,1.050928,2.614234,14952,25155,10201,14952,0,104.317,0,normal
1780598904.8074038,3.1056113000086043,849113,0.013184,-0.037598,1.055664,1.389313,2.282443,-0.816794,1.056416,2.794081,14954,25159,10203,14954,0,104.317,0,normal
1780598904.8380287,3.1362362000072608,849144,0.041748,-0.023193,1.049805,2.557252,3.343511,-0.51145,1.05089,4.240305,14957,25164,10205,14957,1,104.317,13,normal
1780598904.868973,3.1671805000078166,849175,0.030518,0.013428,1.055664,0.816794,2.709924,-0.480916,1.05619,2.870909,14962,25171,10207,14962,0,104.0,0,normal
1780598904.900125,3.1983326000045054,849206,0.031494,-0.032715,1.058106,1.816794,2.40458,-0.938931,1.059079,3.156634,14964,25175,10209,14964,0,104.0,0,normal
1780598904.9306347,3.2288421999983257,849236,0.054688,-0.010254,1.056152,2.671756,3.282443,-0.916031,1.057617,4.330338,14967,25180,10211,14967,1,104.0,13,normal
1780598904.9615831,3.2597907000017585,849267,0.054443,-0.01709,1.047607,0.473282,2.793893,-1.305344,1.04916,3.119897,14972,25187,10213,14972,0,104.0,0,normal
1780598904.9924934,3.2907009000045946,849298,0.025879,-0.040283,1.05542,2.045802,2.19084,-0.961832,1.056505,3.148048,14974,25191,10215,14974,0,104.0,0,normal
1780598905.0237408,3.321948299999349,849329,0.053711,-0.034912,1.05835,2.29771,3.206107,-0.633588,1.060286,3.995,14977,25197,10218,14977,0,104.0,6,normal
1780598905.0536628,3.3518703000008827,849360,0.05542,-0.002197,1.048096,0.89313,3.099237,-0.89313,1.049562,3.346734,14981,25203,10220,14981,0,104.0,0,normal
1780598905.0864289,3.384636300004786,849391,0.066895,-0.038818,1.058594,1.923664,2.236641,-0.938931,1.061415,3.095907,14983,25208,10223,14983,1,104.0,14,normal
1780598905.116381,3.414588500003447,849422,0.017578,-0.022705,1.048828,1.801527,2.061069,-0.778626,1.049221,2.846008,14987,25213,10224,14987,0,104.0,0,normal
1780598905.1475117,3.4457191999972565,849453,0.061523,-0.020508,1.062012,1.19084,2.870229,-0.992366,1.06399,3.262071,14989,25217,10226,14989,0,97.122,0,normal
1780598905.1781814,3.4763890000031097,849484,0.045654,-0.059814,1.050781,1.824428,2.320611,-0.900763,1.053472,3.086283,14991,25222,10229,14991,1,97.122,14,normal
1780598905.209805,3.5080124999949476,849515,0.045654,-0.018799,1.055908,1.526718,2.152672,-0.534351,1.057062,2.692656,14996,25229,10231,14996,0,97.122,1,normal
1780598905.23972,3.5379277000029106,849546,0.0354,-0.045898,1.070557,1.099237,2.358779,-0.78626,1.072125,2.718522,14998,25233,10233,14998,0,97.122,0,normal
1780598905.2710948,3.5693024000065634,849577,0.055664,-0.004639,1.052246,2.80916,2.969466,-0.320611,1.053728,4.100232,15001,25238,10235,15001,1,97.122,14,normal
1780598905.3028657,3.60107330000028,849608,0.056885,-0.009521,1.044189,0.694656,2.167939,-0.877863,1.045781,2.439908,15006,25245,10237,15006,0,97.122,1,normal
1780598905.3343334,3.632540999999037,849639,0.047119,-0.047852,1.057617,1.526718,2.458015,-1.351145,1.059747,3.193477,15008,25249,10239,15008,0,97.122,1,normal
1780598905.3652284,3.663436000002548,849670,0.047607,-0.034668,1.05542,2.328244,2.496183,-0.526718,1.057062,3.45385,15012,25255,10241,15012,0,97.122,6,normal
1780598905.3960779,3.694285300007323,849702,0.037109,0.006348,1.056396,0.908397,3.236641,-1.137405,1.057067,3.548904,15016,25261,10243,15016,0,97.122,1,normal
1780598905.4274518,3.725659400006407,849732,0.058105,-0.039551,1.056396,2.503817,2.793893,-0.572519,1.058732,3.795091,15018,25266,10246,15018,1,103.943,13,normal
1780598905.4596822,3.7578898000065237,849764,0.020508,-0.012939,1.046631,1.923664,2.236641,-0.778626,1.046912,3.051116,15023,25273,10248,15023,0,103.943,0,normal
1780598905.4910665,3.7892739999952028,849796,0.039795,-0.043701,1.044434,0.824427,2.435115,-0.236641,1.046105,2.581756,15024,25275,10249,15024,0,103.943,6,normal
1780598905.5223489,3.8205564999952912,849827,0.040039,-0.030273,1.055908,2.656489,2.916031,-0.824427,1.057101,4.02987,15027,25280,10251,15027,1,103.943,13,normal
1780598905.5531545,3.851362000001245,849859,0.034668,-0.021973,1.045166,0.900763,2.832061,-0.961832,1.045972,3.12363,15032,25287,10253,15032,0,103.943,0,normal
1780598905.5856557,3.8838632999977563,849890,0.01709,-0.031982,1.050537,1.78626,2.694656,-0.931298,1.051163,3.364404,15034,25291,10255,15034,0,103.943,0,normal
1780598905.6157272,3.9139348000026075,849921,0.043701,-0.032471,1.05835,2.442748,2.862595,-0.656489,1.059749,3.820006,15039,25297,10256,15039,0,103.943,5,normal
1780598905.6480799,3.946287400001893,849952,0.054932,-0.018799,1.056396,0.885496,3.473282,-1.198473,1.057991,3.779435,15043,25303,10258,15043,0,103.943,0,normal
1780598905.6784666,3.976674000005005,849984,0.005371,-0.04834,1.035156,1.931298,2.801527,-0.740458,1.036298,3.482347,15045,25308,10261,15045,1,107.143,14,normal
1780598905.7082376,4.006445100007113,850015,0.021484,-0.005859,1.052978,1.572519,2.519084,-0.51145,1.053214,3.013334,15050,25315,10263,15050,0,107.143,1,normal
1780598905.7398212,4.038028599999961,850045,0.059814,-0.005371,1.065918,1.40458,3.290076,-1.328244,1.067608,3.815977,15052,25319,10265,15052,0,107.143,0,normal
1780598905.7718034,4.070010900002671,850076,0.050781,-0.070801,1.045654,1.793893,2.740458,-0.618321,1.049278,3.333239,15054,25324,10268,15054,1,107.143,14,normal
1780598905.8016472,4.099854800006142,850107,0.045166,-0.002197,1.055908,1.725191,2.328244,-0.580153,1.056876,2.955264,15059,25331,10270,15059,0,107.143,1,normal
1780598905.832028,4.130235500007984,850138,0.036133,-0.047363,1.051758,1.061069,2.549618,-0.931298,1.053444,2.914401,15061,25335,10272,15061,0,107.143,0,normal
1780598905.864194,4.162401499997941,850169,0.059326,-0.018311,1.052002,2.877863,2.633588,-0.526718,1.053832,3.936408,15064,25340,10274,15064,1,107.143,14,normal
1780598905.893724,4.191931599998497,850200,0.052979,0.002441,1.058106,0.748092,2.78626,-0.648855,1.059434,2.957008,15069,25347,10276,15069,0,107.143,0,normal
1780598905.926048,4.224255599998287,850231,0.036621,-0.039062,1.060791,1.862595,2.053435,-0.984733,1.062141,2.942033,15070,25349,10277,15070,0,107.143,5,normal
1780598905.9556015,4.253809000001638,850262,0.057617,-0.009277,1.065674,2.564885,3.725191,-0.633588,1.06727,4.56696,15073,25355,10280,15073,0,100.719,6,normal
1780598905.9877307,4.285938300003181,850293,0.045898,-0.023438,1.054199,0.580153,2.534351,-1.061069,1.055458,2.808092,15077,25361,10282,15077,0,100.719,0,normal
1780598906.0189135,4.317121100000804,850324,0.081299,-0.032715,1.066406,2.549618,2.908397,-0.778626,1.070001,3.945324,15079,25366,10285,15079,1,100.719,14,normal
1780598906.0498524,4.348059900003136,850355,0.052734,-0.033936,1.052978,1.954198,2.526718,-0.694656,1.054844,3.268905,15083,25372,10287,15083,1,100.719,3,normal
1780598906.0811632,4.379370599999675,850387,0.047363,-0.001709,1.065674,0.916031,2.541985,-1.175572,1.066727,2.946654,15085,25375,10288,15085,0,100.719,6,normal
1780598906.1118057,4.410013300002902,850418,0.025635,-0.047119,1.040283,1.763359,2.381679,-0.694656,1.041665,3.043744,15087,25380,10291,15087,1,100.719,14,normal
1780598906.142648,4.440855599998031,850449,0.036621,0.001465,1.050781,1.610687,2.671756,-0.343511,1.05142,3.138565,15092,25387,10293,15092,0,100.719,0,normal
1780598906.175099,4.47330630000215,850480,0.015869,-0.044434,1.049072,1.053435,2.717557,-1.022901,1.050133,3.088878,15094,25391,10295,15094,0,100.719,0,normal
1780598906.2051344,4.503341799994814,850511,0.046387,-0.002686,1.049561,2.70229,3.335878,-0.572519,1.050588,4.331077,15097,25396,10297,15097,1,100.719,14,normal
1780598906.235119,4.5333266999950865,850541,0.046875,-0.001465,1.057373,1.053435,2.328244,-0.580153,1.058413,2.6205,15102,25403,10299,15102,0,103.943,1,normal
1780598906.2673047,4.565512100001797,850572,0.067627,-0.054443,1.066162,0.824427,2.839695,-1.022901,1.069691,3.128877,15104,25407,10301,15104,0,103.943,0,normal
1780598906.2975004,4.595707800006494,850603,0.068115,-0.006104,1.059326,2.900763,3.366412,-0.305344,1.061531,4.454256,15108,25413,10303,15108,0,103.943,6,normal
1780598906.329651,4.627858699997887,850634,0.037598,-0.021484,1.052002,0.503817,2.496183,-1.21374,1.052893,2.82098,15112,25419,10305,15112,0,103.943,1,normal
1780598906.36006,4.658267499995418,850665,0.043213,-0.035645,1.047363,1.969466,3.496183,-0.664122,1.04886,4.067328,15114,25423,10307,15114,0,103.943,0,normal
1780598906.3919613,4.690168900007848,850697,0.032471,-0.036865,1.036865,1.931298,2.496183,-0.648855,1.038028,3.222088,15119,25430,10309,15119,1,103.943,3,normal
1780598906.4218912,4.7200987999967765,850728,0.053955,-0.001465,1.062256,0.89313,3.427481,-1.061069,1.063626,3.697455,15122,25435,10311,15122,0,103.943,1,normal
1780598906.4546676,4.752875000005588,850759,0.032471,-0.033936,1.046387,1.824428,2.801527,-0.732824,1.04744,3.42259,15124,25440,10314,15124,1,103.943,13,normal
1780598906.484943,4.783150500006741,850790,0.023193,-0.014648,1.046143,1.374046,2.465649,-0.442748,1.046502,2.857176,15127,25445,10316,15127,0,103.943,0,normal
1780598906.5169,4.815107700007502,850822,0.015381,-0.050781,1.049072,1.099237,2.312977,-0.526718,1.050413,2.614501,15129,25449,10318,15129,0,96.085,0,normal
1780598906.5469675,4.845175099995686,850853,0.032715,-0.002197,1.049561,2.671756,3.450382,-0.587786,1.050073,4.403284,15132,25454,10320,15132,1,96.085,13,normal
1780598906.579793,4.878000600001542,850884,0.033691,-0.021729,1.043457,0.839695,2.48855,-1.282443,1.044227,2.922777,15137,25461,10322,15137,0,96.085,0,normal
1780598906.6091113,4.907318900004611,850915,0.028076,-0.035645,1.053467,1.725191,2.282443,-1.0,1.054444,3.030813,15139,25465,10324,15139,0,96.085,0,normal
1780598906.6401336,4.938341200002469,850945,0.056641,-0.012939,1.052978,2.908397,3.687023,-0.854962,1.05458,4.773246,15143,25471,10326,15143,0,96.085,5,normal
1780598906.6718054,4.970012999998289,850976,0.027344,-0.023926,1.03833,0.687023,3.030534,-0.824427,1.038966,3.214937,15147,25477,10328,15147,0,96.085,0,normal
1780598906.7034347,5.001642200004426,851008,0.057617,-0.024902,1.061279,2.160305,2.656489,-0.717557,1.063134,3.498391,15149,25482,10331,15149,1,96.085,14,normal
1780598906.7344308,5.032638300006511,851040,0.051025,-0.019531,1.058838,1.748092,2.19084,-1.061069,1.060246,2.99691,15154,25489,10333,15154,0,96.085,1,normal
1780598906.766516,5.06472360000771,851071,0.038818,-0.015625,1.052734,0.480916,2.48855,-0.618321,1.053566,2.608923,15156,25493,10335,15156,0,96.085,1,normal
1780598906.7973933,5.09560080000665,851102,0.05835,-0.038574,1.059082,2.435115,2.137405,-1.152672,1.061389,3.439031,15158,25498,10338,15158,1,103.571,14,normal
1780598906.8276315,5.125839000000269,851133,0.058838,-0.004395,1.05127,1.374046,2.931298,-0.534351,1.052924,3.281164,15163,25505,10340,15163,0,103.571,1,normal
1780598906.859202,5.1574094999959925,851164,0.03833,-0.059082,1.049805,0.603053,2.167939,-0.832061,1.052164,2.399158,15165,25509,10342,15165,0,103.571,1,normal
1780598906.891037,5.189244399996824,851195,0.05835,-0.008789,1.062744,2.900763,3.099237,-0.435114,1.064381,4.267203,15169,25515,10344,15169,0,103.571,6,normal
1780598906.9205968,5.218804300006013,851226,0.051025,-0.02832,1.062012,0.412214,2.427481,-1.038168,1.063614,2.672148,15171,25519,10346,15171,0,103.571,0,normal
1780598906.9517434,5.249950800003717,851257,0.037354,-0.038818,1.062744,1.656489,2.320611,-0.900763,1.064109,2.990078,15173,25523,10348,15173,0,103.571,1,normal
1780598906.9840598,5.282267400005367,851288,0.026611,-0.040039,1.056885,2.145038,2.687023,-1.053435,1.057978,3.595971,15178,25529,10349,15178,0,103.571,6,normal
1780598907.0152442,5.313451800000621,851320,0.037109,-0.013916,1.053955,0.89313,3.167939,-0.610687,1.0547,3.347605,15182,25535,10351,15182,0,103.571,0,normal
1780598907.0452409,5.34344830000191,851351,0.015625,-0.046387,1.040283,2.152672,2.274809,-0.839695,1.041434,3.242505,15184,25540,10354,15184,1,103.571,14,normal
1780598907.0766544,5.374861899996176,851382,0.033447,-0.000977,1.051025,1.366412,2.51145,-0.099237,1.051558,2.860824,15187,25545,10356,15187,0,103.571,0,normal
1780598907.10731,5.405517499995767,851413,0.028564,-0.033447,1.055176,0.648855,2.251908,-1.0,1.056092,2.547961,15189,25549,10358,15189,0,103.571,0,normal
1780598907.1398919,5.438099300008616,851444,0.037109,-0.017822,1.049072,2.396947,2.801527,-0.564886,1.04988,3.730014,15191,25554,10361,15191,1,103.571,14,normal
1780598907.1698034,5.468011000004481,851475,0.032959,0.005859,1.05249,0.992366,2.656489,-0.70229,1.053022,2.921461,15196,25561,10363,15196,0,103.571,0,normal
1780598907.2018316,5.500039100006688,851506,0.051025,-0.063477,1.051514,1.450382,2.740458,-0.748092,1.054663,3.18957,15198,25565,10365,15198,0,103.571,0,normal
1780598907.23226,5.530467500007944,851537,0.044434,-0.004883,1.051025,2.923664,2.923664,-0.412214,1.051976,4.155183,15202,25571,10367,15202,0,103.571,6,normal
1780598907.2625265,5.560734099999536,851568,0.031006,-0.026123,1.05127,0.343511,2.473282,-0.931298,1.052051,2.66504,15206,25577,10369,15206,0,103.571,1,normal
1780598907.2949362,5.593143599995528,851599,0.036621,-0.036621,1.052246,2.068702,2.244275,-0.709924,1.05352,3.133734,15208,25581,10371,15208,0,103.571,0,normal
1780598907.3251877,5.623395300004631,851630,0.044922,-0.03418,1.066406,2.160305,2.274809,-0.854962,1.067899,3.251559,15213,25587,10372,15213,0,103.571,6,normal
1780598907.3554857,5.6536931000009645,851661,0.042969,-0.006592,1.064941,0.770992,3.320611,-0.923664,1.065828,3.53186,15217,25593,10374,15217,0,107.527,1,normal
1780598907.3873382,5.685545800006366,851692,0.031006,-0.048584,1.040283,2.21374,2.412214,-0.732824,1.041878,3.355064,15219,25598,10377,15219,1,107.527,14,normal
1780598907.4178412,5.716048600006616,851724,0.03418,-0.000977,1.057129,1.687023,2.732824,-0.610687,1.057682,3.269146,15225,25605,10378,15225,0,107.527,0,normal
1780598907.4492407,5.747448299996904,851755,0.012451,-0.041748,1.041992,0.847328,2.381679,-0.847328,1.042902,2.666144,15227,25609,10380,15227,0,107.527,1,normal
1780598907.4811225,5.7793300000048475,851786,0.055664,-0.007568,1.059082,2.641221,2.725191,-0.389313,1.060571,3.815007,15230,25614,10382,15230,1,107.527,14,normal
1780598907.512335,5.810542599996552,851817,0.031006,-0.005371,1.047363,0.78626,2.793893,-0.656489,1.047836,2.975738,15235,25621,10384,15235,0,107.527,0,normal
1780598907.5430944,5.841302000000724,851848,0.038086,-0.054199,1.057373,1.351145,2.847328,-0.717557,1.059446,3.232299,15237,25625,10386,15237,0,107.527,0,normal
1780598907.5742264,5.872434000004432,851879,0.062744,-0.018799,1.055664,2.748092,2.969466,-0.442748,1.057694,4.070106,15241,25631,10388,15241,0,107.527,6,normal
1780598907.605581,5.903788600000553,851910,0.046387,-0.029785,1.053467,1.007634,2.862595,-0.793893,1.054908,3.136884,15245,25637,10390,15245,0,107.527,0,normal
1780598907.6365602,5.9347677000041585,851941,0.040283,-0.033447,1.053223,2.305344,2.694656,-0.374046,1.054523,3.565907,15247,25642,10393,15247,1,107.143,14,normal
1780598907.6675732,5.965780700003961,851973,0.039062,-0.009521,1.047607,2.160305,2.152672,-1.0,1.048379,3.209504,15253,25649,10394,15253,0,107.143,1,normal
1780598907.698044,5.9962516999949,852003,0.054932,-0.001465,1.068604,1.381679,3.160305,-0.633588,1.070015,3.506851,15255,25653,10396,15255,0,107.143,0,normal
1780598907.728518,6.0267256000079215,852034,0.029541,-0.043945,1.043945,1.854962,2.839695,-0.793893,1.045287,3.483535,15256,25656,10398,15256,1,107.143,17,normal
1780598907.7599316,6.058139200002188,852065,0.062012,-0.007813,1.061768,1.419847,2.80916,-0.572519,1.063606,3.199238,15262,25663,10399,15262,0,107.143,0,normal
1780598907.7907424,6.088950000004843,852096,0.023682,-0.020264,1.052978,0.618321,2.251908,-1.152672,1.05344,2.60424,15264,25667,10401,15264,0,107.143,0,normal
1780598907.8230438,6.121251400007168,852127,0.047607,-0.034912,1.043457,2.580153,2.80916,-0.755725,1.045126,3.888405,15267,25672,10403,15267,1,107.143,14,normal
1780598907.8519406,6.15014820000215,852158,0.039307,0.004395,1.050781,1.267176,2.931298,-0.916031,1.051525,3.322251,15272,25679,10405,15272,0,107.143,1,normal
1780598907.8832307,6.181438300001901,852189,0.044922,-0.040283,1.048584,1.358779,2.885496,-0.442748,1.050318,3.219999,15273,25681,10406,15273,0,107.143,6,normal
1780598907.9152653,6.213472899995395,852220,0.050049,-0.014404,1.056152,2.641221,3.793893,-0.236641,1.057436,4.628788,15277,25687,10408,15277,0,107.527,6,normal
1780598907.9465485,6.244755899999291,852252,0.059082,-0.022705,1.057617,0.946565,2.946565,-1.061069,1.059509,3.271712,15281,25693,10410,15281,0,107.527,1,normal
1780598907.9839551,6.282162600007723,852283,0.056641,-0.028809,1.04834,1.992366,2.923664,-0.572519,1.050264,3.584008,15283,25698,10413,15283,1,107.527,14,normal
1780598908.0099456,6.308153200006927,852314,0.038086,-0.040039,1.060059,1.51145,2.10687,-0.923664,1.061498,2.752551,15288,25705,10415,15288,0,107.527,0,normal
1780598908.0413558,6.339563400004408,852346,0.025391,-0.032227,1.057373,1.129771,2.549618,-1.068702,1.058169,2.98648,15290,25709,10417,15290,0,107.527,1,normal
1780598908.0713289,6.369536500002141,852377,0.03125,-0.05957,1.040527,2.183206,2.580153,-0.687023,1.0427,3.448996,15292,25714,10420,15292,1,107.527,14,normal
1780598908.1016877,6.399895099995774,852407,0.056641,-0.003662,1.060059,1.748092,2.625954,-0.282443,1.061577,3.167212,15297,25721,10422,15297,0,107.527,0,normal
1780598908.1334739,6.431681500005652,852438,0.034912,-0.046143,1.061279,1.114504,2.358779,-1.114504,1.062856,2.836913,15299,25725,10424,15299,0,107.527,0,normal
1780598908.1650708,6.46327829999791,852469,0.062744,-0.012451,1.047852,2.587786,2.832061,-0.648855,1.049802,3.890787,15302,25730,10426,15302,1,107.527,13,normal
1780598908.1940544,6.492261999999755,852500,0.057129,0.00415,1.047607,0.48855,2.839695,-0.694656,1.049172,2.963966,15307,25737,10428,15307,0,107.143,0,normal
1780598908.225915,6.524122400005581,852531,0.038574,-0.05835,1.04541,1.694656,2.427481,-0.541985,1.047748,3.009696,15309,25741,10430,15309,0,107.143,0,normal
1780598908.257036,6.555243599999812,852562,0.06665,-0.01123,1.053467,3.137405,3.801527,-0.40458,1.055633,4.945564,15313,25747,10432,15313,0,107.143,6,normal
1780598908.288812,6.587019500002498,852593,0.062744,-0.044189,1.058838,0.59542,2.969466,-0.908397,1.061615,3.161872,15317,25753,10434,15317,0,107.143,0,normal
1780598908.3189662,6.617173699996783,852624,0.051758,-0.041016,1.049316,2.40458,2.89313,-0.778626,1.051392,3.841674,15319,25758,10437,15319,1,107.143,14,normal
1780598908.3508832,6.6490907999977935,852655,0.034424,-0.041748,1.05127,1.832061,2.290076,-0.854962,1.052661,3.054809,15323,25763,10438,15323,0,107.143,5,normal
1780598908.3813112,6.679518699995242,852686,0.065674,-0.003174,1.07251,0.954198,3.40458,-0.984733,1.074523,3.670335,15327,25769,10440,15327,0,107.143,0,normal
1780598908.4125006,6.710708099999465,852717,0.044678,-0.045898,1.05127,1.854962,2.206107,-0.847328,1.053219,3.00429,15329,25774,10443,15329,1,107.143,14,normal
1780598908.4436789,6.741886300005717,852749,0.050293,-0.003906,1.05835,1.938931,2.732824,-0.267176,1.059551,3.361423,15334,25781,10445,15334,0,107.143,1,normal
1780598908.475762,6.773969300003955,852780,0.039307,-0.04834,1.05835,1.328244,2.290076,-0.954198,1.060182,2.814103,15336,25785,10447,15336,0,103.571,0,normal
1780598908.5054474,6.80365499999607,852811,0.042725,-0.004639,1.045166,2.549618,3.29771,-0.557252,1.046049,4.20547,15339,25790,10449,15339,1,103.571,14,normal
1780598908.5358646,6.834072199999355,852841,0.068115,0.005859,1.043701,1.412214,2.419847,-0.59542,1.045938,2.864356,15344,25797,10451,15344,0,103.571,1,normal
1780598908.5658655,6.864073000004282,852872,0.055664,-0.048828,1.054932,1.374046,2.40458,-0.541985,1.057527,2.822012,15346,25801,10453,15346,0,103.571,1,normal
1780598908.5981708,6.8963783000072,852903,0.058838,-0.005615,1.05542,3.053435,3.21374,-0.984733,1.057074,4.541067,15350,25807,10455,15350,0,103.571,6,normal
1780598908.6277616,6.925969100004295,852934,0.049561,-0.031006,1.055664,0.572519,2.435115,-1.122137,1.057282,2.74167,15354,25813,10457,15354,0,103.571,1,normal
1780598908.6588812,6.957088800001657,852964,0.019775,-0.041992,1.051025,1.78626,2.625954,-0.755725,1.05205,3.264579,15356,25817,10459,15356,0,103.571,1,normal
1780598908.6916454,6.989852900005644,852995,0.051514,-0.033936,1.054443,2.389313,3.114504,-0.572519,1.056246,3.966954,15359,25823,10462,15359,0,103.571,6,normal
1780598908.7205858,7.018793399998685,853027,0.0625,0.005127,1.061523,1.129771,3.083969,-1.030534,1.063374,3.442274,15361,25827,10464,15361,0,103.571,0,normal
1780598908.752632,7.050839400006225,853057,0.045166,-0.043945,1.053711,2.335878,3.068702,-0.290076,1.055594,3.86748,15363,25832,10467,15363,1,97.473,14,normal
1780598908.7840922,7.082299800007604,853089,0.042725,-0.016113,1.049561,2.007634,1.961832,-0.709924,1.050553,2.895405,15368,25839,10469,15368,0,97.473,0,normal
1780598908.8165157,7.114723100006813,853121,0.02417,-0.04541,1.058838,1.167939,2.259542,-1.030534,1.060087,2.744378,15370,25843,10471,15370,0,97.473,0,normal
1780598908.8468678,7.145075299995369,853152,0.055176,-0.030762,1.048096,2.709924,2.503817,-0.717557,1.049998,3.75868,15373,25848,10473,15373,1,97.473,14,normal
1780598908.8777175,7.175924900002428,853183,0.07251,0.001221,1.050049,1.061069,3.015267,-0.885496,1.05255,3.316897,15378,25855,10475,15378,0,97.473,0,normal
1780598908.9099276,7.208135100008803,853214,0.023682,-0.034912,1.047363,1.870229,2.625954,-0.870229,1.048212,3.339265,15380,25859,10477,15380,0,97.473,0,normal
1780598908.939899,7.238106599994353,853245,0.052002,-0.010254,1.057373,2.709924,2.725191,-0.496183,1.058701,3.875119,15384,25865,10479,15384,0,97.473,6,normal
1780598908.9721112,7.270318700000644,853276,0.040771,-0.020752,1.055908,0.564886,2.839695,-0.984733,1.056899,3.058212,15388,25871,10481,15388,0,97.473,0,normal
1780598909.005962,7.304169299997739,853308,0.041504,-0.028076,1.049805,2.129771,2.793893,-0.78626,1.051,3.599995,15390,25876,10484,15390,1,107.57,14,normal
1780598909.0346017,7.332809300001827,853340,0.025879,-0.025146,1.045166,1.770992,2.259542,-0.381679,1.045789,2.896139,15395,25883,10486,15395,0,107.57,0,normal
1780598909.0653582,7.363565699997707,853371,0.040771,-0.025391,1.053955,0.748092,2.70229,-0.78626,1.055049,2.912081,15397,25887,10488,15397,0,107.57,1,normal
1780598909.0974457,7.395653200001107,853401,0.036377,-0.061279,1.054932,1.427481,2.343511,-0.870229,1.057336,2.878723,15398,25890,10490,15398,1,107.57,17,normal
1780598909.1276205,7.425828000006732,853432,0.048584,-0.014404,1.05127,1.656489,2.854962,-0.305344,1.05249,3.314815,15403,25897,10492,15403,0,107.57,0,normal
1780598909.158407,7.456614499998977,853463,0.020996,-0.050293,1.053223,1.030534,2.694656,-0.870229,1.054632,3.013382,15405,25901,10494,15405,0,107.57,1,normal
1780598909.188787,7.486994399994728,853494,0.039307,-0.019043,1.046875,2.557252,3.641221,-0.70229,1.047786,4.50458,15408,25906,10496,15408,1,107.57,14,normal
1780598909.2197678,7.517975299997488,853525,0.044189,0.007813,1.050537,1.08397,2.10687,-1.045802,1.051495,2.589902,15413,25913,10498,15413,0,107.57,0,normal
1780598909.2507162,7.548923800000921,853556,0.026611,-0.033691,1.046143,1.587786,2.557252,-0.625954,1.047023,3.074479,15415,25917,10500,15415,0,107.57,0,normal
1780598909.2818792,7.580086700007087,853587,0.038818,-0.009766,1.058106,2.832061,3.030534,-0.396947,1.058862,4.166806,15419,25923,10502,15419,0,103.943,6,normal
1780598909.313336,7.611543300008634,853618,0.026367,-0.026855,1.055908,0.541985,3.175573,-0.862595,1.056579,3.334978,15423,25929,10504,15423,0,103.943,0,normal
1780598909.3446136,7.642821100002038,853649,0.048828,-0.028564,1.052002,2.282443,2.656489,-0.458015,1.053522,3.532174,15425,25934,10507,15425,1,103.943,14,normal
1780598909.3753808,7.673588200006634,853680,0.03418,-0.035645,1.053223,1.801527,2.687023,-0.503817,1.05438,3.274053,15429,25939,10508,15429,1,103.943,6,normal
1780598909.4075797,7.705787200000486,853712,0.053711,-0.012939,1.069824,1.137405,2.274809,-1.061069,1.07125,2.755778,15433,25945,10510,15433,0,103.943,0,normal
1780598909.4376528,7.73586040000373,853743,0.043701,-0.058105,1.050293,1.59542,1.725191,-0.755725,1.052806,2.468354,15435,25950,10513,15435,1,103.943,14,normal
1780598909.469558,7.767765500000678,853774,0.062012,-0.010498,1.054199,1.625954,2.412214,-0.526718,1.056074,2.956338,15440,25957,10515,15440,0,103.943,1,normal
1780598909.500169,7.798376599996118,853805,0.027344,-0.046143,1.044922,1.122137,2.160305,-0.969466,1.046298,2.6203,15442,25961,10517,15442,0,103.943,0,normal
1780598909.530919,7.829126600001473,853836,0.050537,-0.007813,1.052978,2.709924,3.099237,-0.557252,1.05422,4.154454,15444,25964,10518,15444,1,103.943,16,normal
1780598909.5619433,7.860150900000008,853867,0.046875,-0.032959,1.046387,0.687023,2.419847,-0.717557,1.047955,2.615827,15449,25971,10520,15449,0,107.143,1,normal
1780598909.5914903,7.889697899998282,853898,0.037598,-0.032471,1.052246,1.679389,2.961832,-0.793893,1.053418,3.49615,15451,25975,10522,15451,0,107.143,0,normal
1780598909.6287436,7.926951200002804,853934,0.038818,-0.00293,1.052002,2.625954,3.801527,-0.343511,1.052722,4.63306,15457,25983,10524,15457,0,107.143,0,normal
1780598909.6595917,7.957799099996919,853965,0.026855,-0.049561,1.053955,1.312977,2.40458,-0.78626,1.055461,2.850284,15459,25987,10526,15459,0,107.143,0,normal
1780598909.6916769,7.989884299997357,853996,0.050781,-0.001221,1.060303,2.977099,3.145038,-0.664122,1.061519,4.38126,15462,25991,10527,15462,0,107.143,6,normal
1780598909.7218542,8.020061700008227,854027,0.03418,-0.033203,1.04541,0.251908,2.641221,-1.022901,1.046496,2.84356,15466,25997,10529,15466,0,107.143,0,normal
1780598909.753696,8.051903500003391,854058,0.021484,-0.025146,1.057617,1.992366,2.748092,-0.923664,1.058134,3.517768,15468,26001,10531,15468,0,107.143,0,normal
1780598909.78419,8.08239749999484,854089,0.055664,-0.04126,1.056396,2.206107,2.854962,-0.709924,1.058666,3.677188,15473,26007,10532,15473,0,107.143,7,normal
1780598909.8160694,8.114276799999061,854121,0.050049,-0.010742,1.068604,1.19084,3.007634,-1.038168,1.069829,3.397316,15477,26013,10534,15477,0,110.236,0,normal
1780598909.849454,8.14766139999847,854153,0.027832,-0.057617,1.047607,1.625954,2.419847,-0.312977,1.04956,2.932122,15479,26018,10537,15479,1,110.236,14,normal
1780598909.8813012,8.179508600005647,854184,0.043701,-0.009521,1.061523,1.709924,2.198473,-0.366412,1.062465,2.80916,15484,26025,10539,15484,0,110.236,1,normal
1780598909.9099708,8.208178300003055,854215,0.038574,-0.048828,1.048828,1.374046,2.969466,-0.847328,1.050672,3.379896,15486,26029,10541,15486,0,110.236,0,normal
1780598909.9402273,8.238434800005052,854246,0.029297,0.002441,1.047363,2.740458,3.076336,-0.412214,1.047776,4.140516,15489,26034,10543,15489,1,110.236,14,normal
1780598909.97138,8.269587600007071,854277,0.042725,-0.008057,1.049805,1.068702,2.40458,-0.59542,1.050705,2.697898,15494,26041,10545,15494,0,110.236,1,normal
1780598910.002332,8.300539600008051,854307,0.040283,-0.055176,1.053467,1.351145,2.137405,-1.183206,1.05568,2.791786,15496,26045,10547,15496,0,110.236,0,normal
1780598910.0328581,8.331065699996543,854338,0.05127,-0.006348,1.061523,3.221374,3.351145,-0.78626,1.06278,4.714406,15500,26051,10549,15500,0,110.236,6,normal
1780598910.0647275,8.36293509999814,854369,0.049072,-0.037842,1.056152,0.557252,2.473282,-1.061069,1.057969,2.748367,15503,26055,10550,15503,0,110.236,6,normal
1780598910.0957243,8.393931900005555,854400,0.027344,-0.028076,1.04834,2.022901,2.450382,-0.916031,1.049072,3.306904,15505,26059,10552,15505,0,100.358,1,normal
1780598910.127313,8.425520400007372,854432,0.025879,-0.038818,1.052734,1.709924,2.51145,-0.80916,1.053768,3.144195,15510,26065,10553,15510,0,100.358,6,normal
1780598910.157298,8.455505599995377,854463,0.030029,-0.001709,1.064941,0.938931,3.007634,-0.977099,1.065366,3.298814,15514,26071,10555,15514,0,100.358,0,normal
1780598910.1892612,8.487468699997407,854494,0.020996,-0.048584,1.043701,1.839695,3.007634,-0.396947,1.045042,3.547944,15516,26076,10558,15516,1,100.358,14,normal
1780598910.2210827,8.51929029999883,854525,0.029053,-0.018555,1.048828,1.59542,2.541985,-0.610687,1.049394,3.062677,15521,26083,10560,15521,0,100.358,1,normal
1780598910.2509005,8.549108000006527,854556,0.021729,-0.04834,1.056396,1.122137,2.351145,-0.885496,1.057725,2.751578,15523,26087,10562,15523,0,100.358,0,normal
1780598910.282907,8.581114600005094,854587,0.037842,-0.04126,1.047363,2.251908,3.290076,-0.580153,1.048858,4.028929,15526,26092,10564,15526,1,100.358,14,normal
1780598910.314109,8.612316600003396,854619,0.044189,-0.019531,1.043213,0.641221,3.389313,-0.977099,1.044331,3.585154,15531,26099,10566,15531,0,100.358,1,normal
1780598910.34446,8.642667599997367,854650,0.038086,-0.033936,1.042725,1.687023,2.778626,-0.801527,1.043972,3.348022,15533,26103,10568,15533,0,112.0,0,normal
1780598910.3760326,8.674240199994529,854681,0.044678,-0.021729,1.064697,2.381679,3.351145,-0.351145,1.065856,4.126242,15537,26109,10570,15537,0,112.0,6,normal
1780598910.4080303,8.706237699996564,854712,0.028564,-0.02832,1.047852,0.549618,3.038168,-0.870229,1.048623,3.207779,15541,26115,10572,15541,0,112.0,1,normal
1780598910.4378488,8.736056299996562,854743,0.033691,-0.037354,1.050293,2.48855,2.679389,-0.610687,1.051497,3.707418,15543,26120,10575,15543,1,112.0,14,normal
1780598910.46943,8.76763740000024,854774,0.047363,-0.040527,1.058106,1.748092,2.610687,-0.396947,1.05994,3.166872,15548,26127,10577,15548,0,112.0,0,normal
1780598910.4995766,8.797784199996386,854805,0.037354,0.001709,1.063477,1.091603,3.038168,-0.78626,1.064134,3.32269,15550,26131,10579,15550,0,112.0,0,normal
1780598910.5300627,8.828270199999679,854835,0.055176,-0.029053,1.048096,2.152672,2.740458,-0.587786,1.049949,3.534063,15552,26136,10582,15552,1,112.0,13,normal
1780598910.561857,8.860064499996952,854866,0.02002,-0.019043,1.048828,1.587786,2.732824,-0.671756,1.049192,3.2312,15557,26143,10584,15557,0,112.0,1,normal
1780598910.591622,8.88982969999779,854898,0.023682,-0.043457,1.045654,1.160305,3.0,-0.603053,1.046825,3.272611,15559,26147,10586,15559,0,112.0,0,normal
1780598910.6235476,8.921755100003793,854928,0.037354,-0.066895,1.043945,1.534351,2.442748,-0.679389,1.046753,2.963582,15561,26152,10589,15561,1,100.719,13,normal
1780598910.6539829,8.952190399999381,854959,0.048584,-0.018799,1.052978,2.015267,2.51145,-0.770992,1.054266,3.311059,15565,26157,10590,15565,0,100.719,6,normal
1780598910.6855385,8.983745999998064,854990,0.041016,-0.052979,1.052734,1.473282,2.183206,-0.992366,1.054864,2.814559,15567,26161,10592,15567,0,100.719,0,normal
1780598910.716622,9.01482969999779,855021,0.044678,-0.00708,1.060059,2.503817,3.061069,-0.824427,1.061023,4.039668,15570,26166,10594,15570,1,100.719,14,normal
1780598910.7475326,9.04574020000291,855052,0.054443,-0.021973,1.047607,0.549618,2.412214,-0.748092,1.049251,2.584666,15575,26173,10596,15575,0,100.719,0,normal
1780598910.7783048,9.076512300001923,855083,0.041748,-0.041992,1.053223,1.877863,2.450382,-0.900763,1.054886,3.215916,15577,26177,10598,15577,0,100.719,0,normal
1780598910.8098164,9.108024000001024,855114,0.040527,-0.033203,1.050781,1.816794,3.419847,-0.70229,1.052087,3.935646,15580,26183,10601,15580,0,100.719,6,normal
1780598910.8407273,9.138934800008428,855146,0.042236,0.012939,1.058106,0.839695,3.641221,-0.900763,1.059027,3.84382,15582,26187,10603,15582,0,100.719,1,normal
1780598910.8719752,9.17018270000699,855177,0.039307,-0.027344,1.048096,2.099237,2.603053,-0.129771,1.049189,3.346569,15584,26192,10606,15584,1,100.719,14,normal
1780598910.9033804,9.20158779999474,855208,0.02417,-0.016357,1.052978,1.587786,2.816794,-0.29771,1.053383,3.247157,15589,26199,10608,15589,0,100.0,0,normal
1780598910.933637,9.231844399997499,855239,0.025879,-0.019775,1.056885,1.030534,2.961832,-0.931298,1.057386,3.271355,15591,26203,10610,15591,0,100.0,0,normal
1780598910.9641259,9.262333300008322,855270,0.033447,-0.065186,1.050293,1.70229,2.679389,-0.755725,1.052845,3.263133,15593,26208,10613,15593,1,100.0,13,normal
1780598910.995051,9.293258400008199,855300,0.032715,-0.011963,1.058106,1.343511,1.992366,-0.679389,1.058679,2.497222,15598,26215,10615,15598,0,100.0,1,normal
1780598911.0269768,9.325184300003457,855331,0.031738,-0.046387,1.052978,1.045802,2.351145,-1.022901,1.054477,2.769099,15600,26219,10617,15600,0,100.0,0,normal
1780598911.0576146,9.355821999997715,855362,0.043213,-0.024902,1.047363,2.412214,2.916031,-0.51145,1.04855,3.818847,15603,26224,10619,15603,1,100.0,13,normal
1780598911.087787,9.385994399999618,855393,0.049316,0.006592,1.049316,0.89313,1.603053,-0.854962,1.050495,2.024456,15608,26231,10621,15608,0,100.0,0,normal
1780598911.1190405,9.417247999997926,855424,0.037354,-0.038574,1.054688,1.435114,2.633588,-0.992366,1.056054,3.159134,15610,26235,10623,15610,0,100.0,0,normal
1780598911.150193,9.448400599998422,855455,0.047607,-0.011963,1.05957,2.717557,2.816794,-0.618321,1.060707,3.962545,15614,26241,10625,15614,0,100.0,5,normal
1780598911.1819015,9.480108999996446,855486,0.05249,-0.035889,1.052978,0.557252,2.80916,-0.854962,1.054897,2.988791,15618,26247,10627,15618,0,104.317,0,normal
1780598911.2133539,9.511561399995117,855517,0.057617,-0.043213,1.054688,2.122137,2.541985,-0.526718,1.057144,3.352996,15619,26250,10629,15619,1,104.317,17,normal
1780598911.2440162,9.542223700002069,855549,0.019287,-0.030518,1.041504,1.824428,2.480916,-0.610687,1.042129,3.139494,15624,26257,10631,15624,0,104.317,0,normal
1780598911.2758155,9.574022900007549,855580,0.038818,-0.013672,1.063477,1.374046,3.167939,-0.969466,1.064272,3.5866,15626,26261,10633,15626,0,104.317,0,normal
1780598911.3063772,9.604584700005944,855611,0.027832,-0.05542,1.04248,1.717557,2.206107,-1.068702,1.044323,2.993165,15628,26266,10636,15628,1,104.317,14,normal
1780598911.3363683,9.63457589999598,855642,0.030273,-0.001953,1.049805,1.389313,2.51145,-0.732824,1.050243,2.962196,15633,26273,10638,15633,0,104.317,1,normal
1780598911.3690507,9.667258300003596,855673,0.010742,-0.050537,1.044189,1.549618,1.931298,-0.839695,1.045467,2.614635,15635,26277,10640,15635,0,104.317,1,normal
1780598911.3991463,9.697353900002781,855704,0.044678,-0.00708,1.05249,2.526718,3.259542,-0.885496,1.053462,4.218178,15638,26282,10642,15638,1,104.317,14,normal
1780598911.4294002,9.727607799999532,855735,0.035156,0.000488,1.051758,0.633588,2.015267,-1.0,1.052345,2.33725,15643,26289,10644,15643,0,104.317,1,normal
1780598911.4597182,9.757925800004159,855765,0.059326,-0.068848,1.049316,1.221374,2.381679,-0.778626,1.053245,2.787546,15645,26293,10646,15645,0,96.774,1,normal
1780598911.4912415,9.789449000003515,855796,0.05835,-0.006348,1.056396,2.984733,2.664122,-0.961832,1.058026,4.114766,15649,26299,10648,15649,0,96.774,6,normal
1780598911.522086,9.820293500000844,855827,0.052734,-0.041992,1.05542,0.687023,2.473282,-0.870229,1.057571,2.710429,15653,26305,10650,15653,0,96.774,0,normal
1780598911.5528207,9.851028300006874,855858,0.031006,-0.024414,1.051514,1.992366,2.389313,-0.557252,1.052254,3.160518,15655,26309,10652,15655,0,96.774,1,normal
1780598911.584149,9.882356500005699,855889,0.052002,-0.037354,1.063232,2.114504,2.954198,-0.862595,1.065158,3.733964,15659,26315,10654,15659,0,96.774,6,normal
1780598911.6142242,9.912431600008858,855920,0.066162,-0.003906,1.065918,0.923664,3.083969,-0.89313,1.067976,3.340914,15663,26321,10656,15663,0,96.774,0,normal
1780598911.6473944,9.945601900006295,855951,0.026855,-0.045166,1.041016,2.007634,1.694656,-0.748092,1.042341,2.731684,15664,26324,10658,15664,1,96.774,18,normal
1780598911.6790946,9.977302100000088,855983,0.04248,-0.022461,1.05835,1.412214,2.610687,-0.267176,1.05944,2.98017,15670,26331,10659,15670,0,96.774,0,normal
1780598911.70858,10.006787599995732,856014,0.007568,-0.043945,1.049805,1.091603,1.80916,-1.328244,1.050751,2.495775,15672,26335,10661,15672,0,96.774,0,normal
1780598911.7403665,10.03857400000561,856045,0.046143,-0.033203,1.052002,2.427481,2.900763,-0.564886,1.053537,3.82442,15674,26340,10664,15674,1,103.571,13,normal
1780598911.771031,10.069238399999449,856076,0.030762,-0.019775,1.049072,0.709924,2.290076,-0.938931,1.049709,2.574885,15679,26347,10666,15679,0,103.571,0,normal
1780598911.8028316,10.10103920000256,856108,0.047363,-0.020508,1.055176,1.770992,2.679389,-0.770992,1.056437,3.303024,15681,26351,10668,15681,0,103.571,0,normal
1780598911.8341215,10.132329000000027,856139,0.056152,-0.035645,1.053711,2.236641,3.274809,-0.541985,1.055808,4.002585,15685,26357,10670,15685,0,103.571,6,normal
1780598911.8651755,10.163383100007195,856170,0.066162,0.008545,1.060547,1.08397,3.877863,-0.824427,1.062643,4.110048,15688,26361,10671,15688,0,103.571,6,normal
1780598911.8968506,10.195058099998278,856201,0.047607,-0.030029,1.049561,2.267176,2.801527,-0.709924,1.051069,3.673232,15690,26366,10674,15690,1,103.571,14,normal
1780598911.928874,10.227081500008353,856232,0.035889,-0.0354,1.046631,1.465649,2.450382,-0.633588,1.047844,2.92471,15695,26373,10676,15695,0,103.571,1,normal
1780598911.9563422,10.254549799996312,856263,0.051514,-0.009521,1.064453,1.312977,3.29771,-0.694656,1.065741,3.616815,15697,26377,10678,15697,0,103.571,0,normal
1780598911.9889936,10.287201200000709,856293,0.028564,-0.041504,1.054443,1.687023,2.694656,-0.717557,1.055646,3.259158,15699,26382,10681,15699,1,103.571,14,normal
1780598912.0185418,10.31674930000736,856325,0.049072,-0.004395,1.065918,1.70229,2.137405,-0.717557,1.067056,2.825098,15704,26389,10683,15704,0,107.143,1,normal
1780598912.04989,10.348097599999164,856355,0.015137,-0.036621,1.055664,0.885496,2.534351,-1.061069,1.056408,2.886677,15706,26393,10685,15706,0,107.143,0,normal
1780598912.08125,10.379457500006538,856386,0.049561,-0.054443,1.04834,2.923664,2.854962,-0.59542,1.050922,4.129545,15708,26398,10688,15708,1,107.143,14,normal
1780598912.111852,10.410059400004684,856417,0.037354,0.006348,1.059082,1.450382,2.290076,-0.793893,1.05976,2.824592,15713,26405,10690,15713,0,107.143,1,normal
1780598912.1438437,10.44205110000621,856448,0.0271,-0.061768,1.050537,1.282443,2.236641,-0.656489,1.0527,2.660489,15715,26409,10692,15715,0,107.143,0,normal
1780598912.1743667,10.472574300001725,856479,0.035645,-0.006836,1.041748,2.572519,3.366412,-0.610687,1.04238,4.280598,15719,26415,10694,15719,0,107.143,6,normal
1780598912.2054358,10.503643200005172,856510,0.036621,-0.034668,1.049805,0.320611,3.030534,-0.824427,1.051015,3.156994,15723,26421,10696,15723,0,107.143,1,normal
1780598912.2368977,10.535105200004182,856541,0.034424,-0.039307,1.052246,1.763359,2.427481,-0.832061,1.053542,3.113587,15725,26425,10698,15725,0,107.143,0,normal
1780598912.267563,10.565770700006397,856572,0.039795,-0.035889,1.04834,2.236641,3.038168,-0.603053,1.049709,3.820563,15730,26431,10699,15730,0,107.143,6,normal
1780598912.2981892,10.596396699998877,856603,0.035645,0.009277,1.060547,1.022901,3.80916,-0.541985,1.061186,3.981178,15733,26435,10700,15733,0,104.317,5,normal
1780598912.3299582,10.628165800007991,856634,0.047852,-0.034668,1.049316,1.656489,2.458015,-0.320611,1.050979,2.981373,15735,26440,10703,15735,1,104.317,14,normal
1780598912.36104,10.659247700008564,856665,0.023926,-0.018066,1.056152,1.877863,2.19084,-0.587786,1.056578,2.944765,15740,26447,10705,15740,0,104.317,0,normal
1780598912.3931494,10.691356800001813,856697,0.027344,-0.043213,1.044189,1.366412,2.770992,-0.908397,1.045441,3.220352,15742,26451,10707,15742,0,104.317,1,normal
1780598912.4231577,10.721365200006403,856728,0.049072,-0.022949,1.041748,2.396947,2.557252,-0.633588,1.043156,3.561787,15745,26456,10709,15745,1,104.317,13,normal
1780598912.453903,10.752110500005074,856759,0.056641,-0.026123,1.046387,0.694656,2.328244,-1.0,1.048244,2.627407,15749,26461,10710,15749,0,104.317,6,normal
1780598912.485473,10.78368049999699,856790,0.048584,-0.044434,1.050781,1.839695,2.870229,-0.870229,1.052842,3.518521,15751,26465,10712,15751,0,104.317,0,normal
1780598912.5174427,10.81565020000562,856821,0.056152,-0.012451,1.056396,2.748092,3.068702,-0.801527,1.057961,4.196592,15755,26471,10714,15755,0,104.317,6,normal
1780598912.5478833,10.84609079999791,856853,0.040527,0.017334,1.048828,1.29771,2.839695,-0.877863,1.049754,3.243233,15759,26477,10716,15759,0,104.0,0,normal
1780598912.5787814,10.876988999996684,856884,0.039551,-0.032227,1.051025,2.221374,3.015267,-0.984733,1.052263,3.872472,15761,26482,10719,15761,1,104.0,14,normal
1780598912.6103232,10.90853070000594,856915,0.027344,-0.0354,1.041992,1.580153,2.847328,-0.633588,1.042952,3.317468,15766,26489,10721,15766,0,104.0,0,normal
1780598912.6411982,10.93940570000268,856946,0.060547,-0.021729,1.064453,1.114504,3.167939,-0.732824,1.066395,3.437294,15768,26493,10723,15768,0,104.0,0,normal
1780598912.6722221,10.970429699998931,856977,0.041504,-0.052734,1.049561,1.526718,2.648855,-0.59542,1.051704,3.114775,15770,26498,10726,15770,1,104.0,14,normal
1780598912.7030828,11.001290300002438,857008,0.040527,-0.000732,1.060791,1.908397,2.358779,-0.51145,1.061565,3.076914,15773,26503,10728,15773,0,104.0,1,normal
1780598912.7348936,11.033101199995144,857039,0.027588,-0.04834,1.061768,1.343511,2.48855,-1.129771,1.063225,3.045371,15775,26507,10730,15775,0,104.0,0,normal
1780598912.7650702,11.063277699999162,857070,0.051025,-0.007813,1.056152,2.564885,2.80916,-0.816794,1.057413,3.890652,15778,26512,10732,15778,1,104.0,14,normal
1780598912.7965114,11.094719000000623,857101,0.022461,-0.033203,1.05249,0.885496,2.175573,-0.908397,1.053253,2.518413,15783,26519,10734,15783,0,104.0,1,normal
1780598912.827568,11.125775499996962,857132,0.036377,-0.036377,1.052002,2.038168,2.900763,-0.557252,1.053259,3.588744,15785,26523,10736,15785,0,93.19,0,normal
1780598912.8584456,11.15665319999971,857163,0.059082,-0.012939,1.053223,2.229008,3.290076,-0.580153,1.054958,4.016174,15789,26529,10738,15789,0,93.19,6,normal
1780598912.8886597,11.186867199998233,857194,0.050537,-0.045166,1.051025,0.770992,3.068702,-1.045802,1.053209,3.332426,15793,26535,10740,15793,0,93.19,1,normal
1780598912.9197407,11.217948200006504,857225,0.056641,-0.019043,1.051758,2.534351,2.80916,-0.625954,1.053454,3.834858,15795,26540,10743,15795,1,93.19,14,normal
1780598912.9512901,11.249497700002394,857256,0.038818,-0.036377,1.046387,1.946565,2.587786,-0.870229,1.047738,3.353066,15799,26546,10745,15799,1,93.19,4,normal
1780598912.98146,11.27966749999905,857287,0.068115,-0.008545,1.068604,1.274809,3.465649,-1.045802,1.070806,3.837911,15802,26551,10747,15802,0,93.19,1,normal
1780598913.0133748,11.31158239999786,857318,0.039551,-0.037598,1.049072,1.801527,2.824427,-0.778626,1.05049,3.439352,15804,26556,10750,15804,1,93.19,14,normal
1780598913.0438905,11.342098000008264,857349,0.041748,-0.014404,1.059082,1.496183,2.648855,-0.465649,1.060002,3.077633,15809,26563,10752,15809,0,93.19,0,normal
1780598913.0757034,11.373910800000886,857380,0.038818,-0.043701,1.063477,1.549618,2.580153,-1.076336,1.065082,3.196405,15811,26567,10754,15811,0,93.19,1,normal
1780598913.1060338,11.404241399999592,857411,0.063965,-0.03418,1.060059,2.641221,2.603053,-0.839695,1.062537,3.802239,15814,26572,10756,15814,1,103.943,13,normal
1780598913.1369953,11.43520290000015,857442,0.033203,-0.010986,1.044189,0.900763,2.29771,-1.038168,1.044775,2.677431,15817,26577,10758,15817,0,103.943,0,normal
1780598913.1681464,11.466353900003014,857473,0.052002,-0.048096,1.058106,1.603053,2.40458,-0.793893,1.060474,2.997007,15819,26581,10760,15819,0,103.943,1,normal
1780598913.1995695,11.497776999996859,857504,0.05249,-0.005859,1.048584,2.801527,3.083969,-0.709924,1.049913,4.226513,15823,26587,10762,15823,0,103.943,6,normal
1780598913.2305048,11.528712300001644,857535,0.044189,-0.029541,1.053223,0.251908,2.748092,-1.015267,1.054563,2.940448,15827,26593,10764,15827,0,103.943,0,normal
1780598913.2617776,11.559985200001393,857566,0.047852,-0.029541,1.054199,2.206107,2.961832,-0.717557,1.055698,3.762213,15829,26598,10767,15829,1,103.943,14,normal
1780598913.2930653,11.59127279999666,857597,0.054688,-0.033447,1.054443,2.198473,2.80916,-0.610687,1.05639,3.619061,15831,26601,10768,15831,0,103.943,5,normal
1780598913.32309,11.621297699995921,857628,0.031738,-0.008057,1.064453,1.290076,3.175573,-0.435114,1.064957,3.455124,15835,26607,10770,15835,0,103.943,0,normal
1780598913.3542309,11.65243850000843,857659,0.029053,-0.046631,1.041748,1.839695,2.21374,-0.725191,1.043196,2.968337,15837,26612,10773,15837,1,103.943,14,normal
1780598913.3854837,11.683691199999885,857690,0.032227,-0.011963,1.052978,1.40458,2.541985,-0.435114,1.053539,2.93664,15842,26619,10775,15842,0,100.358,1,normal
1780598913.4175367,11.71574430000328,857722,0.010986,-0.041748,1.045166,1.450382,2.221374,-1.183206,1.046057,2.904838,15844,26623,10777,15844,0,100.358,0,normal
1780598913.4495327,11.747740300008445,857753,0.04126,-0.012695,1.053467,2.221374,3.549618,-0.396947,1.054351,4.206169,15847,26628,10779,15847,1,100.358,14,normal
1780598913.4795604,11.7777677999984,857784,0.03418,-0.024658,1.042725,0.603053,2.51145,-1.076336,1.043576,2.798134,15852,26635,10781,15852,0,100.358,1,normal
1780598913.5106997,11.808907200000249,857815,0.042236,-0.025635,1.047852,1.992366,3.045802,-1.152672,1.049016,3.817733,15854,26639,10783,15854,0,100.358,0,normal
1780598913.5418139,11.840021399999387,857846,0.060303,-0.033691,1.064941,2.290076,3.450382,-0.763359,1.067179,4.210974,15858,26645,10785,15858,0,100.358,6,normal
1780598913.573136,11.87134359999618,857878,0.071533,-0.008545,1.070068,0.78626,3.343511,-0.870229,1.072491,3.543243,15862,26651,10787,15862,0,100.358,1,normal
1780598913.6052952,11.903502600005595,857909,0.043213,-0.045166,1.044678,1.977099,2.480916,-0.374046,1.046546,3.194335,15864,26656,10790,15864,1,100.358,14,normal
1780598913.635811,11.934018600004492,857941,0.03125,-0.005371,1.057373,1.526718,2.068702,-0.625954,1.057848,2.64617,15869,26663,10792,15869,0,107.57,0,normal
1780598913.6645856,11.962793099999544,857971,0.044678,-0.053711,1.051514,1.061069,2.40458,-1.0,1.053832,2.812094,15871,26667,10794,15871,0,107.57,1,normal
1780598913.6974413,11.995648900003289,858001,0.021729,-0.051025,1.041992,1.961832,2.419847,-0.885496,1.043467,3.238603,15873,26672,10797,15873,1,107.57,14,normal
1780598913.727351,12.025558399996953,858032,0.022949,-0.012207,1.053223,1.21374,2.40458,-0.496183,1.053543,2.738863,15878,26679,10799,15878,0,107.57,0,normal
1780598913.7584896,12.056697100008023,858063,0.01123,-0.036865,1.044189,1.450382,2.129771,-0.854962,1.0449,2.714865,15880,26683,10801,15880,0,107.57,1,normal
1780598913.789299,12.087506500000018,858094,0.041504,-0.041748,1.057861,2.412214,2.946565,-0.816794,1.059498,3.894634,15883,26688,10803,15883,1,107.57,14,normal
1780598913.8195572,12.117764700000407,858125,0.035645,-0.002441,1.038818,0.793893,2.816794,-0.923664,1.039432,3.068835,15888,26695,10805,15888,0,107.57,0,normal
1780598913.8509839,12.14919130000635,858156,0.039062,-0.046143,1.048584,1.679389,2.534351,-0.709924,1.050325,3.122063,15890,26699,10807,15890,0,107.57,0,normal
1780598913.8822024,12.180410000000848,858187,0.029297,-0.000732,1.051514,3.007634,3.290076,-0.961832,1.051922,4.560218,15894,26705,10809,15894,0,107.57,6,normal
1780598913.9135563,12.21176390000619,858218,0.025635,-0.035889,1.043701,0.442748,2.80916,-0.770992,1.044633,2.946496,15898,26711,10811,15898,0,104.693,0,normal
1780598913.9463367,12.244544200002565,858250,0.058594,-0.023193,1.04834,2.145038,2.022901,-0.51145,1.050232,2.992474,15900,26716,10814,15900,1,104.693,14,normal
1780598913.9785233,12.276730800003861,858282,0.024658,-0.01416,1.054932,1.763359,2.534351,-0.603053,1.055315,3.145798,15905,26723,10816,15905,0,104.693,1,normal
1780598914.012678,12.310885500002769,858313,0.061523,-0.023438,1.069824,0.885496,2.175573,-0.748092,1.071848,2.465129,15907,26727,10818,15907,0,104.693,0,normal
1780598914.0390027,12.337210099998629,858344,0.049316,-0.030273,1.057617,2.267176,2.870229,-0.725191,1.059199,3.728834,15909,26732,10821,15909,1,104.693,14,normal
1780598914.0693989,12.367606400002842,858375,0.040039,0.005127,1.05957,1.076336,2.435115,-0.51145,1.060339,2.711063,15914,26739,10823,15914,0,104.693,1,normal
1780598914.1008782,12.399085700002615,858406,0.052246,-0.060547,1.065674,1.167939,2.183206,-0.816794,1.06867,2.607225,15915,26741,10824,15915,0,104.693,6,normal
1780598914.1319907,12.430198300004122,858437,0.029053,-0.002441,1.05542,2.847328,3.328244,-0.541985,1.055822,4.413415,15919,26747,10826,15919,0,104.693,6,normal
1780598914.163002,12.46120950000477,858468,0.023193,-0.020508,1.057617,0.48855,2.458015,-1.305344,1.05807,2.825675,15923,26753,10828,15923,0,100.0,1,normal
1780598914.1954367,12.493644300004235,858499,0.033691,-0.033691,1.052002,2.122137,2.770992,-0.755725,1.05308,3.571132,15925,26757,10830,15925,0,100.0,0,normal
1780598914.224855,12.523062399995979,858530,0.048828,-0.038574,1.058838,1.877863,2.358779,-0.832061,1.060665,3.127704,15930,26763,10831,15930,0,100.0,6,normal
1780598914.25548,12.553687499996158,858561,0.046875,-0.005859,1.061035,0.992366,3.114504,-0.89313,1.062086,3.388599,15934,26769,10833,15934,0,100.0,1,normal
1780598914.2878275,12.586035000000265,858592,0.031738,-0.041504,1.046631,2.312977,3.175573,-0.427481,1.047934,3.951818,15936,26774,10836,15936,1,100.0,15,normal
1780598914.3194954,12.617702899995493,858624,0.0354,-0.00708,1.053955,1.458015,2.389313,-0.358779,1.054573,2.82194,15941,26781,10838,15941,0,100.0,0,normal
1780598914.351628,12.649835600008373,858655,0.029541,-0.060791,1.036865,1.236641,3.137405,-0.610687,1.039066,3.427175,15943,26785,10840,15943,0,100.0,1,normal
1780598914.3805249,12.678732500004116,858686,0.04541,-0.004883,1.045654,2.419847,3.038168,-0.954198,1.046651,3.999578,15946,26790,10842,15946,1,100.0,14,normal
1780598914.4106731,12.70888059999561,858716,0.022461,0.002197,1.053467,1.51145,2.541985,-0.70229,1.053708,3.039635,15951,26797,10844,15951,0,100.0,0,normal
1780598914.442053,12.740260599995963,858747,0.026855,-0.056885,1.055908,1.29771,2.450382,-0.80916,1.05778,2.888453,15953,26801,10846,15953,0,107.527,0,normal
1780598914.4734607,12.771668300003512,858778,0.040527,-0.003906,1.053955,2.671756,2.969466,-0.656489,1.054741,4.048084,15956,26806,10848,15956,1,107.527,14,normal
1780598914.503309,12.801516499996069,858808,0.060059,-0.022949,1.05957,0.603053,2.885496,-0.587786,1.061519,3.00587,15959,26811,10850,15959,0,107.527,0,normal
1780598914.5340633,12.832270800005062,858839,0.052979,-0.053711,1.052002,1.725191,2.419847,-0.89313,1.054704,3.103164,15961,26815,10852,15961,0,107.527,1,normal
1780598914.565077,12.863284599996405,858870,0.03833,-0.001465,1.059326,2.480916,2.526718,-0.954198,1.06002,3.667389,15965,26821,10854,15965,0,107.527,6,normal
1780598914.595049,12.893256499999552,858901,0.043945,-0.031006,1.047852,0.496183,2.412214,-1.259542,1.049231,2.76612,15969,26827,10856,15969,0,107.527,0,normal
1780598914.627395,12.925602400006028,858932,0.054932,-0.031982,1.050293,2.519084,2.572519,-0.885496,1.052215,3.707795,15971,26832,10859,15971,1,107.527,14,normal
1780598914.6588268,12.957034399994882,858963,0.026367,-0.038818,1.045166,1.580153,2.053435,-0.89313,1.046219,2.74065,15975,26838,10861,15975,1,107.527,3,normal
1780598914.6899726,12.988180100001046,858994,0.066406,-0.014404,1.077637,1.19084,2.80916,-0.824427,1.079777,3.160564,15978,26843,10863,15978,0,107.527,0,normal
1780598914.7204492,13.018656700005522,859025,0.038818,-0.046875,1.051025,2.167939,2.961832,-0.603053,1.052786,3.719688,15980,26848,10866,15980,1,97.122,14,normal
1780598914.7515097,13.049717200003215,859056,0.046387,-0.008545,1.059082,1.427481,1.89313,-0.885496,1.060132,2.530958,15986,26855,10867,15986,0,97.122,1,normal
1780598914.7827883,13.08099570000195,859087,0.030762,-0.057129,1.056396,1.21374,2.122137,-0.89313,1.058387,2.602751,15988,26859,10869,15988,0,97.122,0,normal
1780598914.8129787,13.111186299996916,859118,0.050781,-0.02417,1.049072,2.473282,3.206107,-0.732824,1.050579,4.115006,15991,26864,10871,15991,1,97.122,14,normal
1780598914.8427954,13.141002799995476,859149,0.056152,0.003906,1.0625,0.877863,2.717557,-1.038168,1.06399,3.038676,15996,26871,10873,15996,0,97.122,0,normal
1780598914.8741224,13.172330000001239,859178,0.058594,-0.037598,1.06665,1.038168,2.068702,-1.053435,1.06892,2.543039,15998,26875,10875,15998,0,97.122,0,normal
1780598914.9086537,13.206861200000276,859209,0.035156,-0.009033,1.051025,2.519084,3.030534,-0.687023,1.051652,4.00024,16000,26880,10878,16000,1,97.122,14,normal
1780598914.9339917,13.232199100006255,859239,0.052002,-0.00415,1.05249,1.564886,2.534351,-0.343511,1.053782,2.9983,16003,26885,10880,16003,0,97.122,0,normal
1780598914.9662123,13.26441970000451,859270,0.018311,-0.052979,1.05249,1.312977,2.725191,-0.78626,1.053982,3.125504,16005,26889,10882,16005,0,97.122,0,normal
1780598914.9964867,13.29469429999881,859301,0.037354,-0.005859,1.044922,2.526718,3.740458,-0.366412,1.045606,4.528751,16008,26894,10884,16008,1,101.449,14,normal
1780598915.027138,13.325345500008552,859332,0.053955,-0.026123,1.044922,0.679389,2.618321,-1.053435,1.04664,2.902912,16013,26901,10886,16013,0,101.449,0,normal
1780598915.0568767,13.35508409999602,859362,0.025635,-0.055664,1.049072,1.549618,2.480916,-0.969466,1.050861,3.081578,16015,26905,10888,16015,0,101.449,0,normal
1780598915.0866654,13.384872900001938,859393,0.045654,-0.00415,1.053223,2.816794,3.366412,-0.862595,1.05422,4.47338,16019,26911,10890,16019,0,101.449,5,normal
1780598915.1180582,13.416265799998655,859423,0.045654,-0.025146,1.058594,0.549618,2.51145,-0.732824,1.059876,2.673293,16023,26917,10892,16023,0,101.449,0,normal
1780598915.1486547,13.446862299999339,859454,0.04541,-0.03418,1.066162,1.885496,2.381679,-1.175572,1.067676,3.257217,16024,26919,10893,16024,0,101.449,6,normal
1780598915.1796577,13.477865100008785,859485,0.048828,-0.022705,1.062988,2.0,2.70229,-0.89313,1.064351,3.478513,16027,26925,10896,16027,0,101.449,5,normal
1780598915.2168348,13.51504240000213,859520,0.025391,-0.030518,1.033203,0.503817,2.816794,-0.954198,1.033966,3.016398,16031,26931,10898,16031,0,101.449,0,normal
1780598915.247386,13.5455934000056,859552,0.058105,-0.014893,1.05957,2.580153,2.954198,-0.847328,1.061267,4.012785,16035,26937,10900,16035,0,107.57,6,normal
1780598915.280216,13.578423600003589,859584,0.033936,-0.02124,1.054688,0.832061,2.694656,-0.916031,1.055447,2.965234,16039,26943,10902,16039,0,107.57,1,normal
1780598915.3112416,13.60944919999747,859615,0.037354,-0.030518,1.046387,2.351145,2.51145,-0.801527,1.047498,3.53238,16041,26948,10905,16041,1,107.57,14,normal
1780598915.3414285,13.639636000007158,859646,0.030762,-0.032715,1.041748,1.381679,2.572519,-1.007634,1.042715,3.089048,16046,26955,10907,16046,0,107.57,0,normal
1780598915.3713627,13.669570099998964,859677,0.042969,-0.012451,1.070312,1.29771,3.145038,-0.610687,1.071247,3.456624,16048,26959,10909,16048,0,107.57,1,normal
1780598915.404176,13.702383600000758,859708,0.019531,-0.047852,1.039307,1.748092,2.40458,-0.442748,1.040591,3.005637,16050,26964,10912,16050,1,107.57,14,normal
1780598915.4337819,13.731989299994893,859738,0.046875,-0.030273,1.054932,1.633588,2.038168,-1.076336,1.056406,2.825108,16055,26971,10914,16055,0,107.57,0,normal
1780598915.464214,13.762421699997503,859769,0.040039,-0.038574,1.068848,1.206107,2.343511,-0.900763,1.070293,2.785339,16057,26975,10916,16057,0,107.57,1,normal
1780598915.495037,13.793244600004982,859800,0.061035,-0.055908,1.045166,1.603053,2.969466,-0.725191,1.048438,3.451581,16059,26980,10919,16059,1,107.57,14,normal
1780598915.5265014,13.824708900006954,859831,0.050293,-0.000488,1.060303,1.587786,1.954198,-0.862595,1.061495,2.661584,16064,26987,10921,16064,0,103.943,0,normal
1780598915.558054,13.856261499997345,859862,0.046631,-0.057861,1.058594,1.358779,2.328244,-0.664122,1.061199,2.776339,16066,26991,10923,16066,0,103.943,1,normal
1780598915.5887382,13.886945799997193,859893,0.046631,-0.007568,1.057861,2.633588,3.763359,-0.442748,1.058916,4.614616,16069,26995,10924,16069,0,103.943,6,normal
1780598915.6200626,13.918269999994664,859924,0.062744,-0.039062,1.050049,0.358779,3.061069,-1.068702,1.052647,3.262053,16073,27001,10926,16073,0,103.943,0,normal
1780598915.6499982,13.948205599997891,859955,0.042725,-0.033936,1.050781,2.099237,2.381679,-0.862595,1.052197,3.289873,16075,27005,10928,16075,0,103.943,1,normal
1780598915.681628,13.979835400008596,859986,0.026123,-0.0354,1.053467,1.984733,2.671756,-0.603053,1.054385,3.382472,16080,27011,10929,16080,0,103.943,6,normal
1780598915.7121964,14.010403899999801,860017,0.052246,0.011963,1.059326,1.183206,3.244275,-1.076336,1.060681,3.617153,16084,27017,10931,16084,0,103.943,1,normal
1780598915.7439375,14.042145100000198,860048,0.054199,-0.039551,1.052978,2.076336,1.80916,-0.473282,1.055114,2.79432,16086,27022,10934,16086,1,103.943,13,normal
1780598915.7741728,14.072380199999316,860079,0.022461,-0.005615,1.04834,1.770992,2.167939,-0.572519,1.048595,2.857298,16091,27029,10936,16091,0,103.943,0,normal
1780598915.8053834,14.103591000006418,860110,0.031982,-0.015137,1.062012,1.244275,2.519084,-1.007634,1.062601,2.98485,16092,27031,10937,16092,0,100.358,5,normal
1780598915.835598,14.133805500008748,860141,0.053467,-0.0625,1.050781,1.832061,2.473282,-0.687023,1.053995,3.15366,16094,27036,10940,16094,1,100.358,13,normal
1780598915.8663638,14.164571200002683,860172,0.046875,-0.00415,1.053467,1.534351,2.335878,-0.633588,1.054517,2.865657,16099,27043,10942,16099,0,100.358,0,normal
1780598915.897809,14.19601660000626,860202,0.039307,-0.063721,1.047607,1.099237,2.641221,-0.671756,1.050279,2.938644,16101,27047,10944,16101,0,100.358,1,normal
1780598915.9439812,14.242188799995347,860233,0.054443,-0.012939,1.053711,2.473282,2.603053,-0.862595,1.055196,3.692842,16104,27052,10946,16104,1,100.358,14,normal
1780598915.9589138,14.257121400005417,860264,0.045654,-0.010498,1.062744,0.641221,2.709924,-0.854962,1.063776,2.913042,16109,27059,10948,16109,0,100.358,0,normal
1780598915.990654,14.288861399996676,860295,0.05127,-0.034668,1.059326,1.732824,2.541985,-0.977099,1.061133,3.227862,16111,27063,10950,16111,0,100.358,1,normal
1780598916.021855,14.3200627000042,860326,0.062988,-0.018555,1.063721,2.229008,3.419847,-0.625954,1.065746,4.129848,16114,27069,10953,16114,0,100.358,6,normal
1780598916.0522902,14.350497799998266,860357,0.047607,-0.033691,1.057373,0.366412,2.587786,-1.030534,1.05898,2.80943,16118,27075,10955,16118,0,100.358,0,normal
1780598916.0826778,14.38088530000823,860388,0.054688,-0.03125,1.065186,2.381679,2.412214,-0.480916,1.067046,3.423807,16120,27080,10958,16120,1,100.719,14,normal
1780598916.1141508,14.412358300003689,860419,0.045166,-0.046387,1.051514,1.656489,2.412214,-0.763359,1.053505,3.024144,16124,27086,10960,16124,1,100.719,3,normal
1780598916.1453795,14.443587100002333,860450,0.058838,-0.018799,1.061768,1.274809,3.648855,-0.816794,1.063563,3.950498,16127,27091,10962,16127,0,100.719,0,normal
1780598916.176116,14.474323500005994,860481,0.032715,-0.044678,1.04541,1.885496,2.534351,-0.267176,1.046876,3.170081,16129,27096,10965,16129,1,100.719,13,normal
1780598916.2090163,14.507223799999338,860512,0.035156,-0.003662,1.052734,1.839695,2.145038,-0.755725,1.053328,2.925198,16134,27103,10967,16134,0,100.719,1,normal
1780598916.2394197,14.537627300000167,860543,0.043945,-0.05542,1.044189,1.343511,1.824428,-1.007634,1.046582,2.479694,16135,27105,10968,16135,0,100.719,6,normal
1780598916.269039,14.567246499995235,860574,0.055176,-0.026367,1.050049,2.10687,2.854962,-0.580153,1.051828,3.595314,16138,27110,10970,16138,1,100.719,13,normal
1780598916.2999284,14.598135899999761,860605,0.044434,0.004883,1.057617,0.839695,2.312977,-0.793893,1.058561,2.585578,16143,27117,10972,16143,0,100.719,0,normal
1780598916.3307211,14.628928699996322,860636,0.052002,-0.043701,1.060547,2.038168,2.664122,-0.961832,1.06272,3.489526,16145,27121,10974,16145,0,100.719,0,normal
1780598916.362109,14.660316499997862,860666,0.038086,-0.012451,1.048096,2.633588,3.175573,-0.198473,1.048861,4.130307,16148,27126,10976,16148,1,100.719,14,normal
1780598916.3924007,14.690608200005954,860697,0.029541,-0.026123,1.049316,0.610687,2.832061,-0.992366,1.050057,3.062401,16152,27131,10977,16152,0,100.719,6,normal
1780598916.4244807,14.7226881999959,860728,0.050049,-0.032715,1.05127,1.763359,3.244275,-0.580153,1.052968,3.737824,16154,27135,10979,16154,0,100.719,0,normal
1780598916.4550323,14.7532399000047,860759,0.026855,-0.032959,1.048096,1.89313,2.610687,-0.801527,1.048958,3.322961,16158,27141,10981,16158,0,100.719,6,normal
1780598916.4853156,14.78352320000704,860790,0.041504,-0.007813,1.050049,0.908397,3.137405,-0.870229,1.050898,3.380206,16162,27147,10983,16162,0,100.719,0,normal
1780598916.51688,14.81508759999997,860821,0.043945,-0.029785,1.047607,1.847328,2.725191,-0.458015,1.048952,3.324013,16164,27152,10986,16164,1,100.719,14,normal
1780598916.5491703,14.847377800004324,860853,0.036621,-0.023926,1.044922,1.580153,2.572519,-0.931298,1.045837,3.159439,16169,27159,10988,16169,0,100.719,1,normal
1780598916.5793233,14.877530900004786,860884,0.048828,-0.049561,1.053467,1.259542,2.580153,-0.664122,1.055762,2.94698,16171,27163,10990,16171,0,100.719,0,normal
1780598916.6103592,14.908566700003576,860915,0.052246,-0.04248,1.05249,2.21374,3.381679,-0.274809,1.054642,4.051163,16173,27168,10993,16173,1,100.719,14,normal
1780598916.6429298,14.941137400004664,860946,0.040527,-0.027344,1.057129,1.08397,2.274809,-0.625954,1.058259,2.596452,16178,27175,10995,16178,0,107.143,0,normal
1780598916.6726317,14.970839200002956,860978,0.03125,-0.026123,1.049316,1.885496,2.717557,-0.671756,1.050106,3.375125,16180,27179,10997,16180,0,107.143,0,normal
1780598916.7045095,15.002716999995755,861009,0.032227,-0.026611,1.050293,1.778626,2.717557,-0.442748,1.051124,3.277904,16184,27185,10999,16184,0,107.143,5,normal
1780598916.7361085,15.034316000004765,861040,0.039551,-0.012451,1.061035,0.824427,3.458015,-0.78626,1.061845,3.640845,16188,27191,11001,16188,0,107.143,0,normal
1780598916.7670467,15.065254200002528,861071,0.036133,-0.031006,1.046631,1.862595,2.854962,-0.305344,1.047713,3.42247,16190,27196,11004,16190,1,107.143,14,normal
1780598916.7977211,15.095928700000513,861102,0.020996,-0.029053,1.046143,1.59542,2.59542,-0.793893,1.046756,3.148307,16195,27203,11006,16195,0,107.143,0,normal
1780598916.8286834,15.12689080000564,861133,0.028564,-0.012695,1.061523,1.526718,2.954198,-1.015267,1.061984,3.476913,16197,27207,11008,16197,0,107.143,0,normal
1780598916.859082,15.157289399998263,861164,0.019775,-0.048584,1.034668,1.755725,3.083969,-0.496183,1.035997,3.583244,16199,27212,11011,16199,1,107.143,14,normal
1780598916.890757,15.188964700006181,861195,0.044434,0.001709,1.044189,1.603053,2.854962,-0.450382,1.045136,3.305062,16203,27217,11012,16203,0,107.143,5,normal
1780598916.9245334,15.222740900004283,861226,0.02417,-0.048828,1.048828,1.160305,2.885496,-1.343511,1.050242,3.387834,16205,27221,11014,16205,0,96.429,0,normal
1780598916.9534273,15.251634900007048,861257,0.037354,-0.000488,1.055664,2.381679,3.412214,-0.503817,1.056325,4.19159,16208,27226,11016,16208,1,96.429,14,normal
1780598916.9823427,15.280550199997379,861288,0.027344,-0.001709,1.052246,0.580153,2.618321,-0.656489,1.052603,2.761006,16213,27233,11018,16213,0,96.429,1,normal
1780598917.0145602,15.312767800001893,861319,0.029785,-0.033936,1.05127,1.832061,2.908397,-0.648855,1.052239,3.498033,16215,27237,11020,16215,0,96.429,0,normal
1780598917.0451858,15.34339340000588,861350,0.041992,-0.011719,1.060303,2.442748,2.557252,-0.564886,1.061199,3.581292,16218,27243,11023,16218,0,96.429,5,normal
1780598917.076766,15.374973600002704,861381,0.027832,-0.032471,1.065186,0.832061,2.908397,-0.656489,1.066044,3.095493,16220,27247,11025,16220,0,96.429,1,normal
1780598917.1083279,15.40653530000418,861412,0.046875,-0.019531,1.050781,2.099237,2.770992,-0.442748,1.052008,3.504457,16222,27252,11028,16222,1,96.429,14,normal
1780598917.1392174,15.437424799994915,861443,0.030029,-0.037598,1.04834,1.419847,1.961832,-0.793893,1.049444,2.548532,16227,27259,11030,16227,0,96.429,0,normal
1780598917.16979,15.467997500003548,861474,0.036865,-0.013916,1.058594,1.305344,3.450382,-0.770992,1.059327,3.768751,16229,27263,11032,16229,0,96.429,1,normal
1780598917.2011151,15.499322700008634,861505,0.019531,-0.040039,1.03418,1.625954,2.396947,-0.671756,1.035139,2.97327,16231,27268,11035,16231,1,93.19,14,normal
1780598917.230797,15.529004600000917,861536,0.050537,-0.00293,1.04541,1.29771,2.534351,-0.366412,1.046635,2.870757,16236,27275,11037,16236,0,93.19,1,normal
1780598917.2608027,15.5590102999995,861566,0.029541,-0.027832,1.053711,1.236641,2.251908,-0.78626,1.054492,2.686741,16238,27279,11039,16238,0,93.19,1,normal
1780598917.2919624,15.59016989999509,861597,0.058838,-0.070068,1.050537,1.755725,2.80916,-0.564886,1.054514,3.360513,16239,27282,11041,16239,1,93.19,17,normal
1780598917.322166,15.620373400000972,861628,0.030029,0.008545,1.046143,1.29771,2.427481,-0.748092,1.046608,2.85243,16244,27289,11043,16244,0,93.19,0,normal
1780598917.3523746,15.650582000002032,861658,0.040039,-0.054443,1.054199,1.51145,2.580153,-1.0,1.056363,3.153041,16246,27293,11045,16246,0,93.19,1,normal
1780598917.3842633,15.68247070000507,861688,0.040039,-0.056152,1.040039,1.885496,2.709924,-0.717557,1.042323,3.378412,16248,27298,11048,16248,1,93.19,14,normal
1780598917.414057,15.712264600006165,861719,0.049561,0.004883,1.047363,1.534351,2.732824,-0.366412,1.048547,3.155443,16253,27305,11050,16253,0,93.19,0,normal
1780598917.4447663,15.742973800006439,861749,0.036133,-0.05249,1.046143,1.419847,2.435115,-0.984733,1.048082,2.985875,16255,27309,11052,16255,0,93.19,1,normal
1780598917.4759443,15.774151699995855,861780,0.056641,-0.004639,1.05835,2.80916,2.801527,-0.450382,1.059874,3.992841,16258,27314,11054,16258,1,98.182,14,normal
1780598917.506593,15.804800400001113,861811,0.056396,-0.00708,1.049561,0.503817,2.885496,-0.580153,1.051098,2.98605,16263,27321,11056,16263,0,98.182,1,normal
1780598917.5377991,15.836006700003054,861842,0.044189,-0.049561,1.061035,1.839695,2.923664,-1.206107,1.063111,3.658822,16265,27325,11058,16265,0,98.182,1,normal
1780598917.5691066,15.867314100003568,861873,0.049561,-0.020508,1.062012,2.51145,3.381679,-0.503817,1.063365,4.242284,16269,27331,11060,16269,0,98.182,6,normal
1780598917.599406,15.897613599998294,861904,0.051758,-0.035156,1.056641,0.519084,2.549618,-0.801527,1.058492,2.722581,16273,27337,11062,16273,0,98.182,1,normal
1780598917.63039,15.928597400008584,861935,0.07666,-0.040283,1.060547,2.21374,3.10687,-0.671756,1.064077,3.87357,16275,27342,11065,16275,1,98.182,13,normal
1780598917.6618571,15.960064700004295,861966,0.054688,-0.044434,1.048828,1.801527,2.381679,-0.938931,1.051192,3.130413,16279,27347,11066,16279,0,98.182,6,normal
1780598917.6920626,15.990270199996303,861997,0.054932,-0.011719,1.060547,1.19084,2.961832,-0.770992,1.062033,3.284049,16283,27353,11068,16283,0,98.182,1,normal
1780598917.724304,16.022511400005897,862028,0.037354,-0.046875,1.039795,1.923664,2.335878,-0.908397,1.041521,3.159429,16284,27356,11070,16284,1,98.182,17,normal
1780598917.7543175,16.052525000006426,862059,0.042236,-0.004639,1.05127,1.862595,2.923664,-0.549618,1.052128,3.509865,16289,27363,11072,16289,0,111.111,0,normal
1780598917.7855377,16.083745199997793,862090,0.012451,-0.055908,1.042969,1.29771,2.450382,-0.938931,1.04454,2.927458,16291,27367,11074,16291,0,111.111,1,normal
1780598917.8166587,16.114866200005054,862121,0.054199,-0.017578,1.05127,2.70229,3.061069,-0.877863,1.052812,4.176501,16293,27372,11077,16293,1,111.111,14,normal
1780598917.847654,16.14586170000257,862152,0.05127,0.011475,1.05542,0.70229,2.389313,-0.618321,1.056727,2.565998,16298,27379,11079,16298,0,111.111,0,normal
1780598917.877789,16.175996499994653,862183,0.009277,-0.03418,1.051758,1.572519,2.206107,-0.931298,1.052354,2.864793,16300,27383,11081,16300,0,111.111,1,normal
1780598917.9098902,16.20809780000127,862214,0.03833,-0.008057,1.055176,2.51145,3.877863,-0.465649,1.055902,4.643493,16304,27389,11083,16304,0,111.111,6,normal
1780598917.9421024,16.24031000000832,862245,0.042725,-0.04248,1.053467,0.526718,3.145038,-0.732824,1.055188,3.271961,16307,27393,11084,16307,0,111.111,6,normal
1780598917.9722998,16.27050739999686,862276,0.045654,-0.029053,1.04834,2.19084,2.80916,-0.526718,1.049736,3.601193,16309,27398,11087,16309,1,111.111,14,normal
1780598918.0045292,16.302736800003913,862308,0.024902,-0.022461,1.056396,1.564886,2.328244,-0.931298,1.056929,2.955825,16314,27405,11089,16314,0,111.111,0,normal
1780598918.0346344,16.332841900002677,862339,0.026855,-0.007813,1.061035,1.175572,2.732824,-0.908397,1.061404,3.110544,16316,27409,11091,16316,0,96.429,0,normal
1780598918.0657575,16.363965099997586,862370,0.036621,-0.053223,1.043701,1.832061,2.679389,-0.732824,1.045699,3.327552,16318,27414,11094,16318,1,96.429,13,normal
1780598918.0969899,16.395197499994538,862401,0.053467,0.006348,1.049805,1.862595,2.145038,-0.877863,1.051184,2.973398,16323,27421,11096,16323,0,96.429,0,normal
1780598918.1272092,16.425416800004314,862432,0.049072,-0.060547,1.044678,1.603053,2.526718,-1.022901,1.047581,3.162342,16325,27425,11098,16325,0,96.429,0,normal
1780598918.1593342,16.45754180000222,862463,0.045166,-0.01001,1.052002,2.763359,2.587786,-0.549618,1.053019,3.825555,16328,27430,11100,16328,1,96.429,13,normal
1780598918.1907427,16.488950300001306,862494,0.024414,-0.025146,1.046631,0.694656,3.022901,-1.183206,1.047218,3.319707,16333,27437,11102,16333,0,96.429,0,normal
1780598918.220037,16.51824449999549,862525,0.033447,-0.043945,1.051758,1.900763,2.374046,-0.832061,1.053207,3.152986,16335,27441,11104,16335,0,96.429,0,normal
1780598918.2519011,16.550108700001147,862556,0.047119,-0.035645,1.056152,1.832061,2.480916,-1.19084,1.057804,3.305978,16339,27447,11106,16339,0,96.429,6,normal
1780598918.2823918,16.580599399996572,862587,0.044922,-0.01123,1.058838,0.923664,3.671756,-0.78626,1.05985,3.86693,16343,27453,11108,16343,0,96.429,0,normal
1780598918.3148263,16.613033800007543,862618,0.049316,-0.025146,1.058594,2.083969,2.977099,-0.534351,1.06004,3.673088,16345,27458,11111,16345,1,103.943,14,normal
1780598918.3453245,16.64353200000187,862650,0.028076,-0.005859,1.053955,1.305344,2.221374,-0.816794,1.054345,2.702883,16350,27465,11113,16350,0,103.943,1,normal
1780598918.3767853,16.674992800006294,862681,0.028564,-0.048584,1.062988,1.122137,2.351145,-0.946565,1.064481,2.771834,16351,27467,11114,16351,0,103.943,6,normal
1780598918.407383,16.705590600002324,862712,0.054932,-0.052979,1.043701,2.358779,3.099237,-0.770992,1.046488,3.970332,16354,27472,11116,16354,1,103.943,14,normal
1780598918.4372377,16.73544530000072,862743,0.028564,-0.009277,1.047607,0.862595,2.0,-0.977099,1.048038,2.387215,16359,27479,11118,16359,0,103.943,0,normal
1780598918.4692698,16.76747730000352,862773,0.041748,-0.060791,1.044678,1.503817,2.748092,-0.78626,1.047277,3.229811,16361,27483,11120,16361,0,103.943,0,normal
1780598918.4998448,16.798052400001325,862805,0.050781,-0.00708,1.056885,2.679389,3.610687,-0.709924,1.058128,4.551942,16365,27489,11122,16365,0,103.943,5,normal
1780598918.5317314,16.8299388000014,862836,0.046875,-0.027832,1.059814,0.381679,2.633588,-1.10687,1.061216,2.882122,16369,27495,11124,16369,0,103.943,0,normal
1780598918.5629144,16.861121800000547,862867,0.039551,-0.036133,1.044189,2.114504,2.847328,-0.656489,1.045563,3.606852,16371,27500,11127,16371,1,103.943,14,normal
1780598918.593757,16.89196439999796,862898,0.036133,-0.046387,1.051025,1.740458,2.541985,-0.89313,1.052669,3.207579,16375,27505,11128,16375,0,107.143,5,normal
1780598918.6258929,16.924100300006103,862929,0.038574,-0.013672,1.059814,1.320611,3.458015,-0.580153,1.060604,3.746793,16379,27511,11130,16379,0,107.143,0,normal
1780598918.6559012,16.95410859999538,862961,0.04541,-0.055908,1.052246,1.748092,2.496183,-1.015267,1.054708,3.21209,16381,27516,11133,16381,1,107.143,14,normal
1780598918.6876216,16.985829099998227,862992,0.050293,-0.014893,1.052978,1.328244,2.694656,-0.198473,1.054284,3.01078,16386,27523,11135,16386,0,107.143,1,normal
1780598918.7190292,17.017236600004253,863022,0.035156,-0.037354,1.064209,1.389313,2.129771,-0.78626,1.065444,2.661638,16388,27527,11137,16388,0,107.143,0,normal
1780598918.7499807,17.04818830000295,863053,0.039795,-0.016602,1.051514,2.328244,2.748092,-0.80916,1.052397,3.69154,16390,27532,11140,16390,1,107.143,14,normal
1780598918.7814224,17.079629800005932,863085,0.033447,-0.026611,1.047363,0.847328,2.465649,-0.938931,1.048235,2.771098,16395,27539,11142,16395,0,107.143,1,normal
1780598918.8107574,17.108964900005958,863116,0.041016,-0.0354,1.057861,1.862595,2.717557,-1.29771,1.059248,3.540964,16397,27543,11144,16397,0,107.143,0,normal
1780598918.8425946,17.14080219999596,863147,0.043213,-0.006592,1.055664,2.396947,3.122137,-0.694656,1.056569,3.996954,16401,27549,11146,16401,0,107.143,5,normal
1780598918.8728626,17.171070199998212,863178,0.057861,-0.005371,1.062744,1.068702,3.045802,-1.137405,1.064332,3.422386,16405,27555,11148,16405,0,107.143,1,normal
1780598918.9170456,17.215253100002883,863209,0.066406,-0.030762,1.058106,1.938931,2.946565,-0.763359,1.060633,3.608936,16407,27560,11151,16407,1,107.143,14,normal
1780598918.936608,17.234815700008767,863241,0.0354,-0.01416,1.047119,1.442748,2.587786,-0.725191,1.047813,3.050256,16412,27567,11153,16412,0,107.143,0,normal
1780598918.9682026,17.2664100999973,863272,0.06543,-0.015625,1.065186,1.160305,2.725191,-0.870229,1.067308,3.087114,16414,27571,11155,16414,0,107.143,1,normal
1780598918.9987147,17.296922299996368,863303,0.046143,-0.029785,1.050537,2.175573,2.175573,-1.099237,1.051972,3.267193,16416,27576,11158,16416,1,107.143,14,normal
1780598919.0297647,17.32797220000066,863334,0.058105,0.005127,1.058594,1.389313,2.679389,-0.587786,1.0602,3.074868,16420,27581,11159,16420,0,107.143,5,normal
1780598919.0604775,17.35868489999848,863365,0.041992,-0.058105,1.052978,1.374046,2.282443,-1.0,1.055416,2.845619,16422,27585,11161,16422,0,107.143,1,normal
1780598919.0911076,17.3893151999946,863395,0.056885,-0.029297,1.05249,2.580153,2.412214,-0.80916,1.054433,3.623631,16425,27590,11163,16425,1,107.143,14,normal
1780598919.1222408,17.42044820000592,863426,0.041992,-0.02002,1.046143,0.832061,2.709924,-0.946565,1.047176,2.988645,16430,27597,11165,16430,0,107.143,0,normal
1780598919.1523252,17.450532600007136,863457,0.042969,-0.0354,1.057861,1.969466,2.419847,-0.89313,1.059325,3.245325,16432,27601,11167,16432,0,96.774,0,normal
1780598919.1835515,17.48175910000282,863488,0.047852,-0.002686,1.049805,2.442748,3.351145,-0.78626,1.050898,4.220828,16436,27607,11169,16436,0,96.774,6,normal
1780598919.2136045,17.511811899996246,863519,0.039307,-0.03125,1.035644,0.839695,3.19084,-0.778626,1.036861,3.390104,16440,27613,11171,16440,0,96.774,1,normal
1780598919.2432225,17.54142999999749,863549,0.027588,-0.034912,1.045898,1.80916,2.70229,-0.664122,1.046844,3.31911,16442,27617,11173,16442,0,96.774,1,normal
1780598919.2747884,17.572996000002604,863579,0.062744,-0.012939,1.06543,2.114504,2.603053,-0.709924,1.067354,3.427974,16446,27623,11175,16446,0,96.774,6,normal
1780598919.30618,17.604387500003213,863610,0.043457,-0.040283,1.05957,0.694656,2.778626,-0.862595,1.061226,2.991217,16450,27629,11177,16450,0,96.774,1,normal
1780598919.3373942,17.6356017000071,863641,0.047852,-0.025879,1.054932,2.19084,3.206107,-0.526718,1.056333,3.918716,16452,27634,11180,16452,1,96.774,13,normal
1780598919.368417,17.666624500008766,863672,0.036621,-0.04248,1.056885,1.183206,1.91603,-1.175572,1.058372,2.5403,16457,27641,11182,16457,0,96.774,0,normal
1780598919.3993018,17.697509200006607,863703,0.061523,-0.010986,1.069336,1.19084,3.259542,-0.572519,1.071161,3.517171,16459,27645,11184,16459,0,96.774,1,normal
1780598919.429663,17.727870400005486,863734,0.039307,-0.041016,1.041992,2.129771,2.534351,-0.526718,1.04354,3.352058,16461,27650,11187,16461,1,104.693,14,normal
1780598919.4617023,17.759909800006426,863765,0.033936,-0.01416,1.058594,1.541985,2.312977,-0.519084,1.059232,2.827902,16466,27657,11189,16466,0,104.693,0,normal
1780598919.4918435,17.790051100004348,863796,0.034912,-0.055176,1.049561,1.152672,2.122137,-0.900763,1.05159,2.577498,16468,27661,11191,16468,0,104.693,1,normal
1780598919.5242324,17.82243980000203,863827,0.065186,-0.031738,1.054443,2.282443,2.312977,-0.961832,1.056933,3.388883,16471,27666,11193,16471,1,104.693,14,normal
1780598919.5545564,17.85276399999566,863858,0.038574,-0.02832,1.044189,0.778626,2.587786,-0.687023,1.045285,2.78835,16476,27673,11195,16476,0,104.693,0,normal
1780598919.5849748,17.88318240000808,863889,0.023438,-0.039551,1.040039,1.671756,1.847328,-0.862595,1.041055,2.636562,16478,27677,11197,16478,0,104.693,1,normal
1780598919.615646,17.91385349999473,863920,0.045898,-0.005127,1.054688,2.641221,3.312977,-0.870229,1.055698,4.32541,16482,27683,11199,16482,0,104.693,6,normal
1780598919.6467013,17.944908899997245,863951,0.036865,-0.025391,1.04834,0.465649,2.923664,-1.122137,1.049295,3.166044,16486,27689,11201,16486,0,104.693,0,normal
1780598919.678106,17.97631349999574,863982,0.060791,-0.047119,1.050781,2.320611,2.435115,-0.885496,1.053592,3.478379,16488,27694,11204,16488,1,104.693,14,normal
1780598919.709094,18.007301499994355,864013,0.044678,-0.037598,1.04541,1.503817,2.870229,-0.70229,1.04704,3.315553,16490,27698,11206,16490,1,103.943,3,normal
1780598919.7404904,18.038698000003933,864045,0.039795,-0.016113,1.063721,1.259542,3.083969,-0.671756,1.064587,3.398318,16493,27703,11208,16493,0,103.943,0,normal
1780598919.772891,18.071098500004155,864076,0.055176,-0.04248,1.048828,2.343511,2.687023,-0.961832,1.051137,3.692866,16495,27708,11211,16495,1,103.943,13,normal
1780598919.8029373,18.101144900007057,864108,0.057129,-0.009766,1.053711,0.618321,2.78626,-1.10687,1.055304,3.061164,16500,27715,11213,16500,0,103.943,0,normal
1780598919.8334868,18.131694199997582,864138,0.029541,-0.052002,1.047852,1.473282,2.465649,-0.885496,1.049557,3.005676,16502,27719,11215,16502,0,103.943,0,normal
1780598919.8644953,18.162702700006776,864169,0.04126,-0.005127,1.053955,2.541985,3.519084,-0.824427,1.054775,4.418746,16505,27724,11217,16505,1,103.943,13,normal
1780598919.8940763,18.19228390000353,864199,0.054688,-0.003174,1.065918,1.175572,2.076336,-0.900763,1.067325,2.550395,16510,27731,11219,16510,0,103.943,0,normal
1780598919.9239438,18.222151299996767,864229,0.043945,-0.058838,1.048584,1.152672,2.19084,-0.496183,1.051152,2.524803,16512,27735,11221,16512,0,103.943,0,normal
1780598919.9550416,18.253249200002756,864260,0.0625,-0.015625,1.055664,2.641221,2.793893,-0.824427,1.057628,3.93212,16515,27740,11223,16515,1,103.943,13,normal
1780598919.98586,18.284067600005073,864290,0.041748,0.01709,1.049561,1.129771,2.458015,-0.946565,1.05053,2.866044,16520,27747,11225,16520,0,108.303,0,normal
1780598920.0174391,18.315646600007312,864321,0.035645,-0.056641,1.050781,1.656489,2.763359,-0.877863,1.05291,3.339274,16522,27751,11227,16522,0,108.303,0,normal
1780598920.0476196,18.345827099998132,864352,0.020996,-0.001709,1.049072,2.198473,3.099237,-0.671756,1.049284,3.858732,16526,27757,11229,16526,0,108.303,6,normal
1780598920.079711,18.377918400001363,864383,0.03833,-0.031494,1.043457,0.465649,2.977099,-0.916031,1.044636,3.149454,16530,27763,11231,16530,0,108.303,0,normal
1780598920.1097608,18.407968400002574,864414,0.031982,-0.039551,1.045898,2.541985,3.038168,-0.557252,1.047134,4.000335,16532,27768,11234,16532,1,108.303,14,normal
1780598920.1412268,18.439434200001415,864445,0.038086,-0.03418,1.049561,2.068702,2.763359,-0.946565,1.050807,3.579339,16536,27773,11235,16536,0,108.303,6,normal
1780598920.1721232,18.470330800002557,864476,0.025391,-0.010742,1.061279,0.89313,3.687023,-0.610687,1.061637,3.842494,16540,27779,11237,16540,0,108.303,0,normal
1780598920.2023828,18.500590299998294,864507,0.017578,-0.037354,1.052978,2.007634,2.557252,-0.725191,1.053788,3.331071,16542,27784,11240,16542,1,108.303,14,normal
1780598920.2344398,18.532647400003043,864538,0.024658,-0.015381,1.049561,1.251908,2.435115,-0.694656,1.049963,2.82482,16547,27791,11242,16547,0,108.303,1,normal
1780598920.2648833,18.5630908000021,864569,0.017578,-0.041748,1.052246,1.40458,2.931298,-0.870229,1.053221,3.364915,16549,27795,11244,16549,0,103.943,0,normal
1780598920.295902,18.59410960000241,864600,0.045654,-0.040527,1.05542,2.351145,4.0,-0.396947,1.057184,4.656764,16552,27800,11246,16552,1,103.943,14,normal
1780598920.3254056,18.62361310000415,864630,0.059814,-0.014648,1.048828,1.48855,2.526718,-0.503817,1.050634,2.975552,16557,27807,11248,16557,0,103.943,0,normal
1780598920.3563006,18.6545080000069,864661,0.036865,-0.046631,1.055908,1.358779,2.992366,-0.717557,1.05758,3.36384,16558,27809,11249,16558,0,103.943,6,normal
1780598920.3873806,18.685588199994527,864691,0.056396,-0.030029,1.052002,2.473282,2.480916,-0.778626,1.05394,3.588639,16561,27814,11251,16561,1,103.943,14,normal
1780598920.4181995,18.71640710000065,864722,0.042969,0.01709,1.053711,0.763359,2.687023,-0.732824,1.054725,2.887878,16566,27821,11253,16566,0,103.943,0,normal
1780598920.4492083,18.747415799996816,864753,0.030518,-0.051025,1.058838,1.618321,2.183206,-1.137405,1.060506,2.946021,16568,27825,11255,16568,0,103.943,0,normal
1780598920.4789336,18.777141200000187,864784,0.050537,-0.005615,1.058594,2.946565,2.778626,-0.694656,1.059814,4.109204,16572,27831,11257,16572,0,103.943,5,normal
1780598920.5113509,18.809558299995842,864815,0.041992,-0.020752,1.056641,0.320611,2.633588,-0.816794,1.057678,2.77592,16575,27835,11258,16575,0,103.943,6,normal
1780598920.5428588,18.841066399996635,864846,0.045654,-0.038086,1.056152,2.21374,2.862595,-0.580153,1.057824,3.664925,16577,27839,11260,16577,0,101.083,0,normal
1780598920.5734928,18.871700300005614,864877,0.040039,-0.033447,1.049561,1.923664,2.832061,-0.862595,1.050856,3.530598,16582,27845,11261,16582,0,101.083,5,normal
1780598920.6031287,18.901336099996115,864908,0.054443,-0.002686,1.060303,1.015267,3.435115,-0.824427,1.061703,3.675658,16586,27851,11263,16586,0,101.083,0,normal
1780598920.6357214,18.933929000006174,864939,0.040039,-0.041992,1.045898,1.832061,2.900763,-0.145038,1.047507,3.433935,16588,27856,11266,16588,1,101.083,14,normal
1780598920.665741,18.963948500007973,864970,0.038574,-0.017578,1.043701,1.526718,2.458015,-0.549618,1.044562,2.945299,16594,27863,11267,16594,0,101.083,0,normal
1780598920.6967118,18.994919400007348,865001,0.047119,-0.050537,1.048096,1.061069,2.832061,-1.053435,1.050371,3.202524,16596,27867,11269,16596,0,101.083,0,normal
1780598920.7272086,19.025416200005566,865032,0.059082,-0.046631,1.055908,2.145038,3.51145,-0.732824,1.058587,4.179534,16598,27872,11272,16598,1,101.083,14,normal
1780598920.7578685,19.056076100008795,865063,0.048096,-0.000732,1.053467,1.206107,2.381679,-0.755725,1.054564,2.774565,16601,27877,11274,16601,0,101.083,1,normal
1780598920.7964318,19.09463930000493,865099,0.028564,-0.047363,1.059326,1.496183,2.145038,-1.122137,1.060769,2.845864,16603,27882,11277,16603,1,102.767,17,normal
1780598920.8267996,19.125007099995855,865131,0.029053,0.004639,1.050781,1.48855,2.870229,-0.70229,1.051193,3.308656,16608,27889,11279,16608,0,102.767,0,normal
1780598920.8571837,19.155391299995244,865162,0.031738,-0.05249,1.046631,1.396947,2.267176,-0.900763,1.048427,2.811213,16610,27893,11281,16610,0,102.767,1,normal
1780598920.8881204,19.186327999996138,865193,0.060547,-0.010986,1.056641,2.923664,3.274809,-0.51145,1.058431,4.419702,16613,27898,11283,16613,1,102.767,14,normal
1780598920.9193704,19.217577999996138,865224,0.022949,-0.02417,1.047119,0.48855,2.78626,-1.290076,1.047649,3.109054,16618,27905,11285,16618,0,102.767,0,normal
1780598920.964193,19.26240069999767,865255,0.026123,-0.035156,1.046631,1.778626,2.687023,-0.770992,1.047547,3.313311,16620,27909,11287,16620,0,102.767,1,normal
1780598920.9825392,19.28074669999478,865286,0.04541,-0.029297,1.059814,1.91603,2.885496,-0.977099,1.061191,3.598886,16625,27915,11288,16625,0,102.767,6,normal
1780598921.013917,19.312124500007485,865317,0.068359,-0.015137,1.052978,0.793893,3.19084,-1.015267,1.055304,3.441292,16628,27919,11289,16628,0,102.767,5,normal
1780598921.0449226,19.343130000008387,865348,0.041992,-0.041748,1.046631,2.10687,2.931298,-0.335878,1.048304,3.625496,16630,27924,11292,16630,1,102.767,14,normal
1780598921.0765808,19.374788400004036,865380,0.035156,-0.007568,1.049805,1.328244,2.206107,-0.312977,1.05042,2.59405,16636,27931,11293,16636,0,117.438,0,normal
1780598921.1059759,19.4041833000083,865410,0.064453,-0.013428,1.071289,1.145038,3.091603,-0.961832,1.07331,3.434275,16638,27935,11295,16638,0,117.438,0,normal
1780598921.13785,19.43605750000279,865441,0.033447,-0.045898,1.048828,1.770992,3.19084,-0.78626,1.050365,3.733106,16640,27940,11298,16640,1,117.438,13,normal
1780598921.1677985,19.466006100003142,865472,0.036377,0.005127,1.057617,1.458015,2.633588,-0.496183,1.058255,3.050867,16644,27945,11299,16644,0,117.438,6,normal
1780598921.1988454,19.49705289999838,865503,0.016602,-0.051758,1.053711,1.450382,2.274809,-1.10687,1.055112,2.91608,16646,27949,11301,16646,0,117.438,0,normal
1780598921.2306397,19.528847299996414,865534,0.040527,0.001709,1.049072,2.526718,2.854962,-0.389313,1.049856,3.83232,16649,27954,11303,16649,1,117.438,13,normal
1780598921.2614295,19.559636999998474,865565,0.028809,-0.02417,1.049316,0.801527,2.625954,-1.312977,1.04999,3.043352,16654,27961,11305,16654,0,117.438,0,normal
1780598921.2932987,19.59150629999931,865596,0.022217,-0.027588,1.052978,1.923664,2.099237,-1.091603,1.053574,3.049406,16656,27965,11307,16656,0,117.438,0,normal
1780598921.3236413,19.621848800001317,865627,0.051514,-0.021729,1.057861,2.274809,3.030534,-0.389313,1.059338,3.80926,16661,27971,11308,16661,0,117.438,5,normal
1780598921.35363,19.65183750000142,865658,0.062012,-0.032959,1.049805,0.70229,3.366412,-1.175572,1.052151,3.634269,16665,27977,11310,16665,0,104.317,0,normal
1780598921.3856342,19.683841699996265,865689,0.064941,-0.027344,1.05249,2.114504,2.824427,-0.687023,1.054846,3.594512,16667,27982,11313,16667,1,104.317,14,normal
1780598921.4165967,19.714804200004437,865720,0.018555,-0.032471,1.045898,1.328244,2.641221,-0.877863,1.046567,3.083979,16672,27989,11315,16672,0,104.317,1,normal
1780598921.4460402,19.744247599999653,865751,0.067627,-0.014893,1.071777,1.114504,3.389313,-0.740458,1.074012,3.643877,16674,27993,11317,16674,0,104.317,0,normal
1780598921.4788222,19.777029799995944,865782,0.019531,-0.054688,1.037109,1.801527,2.832061,-0.48855,1.038734,3.391865,16676,27998,11320,16676,1,104.317,14,normal
1780598921.5091698,19.80737730000692,865813,0.033691,-0.004883,1.051514,1.450382,2.419847,-0.465649,1.052065,2.859387,16681,28005,11322,16681,0,104.317,0,normal
1780598921.5397372,19.8379447000043,865844,0.019287,-0.050537,1.053467,1.473282,2.305344,-0.648855,1.054855,2.811794,16683,28009,11324,16683,0,104.317,0,normal
1780598921.57046,19.86866770000779,865875,0.027832,-0.003418,1.05249,2.519084,3.206107,-0.236641,1.052864,4.084226,16686,28014,11326,16686,1,104.317,14,normal
1780598921.602783,19.900990599999204,865906,0.027344,-0.022949,1.049072,0.671756,2.633588,-1.274809,1.049679,3.002029,16691,28021,11328,16691,0,104.317,1,normal
1780598921.6336434,19.93185100000119,865937,0.028809,-0.030273,1.050781,1.732824,2.160305,-0.78626,1.051612,2.878854,16693,28025,11330,16693,0,100.358,0,normal
1780598921.663917,19.962124700003187,865968,0.040283,-0.00293,1.058106,2.160305,3.984733,-0.480916,1.058876,4.558102,16698,28031,11331,16698,0,100.358,6,normal
1780598921.6940084,19.992215899997973,865999,0.03833,-0.00708,1.052978,0.89313,2.824427,-0.854962,1.0537,3.083185,16702,28037,11333,16702,0,100.358,1,normal
1780598921.726368,20.024575500006904,866030,0.060547,-0.036377,1.048584,2.648855,2.633588,-0.587786,1.05096,3.781231,16704,28042,11336,16704,1,100.358,14,normal
1780598921.7567077,20.054915200002142,866061,0.03125,-0.032715,1.054443,1.671756,2.122137,-0.80916,1.055414,2.820102,16709,28049,11338,16709,0,100.358,0,normal
1780598921.7874274,20.085634899995057,866092,0.06543,-0.006348,1.071045,1.114504,3.648855,-0.763359,1.07306,3.890884,16711,28053,11340,16711,0,100.358,1,normal
1780598921.8178766,20.116084099994623,866122,0.048828,-0.041992,1.046875,1.938931,2.969466,-0.526718,1.048854,3.585333,16713,28058,11343,16713,1,100.358,14,normal
1780598921.8489306,20.14713820000179,866153,0.049561,-0.015869,1.037109,1.221374,2.740458,-0.496183,1.038414,3.041062,16717,28063,11344,16717,0,100.358,0,normal
1780598921.880189,20.178396400006022,866184,0.064453,-0.022217,1.059082,0.916031,3.274809,-0.847328,1.061274,3.50449,16719,28067,11346,16719,0,100.358,1,normal
1780598921.9115462,20.20975379999436,866215,0.019043,-0.049072,1.04126,1.908397,2.473282,-0.59542,1.042589,3.180193,16721,28072,11349,16721,1,100.719,14,normal
1780598921.942389,20.240596600007848,866246,0.064209,0.000244,1.057617,1.519084,2.938931,-0.450382,1.059564,3.338828,16726,28079,11351,16726,0,100.719,0,normal
1780598921.972717,20.270924500000547,866276,0.043213,-0.056152,1.049072,1.320611,2.419847,-0.854962,1.051462,2.886284,16728,28083,11353,16728,0,100.719,1,normal
1780598922.004886,20.303093499998795,866308,0.060791,-0.001953,1.050049,2.541985,3.526718,-0.633588,1.051809,4.393274,16731,28087,11354,16731,0,100.719,6,normal
1780598922.0343573,20.33256490000349,866339,0.047119,-0.026123,1.04541,0.549618,2.198473,-0.992366,1.046798,2.473895,16735,28093,11356,16735,0,100.719,0,normal
1780598922.0671425,20.36535000000731,866370,0.039307,-0.030273,1.060303,1.885496,1.885496,-1.167939,1.061463,2.91106,16737,28097,11358,16737,0,100.719,1,normal
1780598922.097253,20.39546070000506,866401,0.05542,-0.034424,1.061768,2.374046,2.931298,-1.038168,1.06377,3.912338,16742,28103,11359,16742,0,100.719,6,normal
1780598922.1276402,20.425847699996666,866432,0.054199,-0.008057,1.050049,1.290076,3.541985,-1.007634,1.051477,3.901958,16746,28109,11361,16746,0,100.719,0,normal
1780598922.1595283,20.457735699994373,866463,0.073975,-0.039062,1.05542,2.137405,2.419847,-0.48855,1.05873,3.265401,16748,28114,11364,16748,1,100.719,14,normal
1780598922.1905243,20.48873189999722,866494,0.037598,-0.032471,1.054443,1.633588,2.351145,-0.610687,1.055613,2.927359,16753,28121,11366,16753,0,114.695,0,normal
1780598922.2204049,20.518612300002133,866525,0.059814,-0.009521,1.062012,1.19084,3.51145,-0.70229,1.063737,3.773804,16754,28123,11367,16754,0,114.695,6,normal
1780598922.2521403,20.55034770000202,866556,0.029785,-0.047607,1.044922,1.770992,2.832061,-0.648855,1.04643,3.402646,16756,28128,11370,16756,1,114.695,14,normal
1780598922.283247,20.58145450000302,866587,0.062988,-0.007324,1.0625,1.824428,2.778626,-0.564886,1.064391,3.371705,16761,28135,11372,16761,0,114.695,0,normal
1780598922.312725,20.610932700001285,866617,0.020752,-0.042725,1.061523,0.824427,2.641221,-0.755725,1.062586,2.868249,16763,28139,11374,16763,0,114.695,0,normal
1780598922.3437455,20.641952899997705,866648,0.027588,-0.047607,1.043457,2.389313,3.091603,-0.763359,1.044907,3.981148,16766,28144,11376,16766,1,114.695,14,normal
1780598922.375368,20.673575699998764,866679,0.046875,0.002197,1.058106,0.801527,2.671756,-0.931298,1.059146,2.940755,16771,28151,11378,16771,0,114.695,0,normal
1780598922.4061644,20.704371900006663,866710,0.0354,-0.048584,1.058594,1.419847,2.366412,-0.610687,1.060299,2.826449,16773,28155,11380,16773,0,114.695,0,normal
1780598922.4368618,20.735069200003636,866741,0.039062,0.002441,1.04834,3.236641,3.061069,-0.847328,1.04907,4.53475,16777,28161,11382,16777,0,114.695,5,normal
1780598922.466703,20.7649104000011,866771,0.059814,-0.01709,1.051514,0.633588,2.290076,-1.08397,1.053352,2.61168,16781,28167,11384,16781,0,101.083,0,normal
1780598922.4963567,20.794564199997694,866801,0.055664,-0.058594,1.051514,1.48855,2.465649,-0.78626,1.054615,2.985533,16783,28171,11386,16783,0,101.083,0,normal
1780598922.5277495,20.825957000008202,866832,0.048828,0.001953,1.061279,2.793893,3.557252,-0.671756,1.062404,4.57287,16787,28177,11388,16787,0,101.083,5,normal
1780598922.5587258,20.85693330000504,866862,0.04541,-0.013184,1.058106,0.641221,2.320611,-0.816794,1.059162,2.542352,16791,28183,11390,16791,0,101.083,0,normal
1780598922.5892675,20.887474999995902,866893,0.020508,-0.016846,1.05127,1.977099,2.480916,-1.091603,1.051604,3.354916,16793,28187,11392,16793,0,101.083,0,normal
1780598922.6199038,20.918111399994814,866924,0.037109,-0.024414,1.049316,2.236641,2.267176,-0.80916,1.050256,3.285938,16796,28193,11395,16796,0,101.083,5,normal
1780598922.65056,20.94876739999745,866956,0.05835,0.004639,1.06543,1.0,3.167939,-0.877863,1.067036,3.436056,16799,28197,11396,16799,0,101.083,6,normal
1780598922.6815343,20.979741700008162,866986,0.049072,-0.04126,1.049805,2.419847,2.740458,-0.412214,1.051761,3.679088,16801,28202,11399,16801,1,101.083,14,normal
1780598922.7133303,21.01153790000535,867017,0.019043,-0.036621,1.041016,1.541985,2.29771,-0.59542,1.041834,2.830497,16806,28209,11401,16806,0,101.083,0,normal
1780598922.7431753,21.041382700001122,867048,0.047607,-0.012695,1.061768,1.21374,3.938931,-0.931298,1.06291,4.225596,16808,28213,11403,16808,0,97.473,1,normal
1780598922.7750082,21.073215700002038,867079,0.036377,-0.041504,1.046631,1.885496,2.78626,-0.755725,1.048085,3.448109,16810,28218,11406,16810,1,97.473,14,normal
1780598922.8058264,21.104033900002833,867110,0.031738,-0.008545,1.048828,1.366412,2.351145,-0.458015,1.049343,2.75767,16814,28223,11407,16814,0,97.473,5,normal
1780598922.8365312,21.134738599997945,867140,0.04541,-0.033691,1.057861,1.007634,2.534351,-0.908397,1.059371,2.874621,16816,28227,11409,16816,0,97.473,1,normal
1780598922.8679593,21.16616670000076,867171,0.046387,-0.053467,1.050049,2.19084,3.21374,-0.793893,1.052432,3.969656,16818,28232,11412,16818,1,97.473,14,normal
1780598922.8970554,21.19526279999991,867202,0.059326,0.000732,1.050293,1.748092,2.618321,-0.816794,1.051967,3.252473,16823,28239,11414,16823,0,97.473,1,normal
1780598922.9284053,21.22661290000542,867233,0.047607,-0.058838,1.053467,1.10687,2.259542,-0.78626,1.056182,2.636076,16825,28243,11416,16825,0,97.473,0,normal
1780598922.9591746,21.257382199997664,867264,0.060059,0.000977,1.05957,2.854962,3.167939,-0.709924,1.061272,4.323267,16829,28249,11418,16829,0,97.473,6,normal
1780598922.9895701,21.287777699995786,867295,0.056885,-0.026611,1.044434,0.496183,2.534351,-1.435114,1.04632,2.954435,16833,28255,11420,16833,0,97.473,1,normal
1780598923.0210793,21.319286800004193,867325,0.028564,-0.052002,1.04541,2.068702,2.236641,-0.816794,1.047092,3.154242,16835,28259,11422,16835,0,97.473,0,normal
1780598923.0528643,21.35107190000417,867356,0.052734,-0.015137,1.060059,2.343511,2.854962,-0.496183,1.061477,3.726802,16838,28263,11423,16838,0,97.473,6,normal
1780598923.083107,21.38131450000219,867387,0.043701,-0.024902,1.05249,0.832061,2.801527,-1.091603,1.053691,3.119692,16842,28269,11425,16842,0,97.473,1,normal
1780598923.114727,21.412934599997243,867418,0.031494,-0.031494,1.059326,2.48855,2.740458,-0.725191,1.060262,3.77212,16844,28274,11428,16844,1,97.473,14,normal
1780598923.1450696,21.44327720000001,867449,0.042725,-0.039551,1.050537,1.412214,2.458015,-0.961832,1.052149,2.993544,16848,28280,11430,16848,1,97.473,3,normal
1780598923.175208,21.473415500004194,867480,0.056152,-0.00415,1.074707,1.480916,3.251908,-0.770992,1.076181,3.655468,16851,28285,11432,16851,0,97.473,1,normal
1780598923.2073364,21.505543999999645,867511,0.042725,-0.041016,1.04248,2.083969,3.015267,-0.763359,1.044161,3.743993,16853,28290,11435,16853,1,97.473,13,normal
1780598923.2374551,21.535662700000103,867542,0.056885,-0.006592,1.055176,1.755725,2.442748,-0.541985,1.056729,3.056687,16858,28297,11437,16858,0,97.473,0,normal
1780598923.269189,21.567396300000837,867573,0.030762,-0.057617,1.049072,1.10687,2.465649,-0.870229,1.051104,2.839346,16860,28301,11439,16860,0,97.473,1,normal
1780598923.29957,21.59777770000801,867604,0.05249,-0.019775,1.046143,2.381679,3.770992,-0.549618,1.047645,4.493869,16863,28306,11441,16863,1,100.358,14,normal
1780598923.3290718,21.62727919999452,867635,0.058105,0.000977,1.04248,1.0,3.0,-0.633588,1.044099,3.225125,16868,28313,11443,16868,0,100.358,0,normal
1780598923.359807,21.658014500004356,867664,0.038086,-0.04126,1.064941,1.137405,2.038168,-0.763359,1.066421,2.455715,16870,28317,11445,16870,0,100.358,1,normal
1780598923.3892987,21.687506300004316,867695,0.057617,-0.017578,1.053955,2.70229,2.29771,-0.80916,1.055675,3.638212,16873,28322,11447,16873,1,100.358,14,normal
1780598923.419858,21.718065599998226,867725,0.039795,0.005615,1.044189,1.442748,2.641221,-1.08397,1.044962,3.198838,16878,28329,11449,16878,0,100.358,0,normal
1780598923.4519868,21.75019419999444,867756,0.02002,-0.066406,1.047119,1.19084,2.40458,-0.625954,1.049414,2.755344,16880,28333,11451,16880,0,100.358,1,normal
1780598923.4819071,21.780114699999103,867786,0.039795,-0.004883,1.052978,2.450382,3.320611,-0.847328,1.053741,4.212932,16882,28336,11452,16882,1,100.358,16,normal
1780598923.5126097,21.81081730000733,867817,0.035889,-0.010986,1.047852,0.59542,2.923664,-0.679389,1.048524,3.06005,16887,28343,11454,16887,0,100.358,0,normal
1780598923.5424428,21.840650400001323,867847,0.043213,-0.062256,1.0625,1.259542,2.541985,-0.328244,1.065199,2.85585,16889,28347,11456,16889,0,100.358,1,normal
1780598923.5737486,21.871956200004206,867877,0.065186,-0.010742,1.052978,2.679389,3.496183,-0.748092,1.055049,4.467892,16892,28352,11458,16892,1,106.227,14,normal
1780598923.604759,21.902966499998,867909,0.051758,-0.023438,1.058838,0.51145,2.671756,-1.328244,1.060361,3.027225,16897,28359,11460,16897,0,106.227,0,normal
1780598923.635619,21.93382649999694,867940,0.040283,-0.027344,1.057861,2.022901,2.938931,-0.419847,1.058981,3.592452,16899,28363,11462,16899,0,106.227,1,normal
1780598923.6661973,21.96440490000532,867971,0.05957,-0.030762,1.059082,1.977099,2.824427,-0.847328,1.061202,3.55025,16904,28369,11463,16904,0,106.227,6,normal
1780598923.697853,21.996060699995724,868002,0.051758,-0.000244,1.060303,1.022901,3.267176,-1.137405,1.061565,3.607555,16908,28375,11465,16908,0,106.227,0,normal
1780598923.729768,22.027975599994534,868033,0.049316,-0.049072,1.04541,2.007634,2.473282,-0.557252,1.047723,3.233922,16910,28380,11468,16910,1,106.227,14,normal
1780598923.7583473,22.056554800001322,868064,0.043213,-0.03125,1.051514,1.70229,2.328244,-0.931298,1.052865,3.030813,16915,28387,11470,16915,0,106.227,0,normal
1780598923.7905965,22.088803999999072,868094,0.036133,-0.001709,1.067627,1.137405,3.694656,-0.748092,1.06824,3.937488,16917,28391,11472,16917,0,106.227,0,normal
1780598923.8208475,22.119055000002845,868125,0.035889,-0.039795,1.049072,1.900763,3.007634,-0.679389,1.05044,3.6222,16919,28396,11475,16919,1,106.227,13,normal
1780598923.8516126,22.149820000006002,868156,0.047363,-0.000732,1.053955,1.572519,2.572519,-0.664122,1.055019,3.08735,16925,28403,11476,16925,0,118.28,0,normal
1780598923.8817208,22.179928199999267,868186,0.044922,-0.010986,1.061523,1.137405,2.618321,-1.091603,1.06253,3.056287,16927,28407,11478,16927,0,118.28,0,normal
1780598923.9134297,22.21163730000262,868217,0.042969,-0.050293,1.044189,1.977099,2.679389,-0.534351,1.046282,3.372474,16929,28412,11481,16929,1,118.28,13,normal
1780598923.943854,22.242061700002523,868248,0.034668,0.006836,1.047852,1.427481,2.480916,-0.572519,1.048447,2.918976,16934,28419,11483,16934,0,118.28,0,normal
1780598923.9742947,22.272502200008603,868279,0.023682,-0.051514,1.050781,1.198473,2.251908,-1.091603,1.05231,2.774712,16936,28423,11485,16936,0,118.28,0,normal
1780598924.005942,22.304149700008566,868310,0.048828,-0.008057,1.055176,2.816794,3.312977,-0.526718,1.056336,4.380362,16939,28428,11487,16939,1,118.28,13,normal
1780598924.037512,22.33571959999972,868341,0.03833,-0.024414,1.051514,0.679389,2.870229,-0.694656,1.052495,3.030236,16944,28435,11489,16944,0,118.28,0,normal
1780598924.084798,22.383005600000615,868372,0.028076,-0.018555,1.05127,1.900763,2.870229,-0.931298,1.051808,3.566291,16946,28439,11491,16946,0,118.28,0,normal
1780598924.0994947,22.39770220000355,868403,0.036621,-0.029785,1.049805,2.083969,3.473282,-0.633588,1.050865,4.099762,16950,28445,11493,16950,0,118.28,6,normal
1780598924.1301289,22.428336400000262,868435,0.036133,0.001953,1.057373,0.969466,3.458015,-0.687023,1.057992,3.656464,16953,28449,11494,16953,0,100.358,6,normal
1780598924.1620638,22.460271300005843,868466,0.03125,-0.045654,1.040039,2.21374,2.580153,-0.832061,1.04151,3.500023,16955,28454,11497,16955,1,100.358,14,normal
1780598924.1928482,22.49105579999741,868497,0.040039,0.00293,1.052002,1.51145,2.450382,-0.916031,1.052768,3.021252,16960,28461,11499,16960,0,100.358,1,normal
1780598924.2233565,22.521563899994362,868528,0.036621,-0.025391,1.062256,1.038168,2.778626,-0.740458,1.06319,3.057259,16962,28465,11501,16962,0,100.358,0,normal
1780598924.2543743,22.552581900003133,868559,0.033447,-0.059082,1.041504,2.549618,2.59542,-0.572519,1.043714,3.683006,16964,28470,11504,16964,1,100.358,14,normal
1780598924.2849953,22.583202900001197,868590,0.05835,0.006836,1.043945,1.061069,3.160305,-0.40458,1.045597,3.358137,16968,28475,11505,16968,0,100.358,6,normal
1780598924.3172328,22.615440299996408,868621,0.040039,-0.065186,1.045654,1.312977,2.641221,-0.664122,1.048449,3.023412,16970,28479,11507,16970,0,100.358,0,normal
1780598924.347482,22.645689400000265,868652,0.059326,-0.005859,1.056396,3.19084,2.80916,-0.625954,1.058077,4.297052,16974,28485,11509,16974,0,100.358,5,normal
1780598924.3786414,22.676848999995855,868683,0.05957,-0.033691,1.055176,0.40458,3.053435,-1.267176,1.057393,3.330598,16978,28491,11511,16978,0,100.358,0,normal
1780598924.4098272,22.708034700001008,868714,0.032227,-0.038818,1.050049,2.229008,3.221374,-0.671756,1.05126,3.974542,16980,28495,11513,16980,0,96.774,0,normal
1780598924.4410748,22.739282399998046,868745,0.037109,-0.030518,1.052246,1.832061,2.587786,-0.969466,1.053342,3.315562,16985,28501,11514,16985,0,96.774,5,normal
1780598924.4709797,22.76918730000034,868776,0.037109,-0.001953,1.060303,0.78626,3.526718,-1.030534,1.060954,3.757385,16989,28507,11516,16989,0,96.774,1,normal
1780598924.5027974,22.80100500000117,868807,0.035156,-0.04126,1.051758,2.236641,2.519084,-0.770992,1.053154,3.455832,16991,28512,11519,16991,1,96.774,14,normal
1780598924.5334308,22.83163830000558,868838,0.043213,-0.014893,1.053223,1.717557,2.480916,-0.748092,1.054214,3.108792,16994,28517,11521,16994,0,96.774,0,normal
1780598924.563658,22.86186560000351,868869,0.038574,-0.004639,1.060059,0.847328,3.21374,-0.671756,1.06077,3.390774,16996,28521,11523,16996,0,96.774,1,normal
1780598924.5949507,22.893158200007747,868899,0.023193,-0.050537,1.042236,1.877863,2.916031,-0.541985,1.043719,3.510463,16998,28526,11526,16998,1,96.774,14,normal
1780598924.625829,22.92403650000051,868930,0.025879,-0.005615,1.044189,1.381679,2.320611,-0.587786,1.044525,2.764012,17003,28533,11528,17003,0,96.774,1,normal
1780598924.6565208,22.954728400000022,868961,0.017822,-0.051514,1.053955,1.312977,2.290076,-0.610687,1.055364,2.709483,17005,28537,11530,17005,0,96.774,1,normal
1780598924.6873658,22.985573300000397,868992,0.034912,-0.002441,1.05542,2.847328,3.053435,-0.709924,1.056,4.234942,17008,28542,11532,17008,1,100.719,14,normal
1780598924.716687,23.014894599997206,869022,0.045654,0.007813,1.054688,1.221374,2.206107,-0.847328,1.055704,2.660193,17013,28549,11534,17013,0,100.719,0,normal
1780598924.7473004,23.045507999995607,869052,0.008301,-0.045898,1.052978,1.08397,2.694656,-0.854962,1.054011,3.027726,17015,28553,11536,17015,0,100.719,1,normal
1780598924.7786317,23.076839300003485,869083,0.036133,-0.025146,1.042969,2.725191,3.450382,-0.664122,1.043897,4.446668,17017,28558,11539,17017,1,100.719,14,normal
1780598924.8093472,23.10755460000655,869114,0.03125,0.015625,1.045654,0.862595,2.389313,-1.114504,1.046238,2.773988,17022,28565,11541,17022,0,100.719,0,normal
1780598924.8404176,23.13862510000763,869144,0.041016,-0.063721,1.041016,1.496183,2.259542,-1.068702,1.04377,2.913112,17024,28569,11543,17024,0,100.719,1,normal
1780598924.8706422,23.168849800000316,869175,0.053467,-0.010742,1.054932,3.045802,3.320611,-0.40458,1.05634,4.524052,17027,28574,11545,17027,1,100.719,14,normal
1780598924.9016469,23.199854399994365,869206,0.054688,-0.026855,1.05127,0.465649,2.862595,-1.068702,1.053034,3.090858,17032,28581,11547,17032,0,100.719,0,normal
1780598924.9326954,23.23090300000331,869237,0.0354,-0.03125,1.051025,2.10687,2.908397,-0.763359,1.052086,3.671565,17034,28585,11549,17034,0,100.719,1,normal
