host_epoch_s,host_elapsed_s,time_ms,ax,ay,az,gx,gy,gz,acc_mag,gyro_mag,pulse_count,edge_count,rise_count,fall_count,state,pulse_rate_hz,last_edge_dt_ms,label
1780595333.3394861,0.01212630000372883,248,-0.016846,0.007813,1.070801,2.122137,-0.251908,-2.557252,1.070962,3.332636,24,40,16,24,1,0.0,14,load
1780595333.3697927,0.04243290000886191,278,0.02124,-0.008789,1.061523,1.961832,1.763359,-0.816794,1.061772,2.761408,28,45,17,28,0,100.719,6,load
1780595333.4000316,0.07267160000628792,309,0.008057,-0.018555,1.078369,1.534351,2.801527,-0.587786,1.078559,3.247811,30,49,19,30,0,100.719,1,load
1780595333.4334006,0.10604080000484828,340,0.044434,-0.022461,1.046143,2.450382,1.40458,-2.015267,1.047327,3.469657,32,54,22,32,1,100.719,14,load
1780595333.4634542,0.1360943000036059,371,0.055908,0.013184,1.065918,1.961832,3.931298,-0.175573,1.067465,4.397126,36,59,23,36,0,100.719,6,load
1780595333.493691,0.16633100000035483,402,0.033936,-0.028809,1.048828,1.969466,2.152672,-1.763359,1.049772,3.409138,40,65,25,40,0,100.719,0,load
1780595333.5243444,0.19698459999926854,433,0.031738,-0.031738,1.055176,1.931298,4.366412,-0.419847,1.05613,4.792884,42,69,27,42,0,100.719,0,load
1780595333.555451,0.22809089999645948,463,0.000488,-0.07666,1.022705,1.442748,3.992366,-0.038168,1.025574,4.245229,43,71,28,43,0,100.719,4,load
1780595333.584774,0.2574141000077361,494,0.010254,-0.009521,1.04541,2.29771,1.671756,-2.381679,1.045504,3.707645,44,74,30,44,1,100.719,21,load
1780595333.6165226,0.2891626000055112,525,0.10791,-0.001465,1.05957,1.08397,5.656488,-0.465649,1.065052,5.778208,45,76,31,45,1,100.719,18,load
1780595333.6513379,0.32397800000035204,556,0.016846,-0.036865,1.020996,2.717557,1.900763,-1.770992,1.0218,3.759579,47,79,32,47,0,68.345,7,load
1780595333.6798594,0.3524994000035804,588,0.062012,-0.090088,1.054443,0.778626,3.732824,0.435114,1.0601,3.837911,48,81,33,48,0,68.345,7,load
1780595333.7117393,0.3843793999985792,619,0.010986,-0.03833,1.056396,0.51145,2.816794,0.053435,1.057149,2.863348,49,83,34,49,0,68.345,7,load
1780595333.7415426,0.41418269999849144,650,-0.000977,-0.003906,1.079346,2.541985,1.824428,-3.328244,1.079353,4.568088,50,85,35,50,0,68.345,7,load
1780595333.773348,0.4459882000082871,681,0.081055,-0.018555,1.061279,2.564885,4.519084,-2.236641,1.064532,5.657148,51,87,36,51,0,68.345,7,load
1780595333.8042893,0.4769293999997899,712,0.069092,-0.027588,1.078857,1.885496,3.89313,-2.198473,1.08142,4.852302,52,89,37,52,0,68.345,7,load
1780595333.8350692,0.5077092999999877,743,0.028809,-0.052246,1.041748,1.030534,3.198473,-0.374046,1.043455,3.381145,53,91,38,53,0,68.345,7,load
1780595333.8656745,0.5383146999956807,774,0.050049,0.020752,1.079102,-0.198473,2.442748,0.274809,1.080461,2.466157,54,93,39,54,0,68.345,7,load
1780595333.8971834,0.569823500001803,805,-0.001465,0.043701,1.037354,-0.244275,3.259542,-0.549618,1.038275,3.314568,55,95,40,55,0,68.345,8,load
1780595333.92787,0.6005101000046125,836,0.031006,0.076172,1.062988,2.656489,3.274809,-2.007634,1.066165,4.670322,56,97,41,56,0,32.143,8,load
1780595333.9602787,0.6329188000090653,868,0.009766,-0.095703,1.083008,1.183206,4.038168,-0.717557,1.087272,4.268684,57,99,42,57,0,32.143,8,load
1780595333.991677,0.6643172000040067,899,0.08374,-0.047607,1.013672,2.053435,3.862595,1.59542,1.018238,4.65635,57,100,43,57,1,32.143,30,load
1780595334.023143,0.6957831000036094,930,0.025635,-0.038086,1.058838,1.450382,2.656489,1.503817,1.059833,3.379646,58,101,43,58,0,32.143,14,load
1780595334.0538752,0.7265152000036323,961,0.021729,-0.160156,1.000977,-0.832061,1.358779,-0.374046,1.013941,1.636617,59,103,44,59,0,32.143,6,load
1780595334.0840788,0.7567188999964856,992,0.064941,0.050537,1.043945,4.122138,3.396947,-1.21374,1.047183,5.47763,60,105,45,60,0,32.143,10,load
1780595334.1146886,0.7873286999965785,1023,0.003418,-0.13501,1.048828,1.648855,1.076336,0.732824,1.057488,2.101012,60,105,45,60,0,32.143,10,load
1780595334.147158,0.8197978999960469,1054,0.061035,-0.147705,1.074463,0.015267,3.022901,1.007634,1.086284,3.186454,61,107,46,61,0,32.143,1,load
1780595334.178698,0.8513381000084337,1086,0.114746,-0.156982,1.055664,1.022901,6.160306,-0.946565,1.073423,6.315986,62,109,47,62,0,24.0,9,load
1780595334.2078493,0.8804893000051379,1117,-0.054199,-0.17334,0.984619,2.145038,4.687022,-3.0,1.001229,5.964006,63,111,48,63,0,24.0,9,load
1780595334.2394686,0.9121086000086507,1147,-0.018066,-0.124023,1.041016,3.549618,-0.679389,-2.625954,1.048533,4.467325,64,113,49,64,0,24.0,9,load
1780595334.2700512,0.9426913000061177,1178,0.02417,0.046875,1.103272,1.564886,3.801527,-1.167939,1.104531,4.273705,64,114,50,64,1,24.0,26,load
1780595334.300022,0.9726620000001276,1209,0.121582,-0.001953,1.032227,2.328244,1.099237,-1.984733,1.039364,3.250878,65,116,51,65,1,24.0,19,load
1780595334.33021,1.0028500000044005,1240,-0.00415,-0.077881,1.012695,0.519084,3.473282,3.0,1.015694,4.618781,66,117,51,66,0,24.0,12,load
1780595334.3626027,1.0352427000034368,1270,0.033936,-0.150635,1.003174,1.061069,3.755725,1.80916,1.014988,4.301674,67,119,52,67,0,24.0,2,load
1780595334.3935304,1.0661704000085592,1301,0.087402,0.016846,1.086426,2.618321,4.603054,-3.251908,1.090066,6.214388,68,121,53,68,0,24.0,8,load
1780595334.4243746,1.0970146000036038,1332,-0.037598,-0.101562,1.075439,2.48855,3.458015,-3.679389,1.080879,5.629268,69,123,54,69,0,24.0,10,load
1780595334.4561253,1.1287654000043403,1363,0.081055,-0.093262,0.874268,1.061069,3.832061,1.854962,0.882956,4.387646,69,124,55,69,1,25.271,35,load
1780595334.487199,1.1598391000006814,1395,0.099609,-0.054199,0.977539,5.625954,6.938932,-3.030534,0.984095,9.433146,70,125,55,70,0,25.271,10,load
1780595334.52143,1.1940701999992598,1426,0.125732,-0.101807,1.040039,-1.908397,-3.618321,-0.885496,1.052547,4.18549,71,127,56,71,0,25.271,11,load
1780595334.549455,1.2220949000038672,1457,0.017822,-0.04248,1.123047,2.648855,5.198474,1.954198,1.123991,6.153003,71,127,56,71,0,25.271,11,load
1780595334.5796285,1.2522685000003548,1488,0.116455,-0.056641,1.088867,3.450382,7.221374,-1.458015,1.096541,8.135059,72,129,57,72,0,25.271,3,load
1780595334.6109848,1.2836249999963911,1519,-0.151855,-0.199219,1.23999,-1.908397,-1.458015,-1.80916,1.265039,3.006801,73,131,58,73,0,25.271,10,load
1780595334.6406672,1.3133072000055108,1550,0.298584,-0.130127,1.151367,-6.27481,2.19084,2.183206,1.19655,6.99567,73,132,59,73,1,25.271,33,load
1780595334.6705348,1.3431750000017928,1579,-0.03418,-0.134766,1.029053,1.534351,2.183206,-0.793893,1.038402,2.784042,74,133,59,74,0,25.271,11,load
1780595334.7016306,1.3742707000055816,1610,0.094971,-0.049561,1.044922,0.885496,5.206106,-0.099237,1.050399,5.281808,75,135,60,75,0,25.271,6,load
1780595334.7324867,1.4051267000031658,1641,0.063477,-0.078613,1.082275,1.709924,3.320611,0.160305,1.086982,3.738448,76,137,61,76,0,25.18,8,load
1780595334.7637672,1.4364074000041,1672,0.082275,-0.04248,1.106689,2.366412,4.503816,-2.541985,1.110556,5.687351,77,139,62,77,0,25.18,7,load
1780595334.7944314,1.4670714999956544,1703,0.008789,-0.063232,1.042969,3.770992,4.015268,-3.51145,1.044921,6.53246,78,141,63,78,0,25.18,8,load
1780595334.8258698,1.4985100000048988,1733,0.009521,-0.116455,1.023438,0.206107,2.412214,0.480916,1.030086,2.468306,79,143,64,79,0,25.18,8,load
1780595334.8558278,1.5284678000025451,1764,0.038818,0.032959,1.047119,1.114504,3.564885,-0.351145,1.048357,3.75151,79,144,65,79,1,25.18,27,load
1780595334.8873765,1.5600167000084184,1795,-0.01709,0.075928,1.124023,3.068702,2.076336,-1.816794,1.126715,4.126602,80,146,66,80,1,25.18,20,load
1780595334.9190118,1.591651800001273,1826,0.012451,-0.055664,1.036865,2.618321,0.572519,-0.267176,1.038433,2.693467,81,147,66,81,0,25.18,11,load
1780595334.9495113,1.6221513000054983,1857,0.070068,-0.105957,1.035889,-1.030534,4.435114,0.664122,1.043648,4.601445,82,149,67,82,0,25.18,4,load
1780595334.9798255,1.652465699997265,1888,-0.030518,-0.104736,1.059814,2.412214,1.312977,0.282443,1.065414,2.76088,83,151,68,83,0,25.18,9,load
1780595335.009113,1.6817530999978771,1918,-0.034424,-0.009521,1.177246,4.442748,1.068702,-4.480916,1.177788,6.399902,83,152,69,83,1,25.271,31,load
1780595335.0401065,1.7127466999954777,1948,0.099609,-0.126709,0.908203,1.015267,4.328244,3.709924,0.922394,5.790336,84,153,69,84,0,25.271,16,load
1780595335.0715127,1.7441527000046335,1979,0.03833,-0.069092,1.12915,2.175573,1.526718,-2.717557,1.131911,3.801197,85,155,70,85,0,25.271,3,load
1780595335.1029255,1.7755657000088831,2010,0.067383,-0.12207,1.068115,1.061069,4.32061,0.51145,1.077178,4.478294,86,157,71,86,0,25.271,9,load
1780595335.1331472,1.8057873000070686,2041,0.036133,-0.037109,1.115478,-1.328244,3.427481,-2.816794,1.11668,4.631003,86,158,72,86,1,25.271,32,load
1780595335.163853,1.8364929000090342,2072,-0.006348,-0.124268,0.912842,2.442748,2.748092,1.351145,0.921283,3.917221,87,159,72,87,0,25.271,16,load
1780595335.196106,1.868746000007377,2103,0.05957,-0.094727,1.095947,3.366412,1.08397,-1.687023,1.101645,3.918388,88,161,73,88,0,25.271,4,load
1780595335.2262976,1.8989377999969292,2134,0.092529,-0.098877,1.068359,1.877863,4.007634,-0.641221,1.076908,4.471986,89,163,74,89,0,25.271,9,load
1780595335.2584944,1.931134500002372,2165,-0.020508,0.103516,1.05249,2.824427,2.748092,-3.068702,1.057767,4.99463,89,164,75,89,1,25.271,32,load
1780595335.288499,1.9611393000086537,2196,0.069336,0.045166,0.966553,1.389313,3.152672,0.870229,0.970088,3.553425,90,165,75,90,0,25.18,18,load
1780595335.320046,1.992685999997775,2228,-0.02124,-0.155273,1.006348,1.335878,1.923664,-1.022901,1.018478,2.555656,91,167,76,91,0,25.18,1,load
1780595335.3512046,2.023844800001825,2259,0.023438,-0.122559,1.07959,1.656489,3.610687,-0.877863,1.086777,4.068373,92,169,77,92,0,25.18,9,load
1780595335.3821986,2.05483870000171,2290,-0.039551,0.076172,1.076904,6.045802,1.748092,-3.687023,1.080319,7.293948,93,171,78,93,0,25.18,10,load
1780595335.4128656,2.085505800001556,2321,0.054932,-0.046143,0.891113,1.694656,2.091603,1.503817,0.893996,3.083526,93,172,79,93,1,25.18,32,load
1780595335.4446473,2.1172875000047497,2353,0.053223,0.0354,1.026611,1.847328,5.091603,1.770992,1.028599,5.698549,94,173,79,94,0,25.18,10,load
1780595335.4756634,2.148303499998292,2384,0.127441,-0.055664,1.137695,-2.030534,5.61832,-0.503817,1.146163,5.9952,95,175,80,95,0,25.18,10,load
1780595335.5050733,2.177713400000357,2414,0.0979,0.023193,1.088379,-2.59542,4.229008,1.717557,1.093019,5.250782,95,176,81,95,1,25.18,35,load
1780595335.536957,2.209597199995187,2444,0.078857,0.117676,1.086426,2.687023,4.091603,1.183206,1.095622,5.035999,96,177,81,96,0,25.18,14,load
1780595335.5662515,2.2388917000062065,2475,-0.000732,-0.199707,1.102783,0.099237,5.312978,6.122138,1.12072,8.106672,97,179,82,97,0,25.09,11,load
1780595335.5977645,2.270404499999131,2506,0.009033,-0.213379,0.979248,0.80916,3.992366,5.053436,1.002267,6.490834,97,179,82,97,0,25.09,11,load
1780595335.6292999,2.301939900004072,2537,0.079102,0.069092,1.092529,1.977099,4.732824,-3.648855,1.097566,6.294656,98,181,83,98,0,25.09,5,load
1780595335.659752,2.332391899995855,2568,0.037109,-0.178223,1.056641,-2.442748,1.732824,6.0,1.072208,6.705945,98,182,84,98,1,25.09,45,load
1780595335.6899238,2.3625639000092633,2598,0.019287,-0.0979,1.038818,-0.229008,4.221374,1.351145,1.0436,4.438247,99,183,84,99,0,25.09,14,load
1780595335.7206285,2.3932687000051374,2629,0.020996,0.08252,0.954834,3.229008,1.229008,0.335878,0.958623,3.471277,99,183,84,99,0,25.09,14,load
1780595335.7521374,2.4247774999967078,2660,0.015869,-0.080566,1.053223,1.450382,-0.564886,-0.725191,1.056419,1.71715,100,185,85,100,0,25.09,7,load
1780595335.7830062,2.4556462000036845,2691,0.049805,-0.086426,1.033447,-1.08397,2.450382,5.076336,1.03825,5.740083,100,185,85,100,0,25.09,7,load
1780595335.8148384,2.4874786000000313,2722,0.029541,0.072266,1.009766,3.732824,-3.923664,-4.641222,1.012779,7.132324,101,187,86,101,0,25.09,15,load
1780595335.8451536,2.5177935999963665,2753,0.025635,-0.0354,1.013184,3.114504,3.335878,-4.015268,1.014126,6.0787,101,187,86,101,0,14.388,15,load
1780595335.875763,2.5484030000079656,2784,0.03833,0.111816,1.108154,1.145038,1.122137,-4.305344,1.114441,4.594158,102,189,87,102,0,14.388,12,load
1780595335.9085798,2.5812199000065448,2815,0.037354,0.094482,1.062988,0.656489,0.755725,0.549618,1.067832,1.142006,102,190,88,102,1,14.388,37,load
1780595335.9400191,2.6126592000073288,2847,0.125977,-0.116943,1.06665,0.824427,2.21374,-0.374046,1.080411,2.391702,103,191,88,103,0,14.388,11,load
1780595335.9714763,2.644116399998893,2879,0.021729,0.066162,1.052734,1.938931,1.259542,-2.076336,1.055035,3.107583,104,193,89,104,0,14.388,5,load
1780595336.0033991,2.67603919999965,2910,0.097656,0.048096,1.068115,0.625954,2.900763,-0.465649,1.073648,3.003844,105,195,90,105,0,14.388,8,load
1780595336.0319922,2.704632399996626,2941,0.049316,0.022461,1.066894,0.801527,3.381679,0.038168,1.06827,3.47558,106,197,91,106,0,14.388,8,load
1780595336.06417,2.73680990000139,2972,0.075928,-0.016357,1.035644,-0.091603,5.839694,2.091603,1.038553,6.203646,107,199,92,107,0,14.388,7,load
1780595336.0944188,2.767058800003724,3003,-0.064209,0.007813,1.065918,2.015267,0.274809,-1.969466,1.067879,2.831186,109,203,94,109,0,32.0,0,load
1780595336.1252992,2.79793939999945,3034,0.047363,-0.00415,1.065918,1.732824,1.839695,-1.687023,1.066978,3.038618,112,208,96,112,1,32.0,15,load
1780595336.1577642,2.8304042000090703,3066,0.053955,-0.002441,1.05542,1.816794,2.80916,-0.908397,1.056801,3.466599,123,220,97,123,0,32.0,0,load
1780595336.1891198,2.8617597999982536,3097,0.036865,-0.026611,1.0625,0.977099,2.633588,-0.580153,1.063472,2.86829,125,224,99,125,0,32.0,0,load
1780595336.220312,2.8929522999969777,3128,0.047607,-0.036133,1.057129,1.664122,2.435115,-1.381679,1.058817,3.257012,126,227,101,126,1,32.0,17,load
1780595336.2505872,2.9232273000088753,3159,0.046631,-0.008057,1.050781,1.251908,3.015267,-0.557252,1.051846,3.312045,130,232,102,130,0,32.0,6,load
1780595336.2826056,2.95524569999543,3190,0.042725,-0.03125,1.050537,1.847328,2.221374,-1.068702,1.05187,3.080462,132,236,104,132,0,32.0,0,load
1780595336.3126965,2.9853366000024835,3220,0.054443,-0.01123,1.054932,1.625954,3.755725,-1.068702,1.056395,4.229814,134,241,107,134,1,32.0,13,load
1780595336.3434677,3.0161078999954043,3251,0.048828,-0.009766,1.053223,1.030534,3.427481,-1.099237,1.054399,3.744055,139,248,109,139,0,32.0,0,load
1780595336.3748991,3.0475393000087934,3282,0.055176,-0.019043,1.058838,1.587786,3.045802,-1.099237,1.060445,3.606424,141,252,111,141,0,114.695,0,load
1780595336.405025,3.0776652000058675,3313,0.062256,-0.022949,1.055664,1.717557,3.625954,-0.801527,1.057747,4.091454,145,258,113,145,0,114.695,6,load
1780595336.437312,3.1099519999988843,3345,0.036377,-0.006592,1.066894,0.870229,3.259542,-0.641221,1.067535,3.434105,149,264,115,149,0,114.695,0,load
1780595336.4682498,3.140889900008915,3376,0.054688,-0.015869,1.048584,1.70229,2.610687,-0.908397,1.050129,3.246331,151,269,118,151,1,114.695,13,load
1780595336.4986103,3.1712503000017023,3408,0.022705,-0.005127,1.055908,1.480916,2.59542,-0.954198,1.056165,3.136847,159,279,120,159,0,114.695,0,load
1780595336.530436,3.2030762000067625,3438,0.031006,-0.022461,1.051025,1.091603,2.961832,-0.824427,1.051722,3.262473,161,283,122,161,0,114.695,1,load
1780595336.5610871,3.2337272000004305,3469,0.041748,-0.029053,1.053711,1.801527,3.030534,-0.877863,1.054938,3.633219,163,288,125,163,1,114.695,14,load
1780595336.592034,3.2646742000069935,3500,0.03418,-0.006104,1.053711,1.541985,2.946565,-0.465649,1.054283,3.358094,167,293,126,167,0,114.695,6,load
1780595336.6246502,3.297290400005295,3531,0.055176,-0.032471,1.052978,1.732824,2.763359,-0.778626,1.054923,3.35337,169,297,128,169,0,114.695,0,load
1780595336.6558375,3.3284777000080794,3563,0.057861,-0.038574,1.05249,1.603053,3.946565,-0.541985,1.054785,4.294054,173,303,130,173,0,113.879,5,load
1780595336.687071,3.3597111999988556,3594,0.051025,-0.003418,1.055908,1.152672,3.557252,-0.328244,1.057146,3.753723,177,309,132,177,0,113.879,0,load
1780595336.718106,3.3907461000053445,3625,0.064697,-0.026855,1.046875,1.923664,3.129771,-0.10687,1.049216,3.675238,179,314,135,179,1,113.879,14,load
1780595336.749399,3.4220390999980737,3656,0.029297,-0.019531,1.050537,2.381679,2.396947,-0.160305,1.051127,3.382816,184,321,137,184,0,113.879,1,load
1780595336.7805557,3.4531958000006853,3688,0.02124,-0.001709,1.037842,1.129771,2.015267,-0.70229,1.038061,2.414725,186,325,139,186,0,113.879,0,load
1780595336.810773,3.483413099995232,3719,-0.216064,0.009521,1.041748,1.977099,2.51145,9.465649,1.063961,9.990736,188,330,142,188,1,113.879,13,load
1780595336.8419092,3.5145493000018178,3750,0.036377,0.0,1.11792,2.534351,2.671756,2.625954,1.118512,4.522925,193,337,144,193,0,113.879,0,load
1780595336.8723345,3.5449746000085725,3780,0.121094,-0.072998,1.079102,3.007634,4.038168,0.770992,1.088326,5.093828,195,341,146,195,0,113.879,1,load
1780595336.9020972,3.574737400005688,3811,0.037842,-0.008789,1.050049,4.129771,3.954198,0.083969,1.050767,5.718194,198,346,148,198,1,113.879,14,load
1780595336.933328,3.605968000003486,3842,0.023438,0.011719,1.040039,1.022901,2.290076,-1.0,1.040369,2.700144,203,353,150,203,0,107.527,0,load
1780595336.9649942,3.637634300001082,3873,0.033691,-0.03418,1.048584,0.755725,2.916031,-1.015267,1.049682,3.178856,205,357,152,205,0,107.527,1,load
1780595336.9952786,3.667918799998006,3904,0.033203,-0.051758,1.058106,3.267176,3.320611,-0.48855,1.059891,4.68397,210,363,153,210,0,107.527,6,load
1780595337.0270922,3.6997323999967193,3935,0.044922,0.037598,1.051758,0.633588,3.549618,-0.984733,1.053388,3.73777,214,369,155,214,0,107.527,0,load
1780595337.0582936,3.7309337000042433,3966,0.0354,-0.051025,1.048584,1.89313,2.396947,-0.442748,1.050421,3.086312,215,372,157,215,1,107.527,17,load
1780595337.0886629,3.761303000006592,3997,0.028809,-0.02002,1.056641,2.748092,2.29771,-0.236641,1.057223,3.589913,220,379,159,220,0,107.527,0,load
1780595337.120958,3.7935981000046013,4028,0.038574,-0.025391,1.047852,-0.328244,2.954198,-1.70229,1.048869,3.425321,222,383,161,222,0,107.527,1,load
1780595337.152567,3.8252071000024443,4059,0.053711,-0.060303,1.064453,3.290076,2.916031,-0.557252,1.067512,4.43152,224,388,164,224,1,107.527,14,load
1780595337.184678,3.857318199996371,4091,0.067871,-0.010986,1.040039,0.984733,2.519084,-0.244275,1.042309,2.715723,229,395,166,229,0,107.527,1,load
1780595337.2148125,3.887452499999199,4122,0.04126,-0.040039,1.070068,0.969466,2.320611,-1.427481,1.071612,2.89185,231,399,168,231,0,100.0,1,load
1780595337.246021,3.9186612000048626,4153,0.038818,-0.047363,1.055908,3.442748,3.091603,-0.015267,1.057682,4.627176,234,405,171,234,0,100.0,6,load
1780595337.2758126,3.948452800002997,4184,0.049072,0.022461,1.061523,0.458015,3.419847,-1.152672,1.062894,3.637827,238,411,173,238,0,100.0,1,load
1780595337.307818,3.9804580000054557,4215,0.052979,-0.039062,1.049805,1.847328,2.755725,-0.633588,1.051866,3.377584,240,416,176,240,1,100.0,14,load
1780595337.3385642,4.011204299997189,4246,0.046875,-0.04126,1.060791,2.633588,2.541985,-0.267176,1.062627,3.669994,245,423,178,245,0,100.0,1,load
1780595337.369975,4.042615099999239,4278,0.032227,-0.029541,1.050049,-0.160305,2.503817,-1.145038,1.050958,2.757881,247,427,180,247,0,100.0,0,load
1780595337.4010625,4.073702499998035,4309,0.062988,-0.057129,1.049805,2.992366,3.610687,-0.374046,1.053243,4.704384,249,432,183,249,1,100.0,14,load
1780595337.4319625,4.104602599996724,4340,0.05542,0.017578,1.049316,1.480916,2.778626,-0.732824,1.050926,3.232786,254,439,185,254,0,100.0,0,load
1780595337.4631598,4.1357998000021325,4371,0.031494,-0.050293,1.050049,0.80916,2.78626,-1.801527,1.051724,3.415184,256,443,187,256,0,100.0,0,load
1780595337.4945254,4.167165499995463,4402,0.054932,-0.01709,1.055908,3.961832,3.641221,-0.099237,1.057474,5.381863,260,449,189,260,0,103.571,6,load
1780595337.524856,4.1974961000087205,4433,0.070801,-0.001953,1.050049,0.267176,3.801527,-1.061069,1.052435,3.955864,264,455,191,264,0,103.571,0,load
1780595337.55633,4.228970099997241,4464,0.054688,-0.050537,1.060303,1.816794,2.946565,-1.0,1.062914,3.603191,265,458,193,265,1,103.571,18,load
1780595337.588761,4.261401199997636,4495,0.035156,-0.033447,1.060059,2.633588,2.427481,-0.290076,1.061169,3.59341,270,465,195,270,0,103.571,0,load
1780595337.6207285,4.293368600003305,4527,0.045166,0.010742,1.064209,0.038168,2.954198,-1.458015,1.065221,3.294625,272,469,197,272,0,103.571,0,load
1780595337.6498315,4.32247169999755,4558,0.04126,-0.072021,1.047363,2.587786,2.961832,0.0,1.050647,3.933076,274,474,200,274,1,103.571,14,load
1780595337.6804821,4.353122300002724,4588,0.03833,-0.001221,1.060059,2.312977,2.870229,-0.282443,1.060752,3.697006,279,481,202,279,0,103.571,0,load
1780595337.711316,4.383956100005889,4619,0.032227,-0.027832,1.052734,0.091603,2.618321,-1.366412,1.053595,2.95484,281,485,204,281,0,103.571,1,load
1780595337.7420921,4.414732300007017,4650,0.036133,-0.037109,1.037598,3.427481,3.229008,0.083969,1.03889,4.709688,284,490,206,284,1,103.571,14,load
1780595337.7752287,4.447868800009019,4682,0.043945,-0.003174,1.038086,0.229008,2.717557,-1.229008,1.039021,2.991324,289,497,208,289,0,103.571,1,load
1780595337.8064854,4.47912560000259,4713,0.051514,-0.058594,1.048828,1.847328,3.312977,-0.80916,1.051726,3.878554,291,502,211,291,1,103.571,14,load
1780595337.8378181,4.510458300006576,4745,0.021973,-0.006592,1.055908,2.801527,2.633588,-0.206107,1.056157,3.850561,296,509,213,296,0,103.571,1,load
1780595337.86874,4.541380199996638,4776,0.053467,0.010254,1.064209,0.526718,2.992366,-1.824428,1.0656,3.54404,298,513,215,298,0,103.571,0,load
1780595337.9003482,4.57298830000218,4807,0.043701,-0.086914,1.052246,2.396947,2.885496,-0.221374,1.056734,3.757718,299,516,217,299,1,103.571,17,load
1780595337.9303267,4.602966899998137,4838,0.039307,-0.001953,1.039307,1.78626,2.175573,-0.038168,1.040051,2.81519,304,523,219,304,0,103.571,0,load
1780595337.9604561,4.633096100005787,4869,0.022949,-0.032471,1.049805,0.29771,2.114504,-1.29771,1.050557,2.498762,306,527,221,306,0,103.571,0,load
1780595337.991822,4.664462200002163,4900,0.052246,-0.034424,1.051514,3.778626,2.816794,0.229008,1.053373,4.718558,309,532,223,309,1,103.571,14,load
1780595338.0232728,4.695912800001679,4931,0.031006,-0.004395,1.039062,0.366412,3.282443,-0.603053,1.039534,3.357434,314,539,225,314,0,103.571,0,load
1780595338.05507,4.7277101000072435,4962,0.033691,-0.047852,1.062256,0.908397,2.51145,-1.129771,1.063867,2.899819,316,543,227,316,0,96.429,0,load
1780595338.0864098,4.759050000007846,4993,0.035645,-0.039307,1.053223,3.19084,2.977099,-0.083969,1.054558,4.364817,321,549,228,321,0,96.429,6,load
1780595338.1165168,4.789156800005003,5024,0.045654,0.016602,1.071045,0.427481,3.549618,-0.977099,1.072146,3.70638,324,553,229,324,0,96.429,5,load
1780595338.1489856,4.8216256000014255,5056,0.04248,-0.054932,1.045654,2.274809,3.236641,-0.557252,1.047957,3.995139,326,558,232,326,1,96.429,13,load
1780595338.1786847,4.851324899995234,5087,0.04126,-0.011963,1.057373,1.29771,2.274809,-0.725191,1.058245,2.717482,331,565,234,331,0,96.429,1,load
1780595338.2103133,4.882953499996802,5118,0.044434,-0.036865,1.050537,1.030534,2.259542,-1.038168,1.052122,2.691714,333,569,236,333,0,96.429,1,load
1780595338.2414727,4.914112700003898,5149,0.035889,-0.03125,1.045898,2.427481,3.725191,-0.580153,1.04698,4.484004,335,572,237,335,1,96.429,16,load
1780595338.271511,4.944151200004853,5180,0.039062,0.005127,1.045898,1.015267,3.122137,-0.732824,1.04664,3.363858,340,579,239,340,0,96.429,0,load
1780595338.303731,4.9763710999977775,5211,0.034424,-0.046875,1.055664,1.221374,2.732824,-1.08397,1.057265,3.183563,342,583,241,342,0,96.429,0,load
1780595338.334925,5.007565100007923,5242,0.029297,-0.026367,1.055664,2.770992,3.129771,-0.801527,1.0564,4.256326,345,589,244,345,0,103.571,5,load
1780595338.3669574,5.039597499999218,5274,0.054199,-0.009033,1.060303,0.480916,3.603053,-0.961832,1.061726,3.760106,349,595,246,349,0,103.571,0,load
1780595338.3969662,5.069606200006092,5305,0.040771,-0.035156,1.046387,2.374046,2.198473,-1.038168,1.047771,3.398113,351,600,249,351,1,103.571,14,load
1780595338.42962,5.10225999999966,5336,0.039551,-0.015137,1.053467,1.793893,2.160305,-0.664122,1.054318,2.885486,357,607,250,357,0,103.571,1,load
1780595338.4614284,5.134068600003957,5368,0.03418,-0.043945,1.050293,0.969466,2.221374,-0.725191,1.051768,2.529875,359,611,252,359,0,103.571,0,load
1780595338.4919138,5.16455390000192,5399,0.038818,-0.021973,1.055176,3.183206,2.900763,-0.473282,1.056118,4.332577,362,616,254,362,1,103.571,14,load
1780595338.5229993,5.195639300000039,5430,0.04248,-0.00708,1.048096,0.610687,3.519084,-0.70229,1.04898,3.640069,367,623,256,367,0,103.571,0,load
1780595338.5543346,5.226974799996242,5461,0.0271,-0.036377,1.061279,0.992366,2.847328,-1.496183,1.062248,3.3661,369,627,258,369,0,103.571,0,load
1780595338.5843751,5.257015199997113,5492,0.061523,-0.018555,1.05127,2.633588,3.557252,-2.007634,1.053232,4.860084,374,633,259,374,0,116.0,5,load
1780595338.6218035,5.2944434999953955,5523,0.032959,-0.004395,1.062012,1.267176,3.10687,-1.267176,1.062532,3.586657,378,639,261,378,0,116.0,0,load
1780595338.65162,5.324260100009269,5559,0.047852,-0.013916,1.057861,2.954198,4.061068,-0.450382,1.059034,5.042064,382,645,263,382,0,116.0,5,load
1780595338.682904,5.355544100006227,5590,0.044189,-0.011475,1.051758,0.374046,2.885496,0.061069,1.052748,2.91028,386,651,265,386,0,116.0,0,load
1780595338.7201385,5.3927785999985645,5621,0.048828,-0.05127,1.053711,1.847328,3.351145,-0.51145,1.056087,3.860618,388,655,267,388,0,116.0,0,load
1780595338.7444034,5.417043499997817,5652,0.032227,-0.031738,1.061768,2.519084,3.061069,-0.045802,1.062731,3.964596,391,659,268,391,0,116.0,5,load
1780595338.7769146,5.4495545999961905,5683,0.046875,0.020752,1.066406,0.351145,3.290076,-0.89313,1.067638,3.427183,395,665,270,395,0,116.0,1,load
1780595338.806498,5.479138199996669,5714,0.053955,-0.039795,1.040772,2.29771,1.870229,-0.450382,1.042929,2.996677,397,670,273,397,1,116.0,14,load
1780595338.8378322,5.510472199996002,5745,0.036621,-0.003418,1.053711,2.114504,2.480916,-0.274809,1.054353,3.271329,402,677,275,402,0,110.672,0,load
1780595338.867644,5.540284100003191,5776,0.03418,-0.003174,1.055908,0.564886,2.564885,-1.625954,1.056466,3.088925,404,681,277,404,0,110.672,0,load
1780595338.9005055,5.573145700007444,5807,0.057617,-0.075928,1.052734,2.946565,2.526718,-0.40458,1.05704,3.902593,405,684,279,405,1,110.672,17,load
1780595338.9321733,5.604813300000387,5839,0.044434,0.011475,1.044189,0.59542,2.832061,-0.343511,1.045197,2.914291,410,691,281,410,0,110.672,0,load
1780595338.9634886,5.63612870000361,5870,0.017334,-0.052979,1.05127,1.076336,2.923664,-1.244275,1.052746,3.354777,412,695,283,412,0,110.672,0,load
1780595338.9927113,5.665351300005568,5901,0.05835,-0.026611,1.050293,3.603053,3.709924,-0.29771,1.052249,5.18017,416,701,285,416,0,110.672,6,load
1780595339.0249467,5.697586700000102,5932,0.051758,-0.006836,1.045166,0.114504,3.51145,-0.839695,1.046469,3.612268,420,707,287,420,0,110.672,0,load
1780595339.0565867,5.729226800001925,5963,0.056396,-0.049805,1.067871,1.938931,2.717557,-0.290076,1.070518,3.350928,422,712,290,422,1,110.672,14,load
1780595339.087643,5.760283099996741,5995,0.032959,0.0,1.05249,2.320611,2.755725,-0.48855,1.053006,3.635648,427,719,292,427,0,100.0,0,load
1780595339.1170738,5.789713799997116,6025,0.05835,0.012939,1.062012,0.587786,3.160305,-1.442748,1.063692,3.523428,428,721,293,428,0,100.0,5,load
1780595339.14826,5.820900300008361,6056,0.041504,-0.064209,1.045654,2.129771,3.091603,0.083969,1.048446,3.755128,430,726,296,430,1,100.0,14,load
1780595339.1783335,5.850973699998576,6087,0.053711,0.001465,1.051025,1.656489,2.358779,-0.259542,1.052398,2.893986,435,733,298,435,0,100.0,0,load
1780595339.2104926,5.8831326000072295,6118,0.04248,-0.024902,1.049561,0.740458,2.832061,-1.671756,1.050715,3.370996,437,737,300,437,0,100.0,0,load
1780595339.240525,5.913165200006915,6149,0.063965,-0.016846,1.053467,2.961832,3.778626,-0.007634,1.055541,4.801096,439,740,301,439,1,100.0,16,load
1780595339.271038,5.943678199997521,6179,0.043213,0.002197,1.035644,1.068702,2.839695,-0.465649,1.036548,3.069661,443,745,302,443,0,100.0,5,load
1780595339.3016865,5.974326600000495,6210,0.03125,-0.042236,1.049561,1.206107,2.381679,-1.160305,1.050875,2.91091,445,749,304,445,0,100.0,0,load
1780595339.332261,6.004901100008283,6240,0.037598,-0.007568,1.040039,3.10687,3.946565,0.328244,1.040746,5.033464,448,754,306,448,1,100.0,14,load
1780595339.3641706,6.03681069999584,6271,0.046875,-0.015381,1.04541,0.51145,2.725191,-0.793893,1.046574,2.884183,453,761,308,453,0,94.203,1,load
1780595339.3942437,6.066883899999084,6302,0.045898,-0.035889,1.054199,1.648855,2.89313,-1.015267,1.055808,3.481334,455,765,310,455,0,94.203,0,load
1780595339.4258456,6.098485599999549,6333,0.054443,-0.014893,1.066406,1.900763,3.366412,0.198473,1.067899,3.87105,458,771,313,458,0,94.203,6,load
1780595339.45729,6.129929999995511,6365,0.043457,-0.006592,1.05542,0.839695,3.908397,-0.946565,1.056335,4.108118,462,777,315,462,0,94.203,1,load
1780595339.4897048,6.162345000004279,6396,0.031006,-0.040771,1.051514,1.648855,2.78626,-0.29771,1.05276,3.251246,464,782,318,464,1,94.203,14,load
1780595339.5192935,6.191933699999936,6427,0.019287,-0.018066,1.052734,1.358779,3.183206,-0.885496,1.053066,3.57256,469,789,320,469,0,94.203,0,load
1780595339.5497591,6.2223993000079645,6458,0.042236,-0.012451,1.070068,1.0,2.801527,-1.40458,1.070974,3.28959,471,793,322,471,0,94.203,0,load
1780595339.580474,6.2531140000064624,6488,0.030273,-0.042236,1.061035,1.839695,2.51145,-1.274809,1.062307,3.364074,473,798,325,473,1,94.203,14,load
1780595339.61171,6.284350100002484,6519,0.032471,-0.011719,1.055176,1.496183,2.419847,-0.572519,1.05574,2.902069,478,805,327,478,0,94.203,0,load
1780595339.644296,6.316936100003659,6551,0.066406,-0.04248,1.051758,1.625954,3.519084,-0.664122,1.054708,3.933032,480,809,329,480,0,96.429,0,load
1780595339.6743333,6.346973499996238,6582,0.093506,-0.04126,1.069092,1.862595,3.740458,-0.549618,1.073966,4.214542,482,814,332,482,1,96.429,14,load
1780595339.7062454,6.37888550000207,6613,0.051514,-0.029541,1.038086,1.320611,3.10687,-0.480916,1.039783,3.409976,486,819,333,486,0,96.429,6,load
1780595339.7377672,6.410407200004556,6645,0.062012,-0.033691,1.052978,2.145038,3.312977,-0.778626,1.055341,4.022843,488,823,335,488,0,96.429,0,load
1780595339.7688875,6.441527600007248,6676,0.059326,-0.020752,1.051514,2.335878,3.465649,-1.305344,1.05339,4.378466,491,828,337,491,1,96.429,14,load
1780595339.7989957,6.471635800000513,6707,0.061768,-0.022705,1.052734,1.671756,2.450382,-0.656489,1.054789,3.03811,496,835,339,496,0,96.429,0,load
1780595339.844481,6.517121099997894,6738,0.009277,-0.009033,1.047852,1.29771,1.778626,-1.076336,1.047932,2.450726,498,839,341,498,0,96.429,0,load
1780595339.8606598,6.533299900009297,6767,0.037842,-0.039062,1.064209,1.709924,2.480916,-0.29771,1.065598,3.027774,500,844,344,500,1,96.429,15,load
1780595339.8915083,6.564148500008741,6798,0.056152,-0.029053,1.053467,1.015267,3.755725,0.519084,1.055362,3.925008,504,849,345,504,0,96.429,7,load
1780595339.9236412,6.596281400008593,6830,0.038086,-0.025879,1.059326,1.977099,2.030534,-1.48855,1.060326,3.201214,508,855,347,508,0,100.358,1,load
1780595339.9535942,6.626234399998793,6861,-0.049072,-0.000977,1.041748,1.480916,2.419847,-1.244275,1.042904,3.097901,510,859,349,510,0,100.358,0,load
1780595339.985427,6.6580670999974245,6892,0.062256,-0.006104,1.063721,1.78626,1.80916,-0.900763,1.065558,2.69725,512,863,351,512,0,100.358,0,load
1780595340.0153062,6.687946300007752,6923,0.063232,-0.05127,1.065674,1.664122,4.358778,-0.541985,1.068778,4.69702,514,866,352,514,1,100.358,17,load
1780595340.0480359,6.720675899996422,6954,0.065186,-0.043701,1.047607,1.633588,2.412214,-0.770992,1.050543,3.013605,516,869,353,516,0,100.358,6,load
1780595340.0785353,6.751175500001409,6986,0.038818,-0.006836,1.074707,1.977099,2.083969,-1.732824,1.07543,3.354777,517,871,354,517,0,100.358,6,load
1780595340.110311,6.782951000001049,7017,0.047607,-0.034424,1.051514,1.977099,4.175572,-1.480916,1.053154,4.85154,518,873,355,518,0,100.358,7,load
1780595340.1401546,6.812794600002235,7048,0.068115,0.015625,1.076172,1.679389,2.320611,-1.274809,1.078438,3.135398,519,875,356,519,0,100.358,7,load
1780595340.1720657,6.844705900002737,7079,0.032227,-0.025146,1.042236,1.80916,3.236641,-1.198473,1.043038,3.896825,520,877,357,520,0,100.358,4,load
1780595340.2034492,6.876089400000637,7111,0.033691,0.014893,1.052002,0.694656,2.022901,-0.610687,1.052647,2.224323,521,879,358,521,0,46.263,2,load
1780595340.2357523,6.908392500001355,7142,0.058594,-0.024658,1.031494,0.427481,3.725191,0.335878,1.033451,3.764652,523,882,359,523,1,46.263,21,load
1780595340.2668142,6.939454200008186,7174,0.069092,0.037598,1.057129,2.183206,3.061069,-1.022901,1.060051,3.896518,524,884,360,524,1,46.263,20,load
1780595340.2963116,6.968951600007131,7205,0.050293,-0.001953,1.054199,1.664122,3.534351,-0.251908,1.0554,3.914639,525,886,361,525,1,46.263,20,load
1780595340.3300178,7.002657899996848,7235,0.062012,0.007813,1.061035,0.320611,2.778626,0.48855,1.062874,2.839407,526,888,362,526,1,46.263,21,load
1780595340.358368,7.031007900004624,7266,0.089111,-0.104248,1.046875,1.755725,4.335878,0.259542,1.05582,4.685058,527,889,362,527,0,46.263,9,load
1780595340.3906426,7.063282800008892,7297,0.049316,0.033691,1.06543,0.51145,2.923664,-0.022901,1.067102,2.968151,529,891,362,529,0,46.263,0,load
1780595340.4207654,7.09340539999539,7328,-0.018799,-0.09375,1.047119,1.877863,1.48855,-1.763359,1.051476,2.975161,530,893,363,530,0,46.263,2,load
1780595340.451942,7.124582000004011,7359,-0.000732,-0.101074,1.068848,3.167939,1.984733,-1.389313,1.073616,3.988132,531,895,364,531,0,46.263,4,load
1780595340.481874,7.15451409999514,7390,0.00415,0.032227,1.075195,2.587786,2.549618,-1.503817,1.075686,3.93175,532,897,365,532,0,39.427,5,load
1780595340.5141706,7.186810800005333,7421,-0.014893,-0.108887,1.044922,2.396947,1.442748,-0.496183,1.050685,2.841316,533,899,366,533,0,39.427,7,load
1780595340.5454707,7.218110900008469,7453,0.038574,-0.028076,1.047363,0.900763,2.442748,-1.687023,1.048449,3.102328,534,901,367,534,0,39.427,7,load
1780595340.576757,7.249397000006866,7484,0.01001,-0.107178,1.058838,3.633588,4.175572,-1.259542,1.064296,5.67669,535,903,368,535,0,39.427,8,load
1780595340.6066628,7.27930280000146,7515,0.009521,0.046387,1.08374,1.832061,0.694656,-1.679389,1.084774,2.58057,536,905,369,536,0,39.427,8,load
1780595340.6390927,7.311732800008031,7546,0.12085,-0.094727,1.098877,0.549618,3.160305,-0.80916,1.109553,3.308225,537,907,370,537,0,39.427,8,load
1780595340.6714525,7.344092600003933,7578,0.040039,-0.0979,1.060547,3.267176,3.160305,-3.122137,1.065808,5.5145,538,909,371,538,0,39.427,8,load
1780595340.7028003,7.375440300005721,7609,0.061279,-0.112793,1.071045,1.114504,2.549618,-1.007634,1.07871,2.959391,539,911,372,539,0,39.427,8,load
1780595340.7323527,7.404992900002981,7640,-0.044678,0.10791,1.053467,2.061069,1.732824,-2.755725,1.059921,3.852883,540,913,373,540,0,32.0,9,load
1780595340.763799,7.4364389999973355,7671,0.089844,0.008789,1.039795,1.725191,3.778626,1.427481,1.043706,4.392266,540,914,374,540,1,32.0,27,load
1780595340.7944667,7.46710670000175,7701,0.152832,0.068359,1.070557,-0.061069,5.458016,2.282443,1.083569,5.91635,541,915,374,541,0,32.0,12,load
1780595340.8255763,7.498216499996488,7732,0.032227,-0.127441,1.028809,2.725191,0.938931,-2.351145,1.037173,3.719696,543,917,374,543,0,32.0,1,load
1780595340.855916,7.528556200006278,7763,0.139648,0.054443,1.07251,0.167939,5.290076,0.534351,1.082932,5.319647,544,919,375,544,0,32.0,4,load
1780595340.8902764,7.5629163999983575,7794,-0.031738,0.013672,1.028809,3.763359,1.40458,-2.496183,1.029389,4.729338,545,921,376,545,0,32.0,8,load
1780595340.9172027,7.589842700006557,7825,0.103271,-0.126709,1.084228,1.450382,4.19084,-0.198473,1.096481,4.43916,546,923,377,546,0,32.0,8,load
1780595340.9486747,7.621314799995162,7856,0.052002,0.111572,1.076416,2.977099,2.305344,-3.656489,1.083432,5.248584,547,925,378,547,0,32.0,8,load
1780595340.9796977,7.652337899999111,7887,0.021973,-0.047852,1.020996,3.267176,2.694656,-2.931298,1.022353,5.150545,548,927,379,548,0,32.0,8,load
1780595341.0114753,7.684115399999428,7918,0.017822,0.017334,1.078369,2.648855,1.335878,-1.091603,1.078656,3.161107,548,928,380,548,1,28.777,27,load
1780595341.0430582,7.715698200001498,7950,0.05957,0.070801,1.053467,0.885496,3.366412,-0.053435,1.057522,3.481334,549,930,381,549,1,28.777,17,load
1780595341.0755503,7.748190300000715,7982,-0.027832,0.11377,1.05957,0.053435,2.473282,-0.748092,1.066024,2.584496,550,932,382,550,1,28.777,19,load
1780595341.1069062,7.779546200006735,8013,0.144531,0.018311,1.077881,-0.572519,5.42748,0.725191,1.087682,5.505563,551,934,383,551,1,28.777,21,load
1780595341.1382246,7.810864600003697,8045,-0.020508,-0.064209,1.054199,0.267176,2.068702,0.923664,1.056352,2.281242,552,935,383,552,0,28.777,10,load
1780595341.1697266,7.8423666000016965,8077,0.071289,-0.135498,1.039062,1.160305,3.480916,0.091603,1.050282,3.670351,553,937,384,553,0,28.777,1,load
1780595341.2004247,7.873064700004761,8108,0.142822,0.101318,1.087158,0.236641,4.129771,-0.854962,1.101171,4.223975,554,939,385,554,0,28.777,3,load
1780595341.2319386,7.904578600006062,8139,-0.032471,0.123779,1.025879,2.526718,0.19084,-2.206107,1.033829,3.359707,555,941,386,555,0,28.777,7,load
1780595341.2643416,7.936981699996977,8171,0.071045,0.112549,1.066406,2.038168,4.778626,-0.549618,1.07468,5.224124,556,943,387,556,0,31.621,9,load
1780595341.2946458,7.967285899998387,8202,0.018799,-0.121338,1.050049,4.0,2.549618,-3.969466,1.057203,6.185241,557,945,388,557,0,31.621,8,load
1780595341.3238738,7.996513899997808,8232,-0.002441,0.103516,1.063965,2.740458,0.51145,-1.251908,1.068991,3.055972,558,947,389,558,0,31.621,8,load
1780595341.3553925,8.028032600006554,8263,0.042969,-0.105957,1.047119,0.923664,3.40458,-1.08397,1.053343,3.690435,558,948,390,558,1,31.621,27,load
1780595341.386333,8.058973000006517,8294,0.004395,-0.126465,1.025635,2.450382,1.832061,-0.954198,1.033412,3.204889,559,950,391,559,1,31.621,22,load
1780595341.416899,8.08953900000779,8325,-0.044922,-0.128906,1.032959,2.610687,0.40458,-0.610687,1.04194,2.711514,560,951,391,560,0,31.621,10,load
1780595341.4482615,8.120901500005857,8356,-0.001953,0.01123,1.058838,0.282443,3.267176,-1.045802,1.058899,3.44208,561,953,392,561,0,31.621,6,load
1780595341.4788673,8.151507300004596,8387,0.030762,-0.106445,1.072266,1.572519,0.671756,-2.763359,1.077975,3.24965,562,955,393,562,0,31.621,9,load
1780595341.510301,8.182941200007917,8418,0.018066,0.005615,1.076904,1.954198,2.030534,0.007634,1.07707,2.818159,562,956,394,562,1,31.621,32,load
1780595341.540096,8.212736100002076,8448,0.058105,-0.116943,1.010254,1.328244,4.732824,1.198473,1.018658,5.059664,563,957,394,563,0,25.271,14,load
1780595341.5714374,8.244077399998787,8479,0.084229,0.031494,1.115234,0.610687,3.450382,-0.580153,1.118854,3.551711,564,959,395,564,0,25.271,8,load
1780595341.6038973,8.276537500001723,8510,-0.036133,-0.033691,1.038086,1.709924,-0.656489,-3.290076,1.039261,3.765557,565,961,396,565,0,25.271,10,load
1780595341.6347613,8.307401500002015,8541,0.062012,-0.109619,1.057129,2.175573,5.076336,1.496183,1.064605,5.721964,565,962,397,565,1,25.271,30,load
1780595341.6694505,8.342090599995572,8572,0.083984,-0.172363,1.004639,0.503817,4.419848,1.099237,1.022771,4.58227,566,963,397,566,0,25.271,13,load
1780595341.6953719,8.368012000006274,8603,0.152344,0.041016,1.058594,1.610687,6.923664,2.068702,1.070286,7.403444,567,965,398,567,0,25.271,1,load
1780595341.7273576,8.399997600005008,8634,0.024902,-0.130127,1.023682,0.59542,3.129771,-1.824428,1.03222,3.671311,568,967,399,568,0,25.271,7,load
1780595341.7580771,8.430717299997923,8665,0.026855,0.083496,1.051758,1.114504,2.801527,-0.381679,1.055409,3.039137,569,969,400,569,0,25.271,8,load
1780595341.7900193,8.46265940000012,8696,0.070068,0.029297,1.100342,2.114504,2.641221,-2.038168,1.10296,3.949849,570,971,401,570,0,25.271,8,load
1780595341.8199582,8.49259819999861,8727,-0.018799,-0.03418,1.036621,0.442748,1.679389,-2.381679,1.037355,2.947672,571,973,402,571,0,28.674,9,load
1780595341.8509052,8.523545200005174,8758,-0.016113,-0.026855,1.063965,1.687023,0.374046,-3.129771,1.064426,3.575112,571,974,403,571,1,28.674,30,load
1780595341.8826442,8.555284300004132,8789,0.08374,-0.12085,1.076904,1.580153,2.885496,1.221374,1.086895,3.509234,572,975,403,572,0,28.674,12,load
1780595341.9122455,8.584885500007658,8820,0.118164,-0.144531,1.036621,-0.206107,4.29771,1.709924,1.053297,4.629971,573,977,404,573,0,28.674,7,load
1780595341.942253,8.61489330000768,8851,-0.000244,-0.065918,1.013428,2.10687,2.59542,-4.08397,1.015569,5.277681,574,979,405,574,0,28.674,10,load
1780595341.9730892,8.645729199997731,8881,0.020752,-0.100098,1.071533,2.145038,1.427481,-3.206107,1.076398,4.113151,574,980,406,574,1,28.674,31,load
1780595342.0058472,8.678487299999688,8912,0.047363,-0.088623,1.068604,-0.389313,2.343511,1.022901,1.073318,2.586491,575,981,406,575,0,28.674,12,load
1780595342.0353918,8.70803180000803,8943,0.0,-0.060059,1.053955,-0.480916,1.541985,-0.320611,1.055665,1.646751,576,983,407,576,0,28.674,7,load
1780595342.0672026,8.739842599999974,8974,0.03125,-0.099121,1.040283,2.19084,2.854962,-4.229008,1.045462,5.552936,577,985,408,577,0,28.674,9,load
1780595342.097954,8.77059420000296,9005,0.044922,-0.142822,1.064941,0.923664,3.030534,-0.442748,1.075415,3.198956,577,986,409,577,1,21.583,32,load
1780595342.130564,8.803203999996185,9036,0.094482,-0.024902,1.068359,-0.343511,3.992366,1.045802,1.072818,4.14134,578,987,409,578,0,21.583,12,load
1780595342.1605473,8.833187299998826,9067,0.109619,0.024658,1.05542,2.114504,5.206106,0.129771,1.061384,5.620632,579,989,410,579,0,21.583,9,load
1780595342.1907523,8.863392300001578,9098,-0.035889,-0.001465,1.029541,0.10687,1.427481,-2.572519,1.030167,2.943973,579,990,411,579,0,21.583,34,load
1780595342.222291,8.894931100003305,9129,-0.029541,0.056396,1.052978,2.267176,2.625954,0.183206,1.054901,3.474088,580,991,411,580,0,21.583,19,load
1780595342.2534003,8.926040300008026,9161,-0.006592,0.04541,1.070801,0.412214,1.145038,-1.045802,1.071783,1.604598,581,993,412,581,0,21.583,4,load
1780595342.2857018,8.95834179999656,9192,0.078613,-0.118896,1.042236,0.305344,4.396946,-2.076336,1.051938,4.872119,582,995,413,582,0,21.583,10,load
1780595342.3165944,8.989234399996349,9223,0.054199,-0.174805,1.024902,-0.374046,4.244274,0.954198,1.041114,4.366265,582,995,413,582,0,21.583,10,load
1780595342.3472977,9.019937699995353,9255,0.078125,-0.041016,1.032227,1.557252,6.526718,1.167939,1.035991,6.810812,583,997,414,583,0,24.0,2,load
1780595342.378229,9.050868899998022,9286,0.068848,0.027344,1.064209,3.480916,3.335878,-2.48855,1.066784,5.425656,584,999,415,584,0,24.0,10,load
1780595342.4114535,9.084093600002234,9317,-0.055664,-0.080078,1.025635,4.045802,0.251908,-3.938931,1.030261,5.65218,584,1000,416,584,1,24.0,34,load
1780595342.440708,9.113348099999712,9348,0.031738,-0.139893,1.037109,0.48855,3.022901,-0.137405,1.046983,3.065206,585,1001,416,585,0,24.0,12,load
1780595342.4711804,9.143820500001311,9379,-0.019531,-0.101074,1.033936,-0.282443,2.045802,-0.572519,1.039048,2.143095,586,1003,417,586,0,24.0,8,load
1780595342.5029151,9.175555299996631,9410,0.093018,-0.096924,1.071533,4.992366,1.839695,-1.793893,1.079921,5.614824,587,1005,418,587,0,24.0,9,load
1780595342.5343869,9.20702689999598,9441,0.093994,0.076904,1.069824,-0.793893,2.358779,-0.748092,1.076695,2.598797,587,1006,419,587,1,24.0,31,load
1780595342.5646844,9.237324400004582,9472,0.06543,0.025391,1.050049,1.70229,3.870229,0.480916,1.052392,4.25532,588,1007,419,588,0,24.0,14,load
1780595342.5959065,9.268546599996625,9503,0.033447,0.013428,1.052002,0.137405,5.030534,0.122137,1.052619,5.033892,589,1009,420,589,0,24.0,2,load
1780595342.6266956,9.299335700008669,9534,0.073975,-0.059082,1.062012,0.068702,2.603053,-0.969466,1.066223,2.778574,590,1011,421,590,0,25.09,9,load
1780595342.6590106,9.331650699998136,9566,0.001953,-0.077881,1.004883,2.473282,2.061069,-2.229008,1.007898,3.915815,591,1013,422,591,0,25.09,10,load
1780595342.690211,9.362851099998807,9597,-0.004395,-0.112305,1.04541,0.908397,2.793893,-0.473282,1.051434,2.975738,591,1013,422,591,0,25.09,10,load
1780595342.7343953,9.407035299998824,9628,0.086914,0.077393,1.088623,1.717557,4.687022,0.274809,1.094826,4.99937,592,1015,423,592,0,25.09,1,load
1780595342.7514908,9.424131000007037,9659,0.053223,-0.047363,1.052734,2.267176,2.473282,-3.152672,1.055142,4.603972,593,1017,424,593,0,25.09,10,load
1780595342.7824824,9.455122400002438,9690,0.023438,-0.087891,1.026856,1.152672,0.832061,-1.732824,1.030876,2.241352,593,1018,425,593,1,25.09,35,load
1780595342.8137178,9.486358000009204,9721,0.026123,-0.034912,1.076416,0.656489,3.793893,1.137405,1.077299,4.014759,594,1019,425,594,0,25.09,12,load
1780595342.8461127,9.518752899995889,9752,0.033691,-0.019043,1.041992,-0.290076,3.748092,-1.030534,1.042711,3.897992,595,1021,426,595,0,25.09,11,load
1780595342.8749654,9.547605500003556,9783,0.044678,-0.06958,1.04248,-0.335878,3.847328,2.59542,1.045755,4.653058,595,1021,426,595,0,25.09,11,load
1780595342.9069884,9.579628499996033,9814,0.03833,-0.032227,1.043457,2.10687,2.19084,-0.419847,1.044658,3.068379,596,1023,427,596,0,21.429,7,load
1780595342.9384465,9.611086600009003,9845,0.013916,-0.010742,1.045166,1.801527,1.923664,-0.167939,1.045314,2.640868,596,1023,427,596,0,21.429,7,load
1780595342.9688487,9.641488900000695,9876,0.038086,-0.060059,1.053223,1.847328,2.717557,-2.160305,1.055621,3.932513,597,1025,428,597,0,21.429,8,load
1780595343.0013373,9.673977300000843,9907,0.048584,-0.053467,1.055664,0.198473,3.396947,0.312977,1.058133,3.417103,597,1025,428,597,0,21.429,8,load
1780595343.0317137,9.704353799999808,9939,0.013672,-0.006836,1.041748,3.824427,2.038168,-2.091603,1.04186,4.811982,598,1027,429,598,0,21.429,14,load
1780595343.06364,9.736280199998873,9970,0.045166,0.075684,1.054688,3.061069,2.572519,-0.984733,1.058364,4.117972,598,1027,429,598,0,21.429,14,load
1780595343.0947866,9.767426699996577,10001,0.031982,-0.063477,1.044678,1.610687,2.587786,-1.732824,1.047093,3.506228,598,1028,430,598,1,21.429,58,load
1780595343.1261468,9.798786800005473,10033,0.033203,-0.070068,1.060791,0.992366,3.068702,-1.145038,1.063621,3.422402,599,1029,430,599,0,21.429,21,load
1780595343.1582363,9.83087630000955,10065,0.086182,-0.11084,1.087402,1.938931,3.816794,-0.274809,1.096429,4.289859,599,1030,431,599,1,11.952,49,load
1780595343.1883726,9.861012800000026,10096,0.044678,0.001221,1.057373,1.755725,3.007634,-1.366412,1.058317,3.741058,600,1031,431,600,0,11.952,14,load
1780595343.2204878,9.893127999996068,10127,0.156006,0.047363,1.064209,4.183206,3.236641,-1.671756,1.076625,5.547056,600,1032,432,600,1,11.952,49,load
1780595343.2515547,9.924194699997315,10158,0.048828,0.007324,1.062012,1.374046,2.320611,-1.641221,1.063159,3.157031,601,1033,432,601,0,11.952,13,load
1780595343.2820177,9.954657700000098,10189,0.118896,-0.137451,1.088623,1.557252,4.748092,0.10687,1.103689,4.998082,601,1034,433,601,1,11.952,48,load
1780595343.3115506,9.984190800008946,10220,0.009766,-0.0625,1.036865,1.48855,1.778626,-2.473282,1.038793,3.390636,602,1035,433,602,0,11.952,15,load
1780595343.3418174,10.014457400000538,10250,0.090088,-0.084717,1.080078,-0.236641,4.335878,1.900763,1.087135,4.74012,602,1036,434,602,1,11.952,45,load
1780595343.3742433,10.046883300004993,10281,0.049072,-0.009033,1.064941,3.061069,1.977099,-1.442748,1.06611,3.919258,603,1037,434,603,0,11.952,15,load
1780595343.4057,10.078340000007302,10312,0.023682,0.071777,1.054199,2.229008,3.038168,0.832061,1.056905,3.85892,603,1038,435,603,1,11.952,45,load
1780595343.43742,10.110060000006342,10343,0.114014,0.025391,1.05835,2.51145,3.740458,-1.206107,1.064776,4.664022,604,1039,435,604,0,17.986,18,load
1780595343.4684541,10.141094300008263,10375,0.055908,-0.06543,1.033203,-0.755725,3.78626,-0.091603,1.036781,3.86203,604,1040,436,604,1,17.986,42,load
1780595343.498497,10.171137199999066,10406,0.067871,-0.026855,1.073242,1.694656,3.954198,-0.618321,1.075721,4.346247,605,1041,436,605,0,17.986,20,load
1780595343.5288603,10.20150029999786,10437,0.001221,0.059326,1.050537,2.763359,1.236641,-1.053435,1.052212,3.205489,606,1043,437,606,0,17.986,12,load
1780595343.5614076,10.234047699996154,10468,0.055176,-0.032959,1.059082,0.465649,4.267176,-0.229008,1.06103,4.298612,606,1043,437,606,0,17.986,12,load
1780595343.5913503,10.263990399995237,10499,0.057129,-0.11499,1.05127,2.259542,3.709924,-1.557252,1.059082,4.614553,607,1045,438,607,0,17.986,12,load
1780595343.6229074,10.29554740000458,10530,0.031982,-0.004883,1.046875,0.671756,2.854962,0.946565,1.047375,3.08189,607,1045,438,607,0,17.986,12,load
1780595343.6576872,10.330327300005592,10561,0.084717,0.037109,1.070801,2.312977,3.89313,-0.198473,1.074788,4.532738,608,1047,439,608,0,17.986,12,load
1780595343.6850443,10.357684300004621,10592,0.026367,-0.020508,1.049561,0.839695,2.610687,-1.603053,1.050092,3.176563,608,1047,439,608,0,17.986,12,load
1780595343.7170753,10.38971550000133,10624,0.02002,-0.025879,1.039551,0.78626,3.419847,0.366412,1.040066,3.528146,609,1049,440,609,0,17.794,12,load
1780595343.7488499,10.421489900007145,10655,0.017578,0.034424,1.05542,2.534351,1.877863,-2.465649,1.056127,4.00359,609,1049,440,609,0,17.794,12,load
1780595343.7799518,10.452591900000698,10687,0.049072,-0.085205,1.040772,0.290076,3.732824,-1.389313,1.045406,3.993534,610,1051,441,610,0,17.794,8,load
1780595343.8121622,10.484802300008596,10718,-0.017334,-0.055908,1.056152,2.549618,1.19084,-3.015267,1.057773,4.124377,610,1051,441,610,0,17.794,8,load
1780595343.8415723,10.514212399997632,10750,0.025391,-0.008057,1.053711,3.267176,3.427481,-1.320611,1.054048,4.9159,611,1053,442,611,0,17.794,6,load
1780595343.8733072,10.545947400009027,10780,-0.021484,-0.046143,1.042236,3.007634,1.396947,-2.053435,1.043478,3.900502,611,1053,442,611,0,17.794,6,load
1780595343.9032433,10.575883299999987,10811,0.035645,0.048828,1.049316,2.832061,3.740458,-1.618321,1.051056,4.962918,612,1055,443,612,0,17.794,6,load
1780595343.9346876,10.60732779999671,10842,-0.010254,0.005371,1.042969,3.610687,1.48855,-2.091603,1.043033,4.43031,612,1055,443,612,0,17.794,6,load
1780595343.9659638,10.638604000007035,10872,0.045654,-0.053223,1.051025,1.007634,3.320611,-0.305344,1.053362,3.483535,613,1057,444,613,0,17.794,6,load
1780595343.9963787,10.669018700005836,10903,0.048584,-0.061279,1.05127,-0.160305,3.038168,-0.015267,1.054174,3.042432,613,1057,444,613,0,14.337,6,load
1780595344.0270083,10.699648299996625,10934,0.044922,-0.062988,1.044678,0.007634,3.572519,-1.519084,1.047538,3.882083,614,1059,445,614,0,14.337,7,load
1780595344.0585933,10.731233400001656,10965,0.033203,-0.07666,1.043213,0.580153,3.435115,-0.458015,1.046553,3.51374,614,1059,445,614,0,14.337,7,load
1780595344.0905871,10.763227300005383,10997,0.018066,-0.068604,1.029297,-0.442748,3.503817,-0.618321,1.031739,3.585398,615,1061,446,615,0,14.337,7,load
1780595344.1197824,10.79242250000243,11028,0.004883,-0.098145,1.035889,0.419847,2.931298,-0.206107,1.040539,2.968376,615,1061,446,615,0,14.337,7,load
1780595344.1517897,10.824429800006328,11059,-0.006104,-0.065674,1.037109,-0.030534,3.259542,-1.229008,1.039205,3.483677,616,1063,447,616,0,14.337,8,load
1780595344.1829047,10.855544699996244,11090,-0.004639,-0.093506,1.044922,1.282443,1.633588,-1.122137,1.049108,2.360606,616,1063,447,616,0,14.337,8,load
1780595344.2142649,10.886905000006664,11121,0.064697,0.019287,1.072754,0.396947,4.244274,0.679389,1.074876,4.316596,617,1065,448,617,0,14.337,9,load
1780595344.2441292,10.916769300005399,11152,0.062256,0.069092,1.069336,3.328244,2.916031,-0.564886,1.073373,4.46089,617,1065,448,617,0,14.337,9,load
1780595344.2818208,10.954460900000413,11183,0.039551,-0.044922,1.051025,1.099237,2.259542,-2.290076,1.052728,3.39975,618,1067,449,618,0,17.857,12,load
1780595344.3114753,10.984115400002338,11219,0.071289,0.025635,1.057129,2.427481,4.42748,-0.328244,1.05984,5.05994,618,1067,449,618,0,17.857,12,load
1780595344.3416994,11.014339500005008,11249,0.038818,0.022461,1.056396,2.48855,3.320611,-0.78626,1.057348,4.223451,619,1069,450,619,0,17.857,14,load
1780595344.3728597,11.045499800005928,11280,0.018555,-0.098877,1.044189,1.343511,2.603053,-0.633588,1.049024,2.997056,619,1069,450,619,0,17.857,14,load
1780595344.405034,11.077674200001638,11312,0.022705,-0.026855,1.048584,1.335878,2.679389,-1.40458,1.049174,3.307044,619,1070,451,619,1,17.857,58,load
1780595344.4365382,11.109178300001076,11343,0.021973,-0.0271,1.050293,-0.259542,3.435115,-0.40458,1.050872,3.468582,620,1071,451,620,0,17.857,21,load
1780595344.4675257,11.140165899996646,11374,0.004639,-0.06958,1.054199,1.473282,2.557252,-1.694656,1.056503,3.403228,620,1071,451,620,1,17.857,21,load
1780595344.4980824,11.17072239999834,11405,0.009033,-0.081543,1.040283,2.274809,2.748092,-3.312977,1.043513,4.86853,621,1073,452,621,0,17.857,5,load
1780595344.5279303,11.200570300003164,11435,0.05127,-0.029785,1.055908,-0.175573,3.618321,0.458015,1.057572,3.651417,621,1073,452,621,0,11.905,5,load
1780595344.5600562,11.232696400009445,11467,0.048584,-0.05127,1.055908,1.358779,3.603053,-1.099237,1.058268,4.004572,622,1075,453,622,0,11.905,14,load
1780595344.5924227,11.265062899998156,11498,0.037354,0.052002,1.072022,1.984733,3.908397,-1.641221,1.073932,4.680634,622,1075,453,622,0,11.905,14,load
1780595344.6387253,11.311365300003672,11530,0.005615,-0.102539,1.015137,1.19084,2.351145,-1.08397,1.020318,2.849732,622,1076,454,622,1,11.905,58,load
1780595344.6541944,11.326834499996039,11561,0.047119,-0.052979,1.071045,0.931298,4.458016,0.145038,1.073389,4.556562,623,1077,454,623,0,11.905,19,load
1780595344.6860104,11.358650399997714,11593,0.058105,-0.11499,1.036865,2.022901,2.572519,-1.709924,1.044839,3.6924,623,1078,455,623,1,11.905,50,load
1780595344.7171974,11.389837399998214,11624,0.031494,0.05957,1.046631,1.236641,3.946565,-0.160305,1.048798,4.138883,624,1079,455,624,0,11.905,14,load
1780595344.7494824,11.42212250000739,11656,0.075195,0.095703,1.085938,4.328244,2.305344,-1.450382,1.092737,5.113894,624,1080,456,624,1,11.905,51,load
1780595344.7797806,11.452420600006008,11687,0.074707,-0.058594,1.057129,-0.549618,3.969466,-0.435114,1.061384,4.030888,625,1081,456,625,0,15.873,12,load
1780595344.811803,11.48444319999544,11718,-0.002686,-0.061279,1.040283,1.625954,2.229008,-0.961832,1.04209,2.92187,625,1081,456,625,0,15.873,12,load
1780595344.842417,11.515057099997648,11749,0.055908,0.099609,1.064209,2.541985,4.007634,-1.381679,1.070322,4.942858,626,1083,457,626,0,15.873,4,load
1780595344.8739212,11.546561299997848,11780,0.020508,-0.023682,1.05249,2.198473,2.320611,-0.503817,1.052956,3.236101,626,1083,457,626,0,15.873,4,load
1780595344.9044268,11.577067000005627,11812,0.060303,-0.027344,1.064941,1.030534,4.473282,-0.625954,1.066998,4.632934,627,1085,458,627,0,15.873,3,load
1780595344.9363341,11.608974200004013,11843,0.070068,-0.039551,1.05127,2.381679,1.381679,-2.030534,1.054344,3.421184,627,1085,458,627,0,15.873,3,load
1780595344.9671917,11.639831799999229,11874,0.037354,-0.091064,1.049316,0.167939,4.236642,0.038168,1.053923,4.24014,628,1087,459,628,0,15.873,2,load
1780595344.9992452,11.67188530000567,11906,0.067627,-0.028564,1.075928,1.290076,1.687023,-1.19084,1.078429,2.434839,628,1087,459,628,0,15.873,2,load
1780595345.028386,11.701026199996704,11937,0.108398,-0.009033,1.078857,1.503817,4.70229,-0.78626,1.084327,4.99912,629,1089,460,629,0,16.0,2,load
1780595345.0589144,11.73155460000271,11966,0.068604,-0.074951,1.052246,1.694656,4.183206,2.022901,1.05714,4.946028,629,1089,460,629,0,16.0,2,load
1780595345.0891368,11.761777000006987,11997,0.111572,-0.046631,1.042969,3.557252,3.48855,-2.70229,1.049956,5.668015,630,1091,461,630,0,16.0,6,load
1780595345.1205943,11.793234299999312,12028,0.113037,0.015625,1.063232,1.832061,4.740458,2.366412,1.069338,5.606095,630,1091,461,630,0,16.0,6,load
1780595345.1517165,11.82435660000192,12059,0.131348,0.002686,1.056885,3.954198,4.167938,-0.709924,1.065019,5.788902,631,1093,462,631,0,16.0,5,load
1780595345.1828175,11.85545760000241,12089,0.086182,0.025635,1.046387,1.824428,4.778626,1.198473,1.050243,5.253584,631,1093,462,631,0,16.0,5,load
1780595345.2130854,11.885725400003139,12120,0.182373,-0.079102,1.077393,1.374046,5.48855,0.145038,1.095578,5.659789,632,1095,463,632,0,16.0,4,load
1780595345.2444441,11.917084100001375,12151,0.05127,-0.069336,1.044434,-0.167939,4.625954,0.992366,1.047987,4.734178,632,1095,463,632,0,16.0,4,load
1780595345.2752616,11.947901799998363,12182,0.054199,-0.116211,1.050049,0.832061,3.946565,-0.80916,1.057849,4.11369,633,1097,464,633,0,16.0,2,load
1780595345.3068573,11.979497399996035,12213,0.103271,-0.116943,1.049805,-0.748092,5.687022,1.687023,1.061334,5.978956,633,1097,464,633,0,14.493,2,load
1780595345.3366342,12.009274299998651,12244,0.003906,0.03833,1.032227,4.435114,1.206107,-2.80916,1.032945,5.38668,634,1099,465,634,0,14.493,3,load
1780595345.3688824,12.041522400002577,12275,0.040283,-0.038086,1.052734,-0.832061,3.633588,0.916031,1.054193,3.838541,634,1099,465,634,0,14.493,3,load
1780595345.3990602,12.071700300002703,12306,0.045898,-0.00415,1.058594,3.557252,3.816794,-1.648855,1.059596,5.471808,635,1101,466,635,0,14.493,8,load
1780595345.4298806,12.102520700005698,12337,0.017578,-0.07959,1.041504,0.351145,2.0,-1.221374,1.044688,2.369611,635,1101,466,635,0,14.493,8,load
1780595345.459905,12.13254489999963,12367,0.033447,-0.029541,1.05127,1.854962,1.29771,-1.885496,1.052216,2.946189,636,1103,467,636,0,14.493,12,load
1780595345.490283,12.162923099996988,12397,0.048828,0.016113,1.059082,2.419847,4.267176,0.183206,1.060329,4.908973,636,1103,467,636,0,14.493,12,load
1780595345.5210805,12.193720499999472,12428,0.032227,0.071045,1.056396,2.618321,1.992366,-1.832061,1.059273,3.765843,636,1104,468,636,1,14.493,57,load
1780595345.551589,12.224229200000991,12459,0.041016,0.025391,1.054443,2.312977,4.068702,0.129771,1.055546,4.681991,637,1105,468,637,0,14.493,18,load
1780595345.598718,12.271357899997383,12490,0.037598,0.047363,1.074463,2.801527,3.351145,-1.175572,1.076163,4.52335,637,1105,468,637,0,14.44,18,load
1780595345.614739,12.287379000001238,12522,0.035156,0.004639,1.051758,1.427481,3.625954,-1.08397,1.052355,4.044779,638,1107,469,638,0,14.44,8,load
1780595345.6465478,12.319187900007819,12553,0.051025,-0.040039,1.054443,0.328244,3.389313,-0.580153,1.056436,3.454239,638,1107,469,638,0,14.44,8,load
1780595345.6777093,12.350349400003324,12584,0.032471,0.079834,1.060791,3.312977,1.770992,-1.274809,1.064286,3.967035,638,1108,470,638,1,14.44,67,load
1780595345.7088847,12.381524800002808,12615,0.034668,-0.105713,1.048828,1.992366,2.992366,-1.977099,1.054712,4.102768,639,1109,470,639,0,14.44,18,load
1780595345.7393816,12.412021600001026,12646,0.033203,0.05127,1.057861,2.541985,2.755725,-0.419847,1.059623,3.77253,639,1109,470,639,0,14.44,18,load
1780595345.7694507,12.442090800002916,12677,0.05542,-0.066162,1.057861,0.862595,3.694656,-0.839695,1.061376,3.885826,640,1111,471,640,0,14.44,13,load
1780595345.8016322,12.474272300009034,12708,0.030518,-0.012207,1.049561,0.48855,2.427481,-0.145038,1.050075,2.480399,640,1111,471,640,0,14.44,13,load
1780595345.8318856,12.504525600001216,12740,0.040039,-0.008301,1.069092,1.91603,2.870229,-0.908397,1.069873,3.568553,640,1112,472,640,1,12.0,61,load
1780595345.8637688,12.536409000007552,12771,0.014404,-0.071045,1.05542,2.053435,1.70229,-2.954198,1.057906,3.98016,641,1113,472,641,0,12.0,17,load
1780595345.8958127,12.568452899999102,12802,0.016602,-0.048828,1.050781,0.145038,1.48855,-0.969466,1.052046,1.782324,641,1113,472,641,0,12.0,17,load
1780595345.9259043,12.59854429999541,12833,0.025146,-0.052979,1.064697,0.984733,2.832061,-1.763359,1.066311,3.478463,642,1115,473,642,0,12.0,4,load
1780595345.9579196,12.630559600002016,12864,0.033691,0.010742,1.038086,1.946565,2.618321,0.236641,1.038688,3.271195,642,1115,473,642,0,12.0,4,load
1780595345.9876392,12.66027930000564,12895,0.02832,0.070557,1.052734,2.320611,3.0,-1.625954,1.055476,4.126616,643,1117,474,643,0,12.0,12,load
1780595346.0182378,12.690878000008524,12925,0.016846,0.067871,1.065918,2.519084,1.267176,-2.984733,1.068209,4.106111,643,1117,474,643,0,12.0,12,load
1780595346.0479093,12.720549300007406,12956,-0.003906,-0.050781,1.039307,0.282443,2.244275,-0.671756,1.040554,2.359618,643,1118,475,643,1,12.0,58,load
1780595346.0804906,12.753130700002657,12987,0.072754,0.074707,1.063965,3.51145,2.732824,-1.427481,1.069063,4.672934,644,1119,475,644,0,12.0,20,load
1780595346.1118593,12.784499400004279,13018,0.055176,-0.114746,1.048828,0.549618,3.862595,-0.29771,1.056528,3.912845,644,1120,476,644,1,14.388,49,load
1780595346.1419654,12.814605399995344,13049,0.071533,0.074951,1.067871,1.992366,4.236642,-0.465649,1.072886,4.704836,645,1121,476,645,0,14.388,13,load
1780595346.17398,12.84662009999738,13080,0.073486,-0.043213,1.062012,0.328244,2.21374,-1.022901,1.065428,2.460633,645,1121,476,645,0,14.388,13,load
1780595346.2057602,12.878400400004466,13112,0.041992,0.098633,1.056152,2.351145,3.267176,-1.137405,1.061579,4.182823,646,1123,477,646,0,14.388,3,load
1780595346.23653,12.909170200000517,13144,0.06665,-0.077393,1.040527,0.59542,3.870229,-0.007634,1.045528,3.91577,646,1123,477,646,0,14.388,3,load
1780595346.2666924,12.939332599999034,13174,0.03418,-0.063965,1.052246,-0.030534,3.145038,-0.114504,1.054742,3.14727,647,1125,478,647,0,14.388,11,load
1780595346.2978885,12.970528599995305,13205,0.055908,-0.036377,1.04126,0.740458,4.068702,-0.664122,1.043394,4.188517,647,1125,478,647,0,14.388,11,load
1780595346.329718,13.002358300000196,13236,0.043457,-0.023193,1.046143,1.007634,3.496183,-0.778626,1.047302,3.720871,647,1126,479,647,1,14.388,62,load
1780595346.3612232,13.033863300006487,13268,0.016846,-0.097656,1.044189,1.671756,1.992366,-1.40458,1.048881,2.955865,648,1127,479,648,0,16.0,21,load
1780595346.3922007,13.06484079999791,13299,0.080322,0.04541,1.068604,1.381679,4.091603,0.801527,1.07258,4.392346,648,1127,479,648,0,16.0,21,load
1780595346.422332,13.09497220000776,13330,0.041504,-0.080566,1.055664,0.916031,3.763359,-0.89313,1.059547,3.974879,649,1129,480,649,0,16.0,9,load
1780595346.4547093,13.127349300004425,13361,0.013428,-0.057617,1.049561,2.412214,3.068702,-2.10687,1.051226,4.435607,649,1129,480,649,0,16.0,9,load
1780595346.4860775,13.158717700003763,13392,0.01416,-0.025146,1.059814,0.015267,2.442748,-0.145038,1.060207,2.447098,649,1130,481,649,1,16.0,70,load
1780595346.5173109,13.189950900006806,13423,0.040527,-0.040771,1.060547,0.984733,3.328244,-1.381679,1.062104,3.735766,650,1131,481,650,0,16.0,14,load
1780595346.5466623,13.219302400000743,13454,0.061279,-0.01001,1.065674,0.572519,2.824427,-0.450382,1.067481,2.91685,650,1131,481,650,0,16.0,14,load
1780595346.5777197,13.250359700003173,13485,0.043213,-0.086914,1.041748,1.984733,3.076336,0.839695,1.04626,3.756074,650,1132,482,650,1,16.0,81,load
1780595346.6086898,13.281329899997218,13516,0.034912,0.033447,1.062256,3.671756,2.709924,-2.78626,1.063356,5.346842,651,1133,482,651,0,16.0,15,load
1780595346.640792,13.313431900009164,13547,0.035889,-0.076416,1.042236,2.137405,2.351145,-1.229008,1.04565,3.406882,651,1133,482,651,0,10.753,15,load
1780595346.670964,13.343604000008781,13578,0.042969,-0.025391,1.068359,1.221374,2.763359,-0.412214,1.069524,3.049234,651,1134,483,651,1,10.753,77,load
1780595346.7032802,13.375920200007386,13609,0.058838,0.018066,1.073486,1.465649,3.381679,-0.755725,1.075249,3.762313,652,1135,483,652,0,10.753,13,load
1780595346.7336855,13.40632550000737,13640,0.03418,-0.012207,1.046387,-0.954198,2.938931,-0.549618,1.047016,3.138454,652,1135,483,652,0,10.753,13,load
1780595346.765591,13.438231000007363,13672,0.015625,-0.098633,1.052246,2.70229,2.419847,-0.717557,1.056974,3.697692,653,1137,484,653,0,10.753,11,load
1780595346.7954533,13.468093400006182,13702,0.050049,-0.059082,1.064941,0.923664,2.832061,-0.59542,1.067753,3.037804,653,1137,484,653,0,10.753,11,load
1780595346.827218,13.499858099996345,13733,0.047852,-0.050537,1.067871,2.610687,3.083969,-1.229008,1.070137,4.223388,653,1138,485,653,1,10.753,64,load
1780595346.8577452,13.530385300007765,13765,0.006104,-0.094971,1.034668,2.007634,2.832061,-2.343511,1.039035,4.188462,654,1139,485,654,0,10.753,12,load
1780595346.8905478,13.563187799998559,13796,0.012207,-0.086182,1.044922,1.854962,3.045802,-0.305344,1.048541,3.579249,654,1139,485,654,0,10.753,12,load
1780595346.9209256,13.593565600007423,13828,0.043945,-0.032715,1.057861,1.251908,2.931298,-2.198473,1.059279,3.872088,655,1141,486,655,0,14.235,11,load
1780595346.9532652,13.625905199995032,13859,0.068115,-0.057861,1.063477,1.061069,3.51145,0.51145,1.067225,3.703746,655,1141,486,655,0,14.235,11,load
1780595346.984635,13.65727510000579,13891,0.049561,-0.04248,1.040772,0.48855,3.259542,-0.305344,1.042816,3.310065,655,1142,487,655,1,14.235,63,load
1780595347.0159502,13.688590400008252,13922,0.031494,-0.112061,1.043457,1.908397,3.557252,-1.572519,1.04993,4.332302,656,1143,487,656,0,14.235,20,load
1780595347.04729,13.719930100007332,13953,0.037598,0.104736,1.067383,1.320611,1.725191,-0.19084,1.073168,2.18099,656,1143,487,656,0,14.235,20,load
1780595347.0790293,13.751669300007052,13985,0.010986,0.021729,1.072022,2.305344,2.10687,-2.206107,1.072298,3.823666,657,1145,488,657,0,14.235,7,load
1780595347.110057,13.782697200003895,14016,0.031982,-0.050781,1.050049,0.549618,3.183206,-0.374046,1.051762,3.25189,657,1145,488,657,0,14.235,7,load
1780595347.140575,13.813215100002708,14047,0.028809,-0.116699,1.040039,1.549618,2.603053,-1.244275,1.046962,3.274969,658,1147,489,658,0,14.235,10,load
1780595347.171223,13.843863000001875,14078,0.031006,0.080566,1.050293,2.496183,3.030534,-1.21374,1.053835,4.10953,658,1147,489,658,0,12.0,10,load
1780595347.2027266,13.875366799999028,14109,0.028564,-0.099121,1.065186,0.740458,2.931298,0.633588,1.070169,3.089048,658,1148,490,658,1,12.0,59,load
1780595347.2325869,13.905226900009438,14140,0.069092,-0.019043,1.059326,2.099237,4.259542,-0.007634,1.061748,4.748742,659,1149,490,659,0,12.0,17,load
1780595347.2633412,13.935981300004642,14170,0.030029,-0.087646,1.05127,1.496183,2.717557,-0.580153,1.055344,3.155988,659,1150,491,659,1,12.0,49,load
1780595347.293931,13.966570999997202,14201,0.020996,0.055664,1.05835,1.961832,2.839695,-1.671756,1.06002,3.835025,660,1151,491,660,0,12.0,13,load
1780595347.325112,13.997752199997194,14232,0.037109,-0.0271,1.057373,1.847328,2.687023,-0.053435,1.058371,3.261222,660,1151,491,660,1,12.0,13,load
1780595347.358513,14.031153200005065,14263,0.048096,-0.045166,1.068115,0.038168,4.671756,0.305344,1.070151,4.68188,662,1153,491,662,0,12.0,0,load
1780595347.386581,14.059221100003924,14294,0.015625,0.004395,1.05957,2.717557,1.480916,-1.89313,1.059695,3.62797,662,1153,491,662,0,12.0,0,load
1780595347.4175968,14.090236799995182,14324,0.042969,-0.030029,1.043945,1.48855,2.954198,-1.40458,1.045261,3.593872,663,1155,492,663,0,12.0,5,load
1780595347.4486039,14.121243900008267,14355,0.020996,-0.068604,1.070068,0.900763,4.114504,0.145038,1.072471,4.214446,663,1155,492,663,0,18.051,5,load
1780595347.4800704,14.152710499998648,14386,0.026367,-0.097656,1.05542,1.992366,2.977099,-1.847328,1.060256,4.030542,664,1157,493,664,0,18.051,6,load
1780595347.510101,14.182741099997656,14417,0.043945,0.058105,1.056885,1.51145,3.167939,-0.282443,1.059393,3.521377,664,1157,493,664,0,18.051,6,load
1780595347.541355,14.213994899997488,14448,0.054688,-0.058594,1.05835,1.022901,3.664122,-1.198473,1.06138,3.98854,665,1159,494,665,0,18.051,10,load
1780595347.5726113,14.245251400003326,14479,0.045166,-0.068359,1.044189,0.48855,2.022901,-0.603053,1.047399,2.166675,665,1159,494,665,0,18.051,10,load
1780595347.604427,14.27706720000424,14511,0.063477,0.052002,1.068604,2.366412,3.083969,-1.671756,1.071749,4.231494,666,1161,495,666,0,18.051,9,load
1780595347.635735,14.308375100008561,14542,0.065674,0.0354,1.0625,2.419847,3.709924,0.870229,1.065116,4.514034,666,1161,495,666,0,18.051,9,load
1780595347.6662204,14.338860500007286,14573,0.040039,-0.042236,1.054932,1.763359,2.885496,-1.526718,1.056536,3.710308,667,1163,496,667,0,18.051,9,load
1780595347.6973462,14.36998630000744,14604,0.039307,-0.104248,1.07251,1.259542,3.0,-0.564886,1.078281,3.302354,667,1163,496,667,0,18.051,9,load
1780595347.7275944,14.400234400003683,14634,0.04126,0.088135,1.039795,3.076336,2.885496,-1.923664,1.044339,4.635776,668,1165,497,668,0,17.921,9,load
1780595347.7587287,14.431368899997324,14665,0.060791,-0.065674,1.060059,2.183206,3.083969,-1.198473,1.063829,3.964038,668,1165,497,668,0,17.921,9,load
1780595347.788575,14.461215000002994,14696,0.009277,-0.090576,1.032715,1.977099,2.458015,-2.10687,1.036721,3.793371,669,1167,498,669,0,17.921,8,load
1780595347.8201866,14.492826600006083,14727,0.043457,-0.030029,1.039795,1.480916,3.465649,1.625954,1.041136,4.104578,669,1167,498,669,0,17.921,8,load
1780595347.8509042,14.52354429999832,14758,0.080078,-0.028564,1.053223,2.763359,2.717557,0.335878,1.056649,3.890255,670,1169,499,670,0,17.921,5,load
1780595347.8829055,14.555545499999425,14789,0.106445,-0.172363,1.041016,1.816794,1.458015,-2.412214,1.060544,3.353405,671,1171,500,671,0,17.921,6,load
1780595347.9123383,14.58497830000124,14820,0.036865,-0.058105,1.030273,2.541985,3.29771,-1.427481,1.032569,4.401622,672,1173,501,672,0,17.921,6,load
1780595347.943902,14.616542000003392,14851,0.038574,-0.006104,1.052002,1.335878,3.198473,-1.267176,1.052726,3.690601,673,1175,502,673,0,17.921,6,load
1780595347.9753902,14.648030199998175,14882,0.057861,-0.027344,1.065186,0.961832,3.206107,-0.541985,1.067106,3.390869,674,1177,503,674,0,17.921,6,load
1780595348.0052369,14.677876900008414,14913,0.040771,-0.040283,1.047607,1.328244,2.70229,-0.458015,1.049174,3.045715,676,1182,506,676,1,28.674,15,load
1780595348.0369945,14.709634500002721,14944,0.026855,-0.019775,1.05835,1.427481,2.557252,-0.687023,1.058875,3.008195,681,1189,508,681,0,28.674,1,load
1780595348.0691907,14.74183090000588,14976,0.044922,-0.023193,1.063232,1.091603,2.78626,-0.687023,1.064434,3.070316,683,1193,510,683,0,28.674,0,load
1780595348.0994995,14.772139499997138,15007,0.056641,-0.024902,1.060791,2.076336,2.89313,-1.29771,1.062594,3.790174,686,1198,512,686,1,28.674,14,load
1780595348.129457,14.802097200008575,15037,0.063232,-0.005615,1.064697,1.740458,3.381679,-0.770992,1.066588,3.880642,691,1205,514,691,0,28.674,0,load
1780595348.1617281,14.83436829999846,15067,0.035156,-0.027588,1.055176,2.007634,2.725191,-0.419847,1.056122,3.410796,693,1209,516,693,0,28.674,0,load
1780595348.1915364,14.864176500006579,15098,0.035645,-0.022217,1.059326,1.854962,3.305344,-1.251908,1.060158,3.991673,696,1214,518,696,1,28.674,14,load
1780595348.222857,14.89549700000498,15129,0.047363,-0.025391,1.059082,1.244275,3.633588,-1.045802,1.060445,3.980563,701,1221,520,701,0,28.674,0,load
1780595348.2538662,14.926506400006474,15160,0.058838,-0.044678,1.048584,1.961832,3.51145,-1.099237,1.051183,4.169819,703,1225,522,703,0,28.674,0,load
1780595348.2850728,14.957712899995386,15191,0.041016,-0.015381,1.061035,1.854962,2.534351,-0.854962,1.061939,3.254962,708,1231,523,708,0,115.108,5,load
1780595348.3162897,14.988929700004519,15222,0.043945,-0.036621,1.073486,1.412214,3.244275,-0.664122,1.075009,3.600101,712,1237,525,712,0,115.108,1,load
1780595348.3466506,15.019290700001875,15253,0.056396,-0.048096,1.056396,1.80916,2.610687,-0.70229,1.058993,3.252992,714,1242,528,714,1,115.108,14,load
1780595348.3788137,15.051453799998853,15285,0.058838,-0.026123,1.051758,0.900763,2.961832,-0.931298,1.053726,3.232822,719,1249,530,719,0,115.108,0,load
1780595348.409819,15.082458899996709,15316,0.0271,-0.026123,1.05542,1.725191,2.816794,-1.366412,1.056091,3.57459,721,1253,532,721,0,115.108,0,load
1780595348.4423842,15.115024300001096,15347,0.04248,-0.027588,1.051514,1.854962,3.022901,-0.610687,1.052733,3.598854,725,1259,534,725,0,115.108,5,load
1780595348.4721353,15.144775499997195,15379,0.048096,-0.032959,1.05957,0.938931,3.19084,-0.938931,1.061173,3.456102,729,1265,536,729,0,115.108,1,load
1780595348.504571,15.17721110000275,15411,0.049805,-0.012207,1.056641,2.282443,3.129771,-1.427481,1.057884,4.128282,730,1268,538,730,1,115.108,17,load
1780595348.5349321,15.20757230000163,15442,0.066406,-0.022705,1.053955,1.129771,2.870229,-0.870229,1.056289,3.20498,735,1275,540,735,0,107.57,1,load
1780595348.581281,15.25392109999666,15473,0.046143,-0.035645,1.05835,1.366412,2.969466,-1.610687,1.059954,3.644053,737,1279,542,737,0,107.57,0,load
1780595348.597232,15.269872300006682,15504,0.034668,-0.026123,1.047363,1.900763,3.206107,-0.923664,1.048262,3.839945,742,1285,543,742,0,107.57,6,load
1780595348.6284235,15.301063599996269,15535,0.040283,-0.025391,1.068848,1.160305,3.29771,-0.80916,1.069908,3.588306,745,1289,544,745,0,107.57,5,load
1780595348.6599412,15.332581199996639,15566,0.019531,-0.037109,1.037598,1.625954,2.625954,-0.916031,1.038445,3.221564,747,1294,547,747,1,107.57,13,load
1780595348.6909542,15.363594199996442,15597,0.032959,-0.024414,1.05542,1.450382,3.038168,-0.725191,1.056217,3.443831,752,1301,549,752,0,107.57,1,load
1780595348.7219,15.39454000000842,15628,0.05127,-0.032471,1.056152,1.21374,2.603053,-0.954198,1.057894,3.026474,754,1305,551,754,0,107.57,0,load
1780595348.7533426,15.42598280000675,15659,0.048584,-0.029541,1.055176,2.450382,3.648855,-1.08397,1.056707,4.526974,758,1311,553,758,0,107.57,5,load
1780595348.7835531,15.456193200006965,15691,0.051758,-0.014404,1.05835,1.221374,3.183206,-0.885496,1.059712,3.522592,762,1317,555,762,0,107.57,0,load
1780595348.8168285,15.489468500003568,15722,0.018311,-0.032959,1.041992,1.648855,2.450382,-0.89313,1.042674,3.085575,764,1322,558,764,1,103.571,13,load
1780595348.8469265,15.519566600007238,15754,0.054443,-0.018799,1.055908,2.183206,2.969466,-0.40458,1.057478,3.707803,769,1329,560,769,0,103.571,0,load
1780595348.8793776,15.552017699999851,15785,0.057861,-0.030518,1.05835,1.465649,3.160305,-0.916031,1.060369,3.60205,771,1333,562,771,0,103.571,1,load
1780595348.9115548,15.58419490000233,15817,0.052002,-0.020508,1.04834,1.862595,3.389313,-0.732824,1.049829,3.936208,775,1339,564,775,0,103.571,6,load
1780595348.9427466,15.615386699995724,15849,0.036133,-0.019287,1.060059,1.206107,2.633588,-0.755725,1.06085,2.993593,779,1345,566,779,0,103.571,0,load
1780595348.9736412,15.64628129999619,15880,0.024902,-0.038086,1.049072,1.816794,2.198473,-0.687023,1.050059,2.933602,781,1350,569,781,1,103.571,14,load
1780595349.005379,15.67801899999904,15912,0.064697,-0.01416,1.064209,0.961832,3.183206,-0.938931,1.066268,3.45536,785,1355,570,785,0,103.571,6,load
1780595349.0364034,15.709043599999859,15943,0.049316,-0.043945,1.054932,1.580153,3.305344,-1.160305,1.056998,3.842979,787,1359,572,787,0,103.571,1,load
1780595349.0675037,15.74014380000881,15974,0.042725,-0.015381,1.045898,1.969466,3.152672,-0.732824,1.046884,3.788821,791,1365,574,791,0,107.143,5,load
1780595349.1001246,15.772764599998482,16006,0.043945,-0.028076,1.05835,1.389313,2.877863,-0.763359,1.059634,3.285575,795,1371,576,795,0,107.143,1,load
1780595349.1319249,15.804564999998547,16038,0.044434,-0.018799,1.053955,2.442748,2.992366,-1.015267,1.055059,3.994001,797,1376,579,797,1,107.143,14,load
1780595349.1630225,15.835662700003013,16069,0.052979,-0.012207,1.058594,1.244275,3.21374,-0.557252,1.059989,3.490971,802,1383,581,802,0,107.143,1,load
1780595349.1943777,15.86701770000218,16100,0.051025,-0.049316,1.053467,1.572519,3.48855,-1.458015,1.055854,4.094949,803,1385,582,803,0,107.143,5,load
1780595349.2265477,15.899187800008804,16132,0.030029,-0.023193,1.051758,1.419847,2.725191,-0.801527,1.052442,3.175701,808,1393,585,808,0,107.143,0,load
1780595349.257802,15.93044209999789,16164,0.032227,-0.025391,1.052978,1.251908,2.167939,-0.587786,1.053777,2.571522,810,1397,587,810,0,107.143,0,load
1780595349.2884233,15.961063499999,16195,0.046143,-0.018555,1.053711,2.305344,2.931298,-1.08397,1.054884,3.883569,813,1402,589,813,1,107.143,13,load
1780595349.3197076,15.99234759999672,16226,0.047607,-0.012695,1.05127,1.259542,3.664122,-0.839695,1.052424,3.964508,818,1409,591,818,0,107.143,0,load
1780595349.3511493,16.023789400001988,16257,0.052979,-0.048584,1.054932,1.534351,3.687023,-1.10687,1.057378,4.144096,820,1413,593,820,0,107.143,0,load
1780595349.3818784,16.05451850000827,16288,0.036865,-0.02417,1.057373,1.717557,2.709924,-0.641221,1.058292,3.271828,825,1419,594,825,0,107.143,5,load
1780595349.4141755,16.086815600006958,16320,0.03418,-0.026123,1.059326,1.320611,2.938931,-0.572519,1.060199,3.272477,829,1425,596,829,0,107.143,0,load
1780595349.4448545,16.117494699996314,16351,0.055908,-0.019287,1.05957,2.251908,2.839695,-0.862595,1.06122,3.725457,831,1430,599,831,1,107.143,14,load
1780595349.4754503,16.148090300004696,16382,0.069824,-0.007324,1.062256,1.541985,2.740458,-0.89313,1.064573,3.268869,836,1437,601,836,0,107.143,0,load
1780595349.5069044,16.17954450000252,16413,0.047607,-0.039307,1.051514,1.381679,3.167939,-1.152672,1.053324,3.643285,838,1441,603,838,0,107.143,1,load
1780595349.5373862,16.210026200002176,16444,0.033203,-0.020264,1.048096,1.877863,3.152672,-0.778626,1.048817,3.751262,842,1447,605,842,0,107.143,5,load
1780595349.5686452,16.241285299998708,16475,0.047607,-0.011719,1.064697,1.114504,2.748092,-1.0,1.065825,3.129557,845,1451,606,845,0,107.143,5,load
1780595349.609438,16.28207800000382,16506,0.024414,-0.030762,1.045654,1.824428,2.335878,-0.732824,1.046392,3.053177,847,1456,609,847,1,103.571,14,load
1780595349.631952,16.304592200001935,16538,0.059326,-0.011475,1.05957,1.19084,3.358779,-1.19084,1.061292,3.757338,852,1463,611,852,0,103.571,1,load
1780595349.6651149,16.33775500000047,16570,0.051758,-0.053223,1.056641,1.580153,3.21374,-1.396947,1.059246,3.844017,854,1467,613,854,0,103.571,0,load
1780595349.6948917,16.367531700001564,16601,0.037109,-0.013428,1.054443,1.992366,2.992366,-0.969466,1.055182,3.723392,859,1473,614,859,0,103.571,6,load
1780595349.7252824,16.397922500007553,16632,0.040771,-0.01123,1.063965,1.21374,3.0,-0.908397,1.064805,3.361302,863,1479,616,863,0,103.571,0,load
1780595349.7569358,16.429575900008786,16663,0.051514,-0.054688,1.056641,1.625954,2.229008,-1.167939,1.059308,2.996045,865,1484,619,865,1,103.571,13,load
1780595349.788658,16.461298000009265,16695,0.054443,-0.015869,1.056641,1.175572,3.358779,-0.755725,1.058161,3.637923,870,1491,621,870,0,103.571,0,load
1780595349.8200467,16.492686800003867,16726,0.02832,-0.03418,1.052978,1.618321,3.061069,-0.877863,1.053914,3.572079,872,1495,623,872,0,103.571,1,load
1780595349.8516302,16.524270399997476,16757,0.05249,-0.034668,1.045898,2.221374,2.992366,-0.938931,1.047788,3.843222,876,1501,625,876,0,115.538,6,load
1780595349.8881674,16.560807500005467,16789,0.04834,-0.012939,1.064453,1.343511,3.045802,-0.977099,1.065629,3.469388,880,1507,627,880,0,115.538,0,load
1780595349.921034,16.593674200004898,16826,0.03833,-0.037598,1.060547,3.572519,2.503817,0.259542,1.061905,4.370281,886,1515,629,886,0,115.538,1,load
1780595349.9521267,16.624766900000395,16858,0.012939,-0.03418,1.053467,0.664122,2.969466,-1.007634,1.0541,3.205325,888,1519,631,888,0,115.538,0,load
1780595349.9830997,16.65573990000121,16889,0.053223,-0.019775,1.054199,3.328244,3.427481,-0.21374,1.055727,4.782314,891,1524,633,891,1,115.538,14,load
1780595350.014415,16.687055100002908,16921,0.060791,-0.009277,1.047607,1.282443,3.198473,-0.641221,1.049411,3.505147,896,1531,635,896,0,115.538,0,load
1780595350.046239,16.71887900000729,16952,0.048096,-0.019043,1.059082,2.022901,2.977099,-0.251908,1.060345,3.608144,898,1536,638,898,1,115.538,13,load
1780595350.0769272,16.749567300008493,16983,0.038086,-0.029785,1.055908,2.78626,2.572519,-0.389313,1.057015,3.812173,904,1543,639,904,0,115.538,0,load
1780595350.1070695,16.779709599999478,17014,0.059814,0.006104,1.067627,0.366412,2.80916,-1.442748,1.069319,3.179176,906,1547,641,906,0,116.732,1,load
1780595350.1391466,16.811786699996446,17045,0.040039,-0.029785,1.054932,2.801527,3.618321,-0.748092,1.056111,4.636856,908,1552,644,908,1,116.732,13,load
1780595350.169466,16.84210609999718,17076,0.037598,-0.010742,1.052734,1.091603,3.221374,-0.671756,1.05346,3.467002,913,1559,646,913,0,116.732,1,load
1780595350.2004108,16.873050900001545,17107,0.02832,-0.043213,1.059082,1.793893,3.358779,-0.793893,1.060342,3.889693,915,1563,648,915,0,116.732,0,load
1780595350.2312899,16.90392989999964,17138,0.037354,-0.041504,1.056152,3.618321,2.793893,0.030534,1.057627,4.571544,920,1569,649,920,0,116.732,5,load
1780595350.2615745,16.934214699998847,17169,0.045654,0.00708,1.051025,1.564886,2.694656,-0.427481,1.05204,3.145279,924,1575,651,924,0,116.732,0,load
1780595350.2936223,16.96626230000402,17200,0.029541,-0.025391,1.041992,4.91603,1.389313,-0.862595,1.04272,5.18089,926,1580,654,926,1,116.732,14,load
1780595350.3245142,16.997154199998477,17231,0.000732,-0.012207,1.054199,8.335877,1.08397,-0.389313,1.05427,8.415071,931,1587,656,931,0,116.732,0,load
1780595350.3542821,17.026922300006845,17262,0.045166,-0.027344,1.021484,-7.51145,5.480916,-1.0,1.022848,9.35213,933,1591,658,933,0,116.732,0,load
1780595350.3856149,17.05825499999628,17292,0.046387,-0.088623,1.081787,3.977099,2.267176,-2.824427,1.086402,5.379107,937,1597,660,937,0,111.511,6,load
1780595350.415825,17.088465000008,17323,0.044189,-0.011963,1.048828,0.923664,2.89313,-0.625954,1.049827,3.100834,941,1603,662,941,0,111.511,0,load
1780595350.4481416,17.120781599995098,17354,0.053955,-0.045166,1.058838,0.931298,3.290076,-1.038168,1.061173,3.573473,943,1608,665,943,1,111.511,13,load
1780595350.4790816,17.15172170000733,17385,0.02417,-0.014893,1.056641,2.572519,2.366412,-0.770992,1.057022,3.579412,948,1615,667,948,0,111.511,1,load
1780595350.510632,17.18327219999628,17417,0.037354,-0.033691,1.045898,0.687023,2.671756,-1.114504,1.047107,2.975298,950,1619,669,950,0,111.511,0,load
1780595350.5411227,17.213762700004736,17448,0.045898,-0.037354,1.056641,3.717557,3.48855,-0.587786,1.058296,5.131832,953,1624,671,953,1,111.511,14,load
1780595350.572705,17.24534520000452,17479,0.030029,-0.028809,1.053955,3.274809,2.267176,-0.343511,1.054776,3.997807,958,1631,673,958,0,111.511,0,load
1780595350.6028702,17.275510200008284,17510,0.058105,-0.030273,1.051514,4.38168,2.603053,-0.763359,1.053553,5.153418,960,1635,675,960,0,111.511,0,load
1780595350.6361122,17.308752199998708,17541,0.037842,-0.037842,1.055908,1.51145,2.603053,-0.832061,1.057264,3.12293,966,1643,677,966,0,111.511,0,load
1780595350.6666281,17.339268299998366,17573,0.044678,-0.013428,1.044189,1.610687,2.664122,-0.709924,1.045231,3.193094,968,1647,679,968,0,110.32,0,load
1780595350.6980631,17.37070329999551,17604,0.033447,-0.02832,1.040283,-5.251908,4.740458,-1.473282,1.041206,7.22669,971,1652,681,971,1,110.32,13,load
1780595350.728616,17.401255999997375,17635,0.039307,-0.00415,1.030762,-1.030534,3.114504,-1.175572,1.031519,3.48484,976,1659,683,976,0,110.32,0,load
1780595350.7599065,17.432546600000933,17666,0.040771,-0.071289,1.053223,1.351145,3.076336,-2.312977,1.05642,4.07913,978,1663,685,978,0,110.32,1,load
1780595350.7903547,17.462994700006675,17697,0.044434,-0.041016,1.061035,3.725191,3.244275,-0.671756,1.062757,4.98534,983,1669,686,983,0,110.32,5,load
1780595350.8223333,17.494973499997286,17728,0.042969,0.012939,1.049805,0.770992,3.610687,-0.59542,1.050763,3.739788,987,1675,688,987,0,110.32,1,load
1780595350.8524842,17.525124200008577,17759,0.053223,-0.074219,1.049805,1.251908,2.671756,-0.633588,1.05377,3.017778,989,1680,691,989,1,110.32,14,load
1780595350.8834236,17.556063700001687,17790,0.048828,-0.002197,1.050049,1.839695,3.221374,-0.175573,1.051186,3.713833,994,1687,693,994,0,110.32,1,load
1780595350.9134967,17.58613690000493,17820,0.043701,-0.029297,1.049561,0.175573,2.748092,-1.80916,1.050878,3.294828,996,1691,695,996,0,110.32,0,load
1780595350.9449866,17.617626699997345,17851,0.057861,-0.037109,1.061279,3.992366,3.740458,-0.053435,1.063503,5.471094,1000,1697,697,1000,0,115.108,6,load
1780595350.9748023,17.647442300003604,17882,0.039307,-0.000488,1.041748,0.0,2.78626,-0.458015,1.042489,2.823654,1004,1703,699,1004,0,115.108,0,load
1780595351.0050483,17.677688299998408,17912,0.043945,-0.052246,1.057373,1.091603,2.992366,-1.0,1.059575,3.33854,1006,1707,701,1006,0,115.108,1,load
1780595351.0346828,17.707322800008114,17943,0.040527,-0.052002,1.055176,3.396947,2.70229,0.007634,1.057233,4.3407,1010,1713,703,1010,0,115.108,5,load
1780595351.066378,17.739018100008252,17973,0.042236,0.030518,1.065186,-0.198473,3.931298,-1.374046,1.066459,4.169232,1014,1719,705,1014,0,115.108,1,load
1780595351.0978541,17.77049419999821,18004,0.024658,-0.067627,1.045654,2.068702,2.664122,-0.282443,1.048129,3.384797,1016,1724,708,1016,1,115.108,14,load
1780595351.129143,17.801783200004138,18035,0.04834,-0.003906,1.05835,2.534351,2.167939,-0.145038,1.05946,3.338252,1021,1731,710,1021,0,115.108,1,load
1780595351.160129,17.832769200002076,18066,0.031982,-0.021973,1.053711,-0.076336,2.282443,-1.664122,1.054425,2.825717,1023,1735,712,1023,0,115.108,0,load
1780595351.1912298,17.86386979999952,18097,0.05127,-0.038574,1.058106,3.946565,3.793893,-0.122137,1.060049,5.475757,1027,1741,714,1027,0,115.108,5,load
1780595351.2218227,17.89446290000342,18128,0.03833,-0.001221,1.05127,0.229008,3.175573,-0.770992,1.051969,3.275841,1031,1747,716,1031,0,111.913,0,load
1780595351.2529662,17.92560620000586,18159,0.050781,-0.048584,1.05249,1.725191,2.954198,-0.709924,1.054834,3.493932,1033,1752,719,1033,1,111.913,13,load
1780595351.2834485,17.95608849999553,18190,0.029785,-0.035156,1.060303,3.061069,3.015267,-0.358779,1.061303,4.311693,1036,1757,721,1036,0,111.913,0,load
1780595351.3144913,17.987131400004728,18222,0.0354,-0.015381,1.053955,0.282443,2.847328,-1.70229,1.054662,3.329391,1038,1761,723,1038,0,111.913,1,load
1780595351.3474889,18.020128899996052,18253,0.048828,-0.029297,1.059082,4.152672,3.862595,0.045802,1.060612,5.671545,1041,1765,724,1041,0,111.913,5,load
1780595351.3762715,18.048911500009126,18284,0.042236,0.004395,1.047607,-0.007634,3.114504,-0.954198,1.048468,3.257405,1045,1771,726,1045,0,111.913,1,load
1780595351.4075632,18.08020320000651,18314,0.028809,-0.032227,1.061035,0.526718,2.763359,-1.694656,1.061915,3.28412,1047,1775,728,1047,0,111.913,0,load
1780595351.4395416,18.112181600008626,18345,0.043213,-0.036621,1.065186,3.290076,2.625954,-0.465649,1.06669,4.235218,1050,1781,731,1050,0,111.913,5,load
1780595351.4705694,18.143209400004707,18377,0.042236,0.001953,1.057129,-0.290076,3.053435,-1.442748,1.057974,3.389562,1054,1787,733,1054,0,111.913,0,load
1780595351.5017924,18.174432400002843,18408,0.054199,-0.064697,1.053711,2.977099,3.40458,-0.21374,1.057086,4.527689,1056,1792,736,1056,1,89.286,14,load
1780595351.5329757,18.205615700004273,18439,0.048828,0.008789,1.049561,0.908397,2.832061,-0.099237,1.050732,2.975836,1061,1799,738,1061,0,89.286,0,load
1780595351.5636053,18.236245499996585,18470,0.044922,-0.031982,1.053467,0.877863,2.78626,-1.801527,1.054909,3.432111,1063,1803,740,1063,0,89.286,0,load
1780595351.5974357,18.270075899999938,18501,0.030273,-0.039795,1.051025,3.282443,3.374046,-0.557252,1.052214,4.740164,1067,1809,742,1067,0,89.286,6,load
1780595351.626102,18.2987420999998,18532,0.050293,0.035645,1.053955,0.305344,3.801527,-1.08397,1.055756,3.964824,1071,1815,744,1071,0,89.286,0,load
1780595351.6568878,18.329527900001267,18563,0.028076,-0.064941,1.04541,1.847328,2.59542,-0.633588,1.047802,3.248116,1072,1818,746,1072,1,89.286,17,load
1780595351.687477,18.360117300006095,18594,0.044678,-0.002441,1.048096,2.083969,2.618321,-0.099237,1.04905,3.347892,1077,1825,748,1077,0,89.286,0,load
1780595351.7183983,18.391038400004618,18625,0.030518,-0.035645,1.048828,-0.053435,2.59542,-1.129771,1.049877,2.831156,1079,1829,750,1079,0,89.286,0,load
1780595351.7491162,18.421756199997617,18655,0.052734,-0.027832,1.058106,3.938931,3.244275,0.091603,1.059784,5.103811,1082,1834,752,1082,0,89.286,14,load
1780595351.7812045,18.453844500007108,18687,0.041504,0.002441,1.051758,0.267176,3.564885,-0.709924,1.052579,3.644692,1087,1841,754,1087,0,111.111,0,load
1780595351.813039,18.485679200006416,18718,0.059082,-0.053711,1.055908,1.679389,2.618321,-0.274809,1.058923,3.122735,1089,1846,757,1089,1,111.111,14,load
1780595351.8441696,18.51680959999794,18750,0.033447,-0.006836,1.054932,2.229008,2.78626,-0.19084,1.055484,3.573253,1094,1853,759,1094,0,111.111,0,load
1780595351.8744466,18.547086799997487,18781,0.03125,-0.025391,1.049561,0.251908,2.251908,-1.755725,1.050333,2.866552,1096,1857,761,1096,0,111.111,0,load
1780595351.905808,18.578448000000208,18812,0.052246,-0.031982,1.055908,3.870229,3.396947,-0.10687,1.057684,5.150664,1099,1862,763,1099,1,111.111,13,load
1780595351.936411,18.60905110000749,18843,0.046143,-0.007813,1.045898,0.381679,3.152672,-0.648855,1.046945,3.241301,1104,1869,765,1104,0,111.111,1,load
1780595351.967239,18.639879099995596,18874,0.047363,-0.054199,1.053955,1.648855,3.015267,-0.748092,1.05641,3.51713,1106,1874,768,1106,1,111.111,13,load
1780595351.9997814,18.67242139999871,18905,0.032959,-0.046875,1.054688,3.083969,2.618321,-0.160305,1.056243,4.048724,1111,1881,770,1111,0,111.111,1,load
1780595352.0312278,18.703867999996874,18936,0.043213,0.021729,1.064453,-0.198473,3.198473,-1.656489,1.065552,3.607434,1113,1885,772,1113,0,111.111,0,load
1780595352.0607164,18.733356400000048,18967,0.0625,-0.055908,1.054199,3.083969,2.648855,-0.381679,1.057529,4.083256,1115,1890,775,1115,1,100.0,14,load
1780595352.0918567,18.76449689999572,18998,0.039062,-0.00708,1.039307,1.007634,2.610687,-0.244275,1.040064,2.809036,1120,1897,777,1120,0,100.0,0,load
1780595352.12234,18.794980000006035,19029,0.027832,-0.025879,1.057861,0.564886,2.847328,-1.801527,1.058544,3.416412,1122,1901,779,1122,0,100.0,1,load
1780595352.1543522,18.826992200003588,19060,0.042236,-0.042236,1.055176,3.557252,3.236641,-0.152672,1.056865,4.811776,1126,1907,781,1126,0,100.0,6,load
1780595352.1856582,18.858298400009517,19091,0.055908,0.019531,1.061523,-0.068702,3.78626,-1.450382,1.063174,4.055131,1130,1913,783,1130,0,100.0,1,load
1780595352.2159393,18.888579400008894,19122,0.028564,-0.06665,1.04541,1.862595,2.419847,-0.641221,1.047922,3.12027,1132,1918,786,1132,1,100.0,14,load
1780595352.2460942,18.91873440000927,19153,0.036377,-0.00708,1.060303,2.328244,2.381679,-0.381679,1.06095,3.352431,1137,1925,788,1137,0,100.0,1,load
1780595352.278053,18.9506931000069,19184,0.052002,-0.038818,1.056152,0.358779,2.435115,-1.625954,1.058144,2.949955,1139,1929,790,1139,0,100.0,0,load
1780595352.3098412,18.98248120000062,19215,0.070312,-0.022705,1.059326,3.931298,3.877863,-0.160305,1.0619,5.524366,1143,1935,792,1143,0,100.0,6,load
1780595352.3395379,19.012178000004496,19246,0.057617,0.003418,1.054443,0.396947,2.969466,-0.801527,1.056022,3.101248,1147,1941,794,1147,0,114.695,0,load
1780595352.3700643,19.042704399995273,19277,0.063965,-0.052002,1.05249,1.977099,2.59542,-0.603053,1.055714,3.317951,1149,1946,797,1149,1,114.695,13,load
1780595352.4019234,19.074563600006513,19308,0.025146,-0.020508,1.053223,3.038168,2.587786,-0.519084,1.053722,4.024494,1154,1953,799,1154,0,114.695,1,load
1780595352.4332006,19.10584070000914,19339,0.033447,-0.010742,1.063477,-0.152672,2.877863,-1.908397,1.064057,3.456499,1156,1957,801,1156,0,114.695,1,load
1780595352.4639003,19.136540399995283,19370,0.054443,-0.057861,1.060303,3.076336,3.137405,-0.21374,1.063275,4.399186,1158,1962,804,1158,1,114.695,14,load
1780595352.4939375,19.16657750000013,19401,0.047119,0.006348,1.053711,1.08397,2.465649,-0.580153,1.054783,2.755175,1163,1969,806,1163,0,114.695,0,load
1780595352.5262563,19.19889630000398,19432,0.038574,-0.04126,1.055908,0.961832,2.648855,-1.381679,1.057418,3.138565,1165,1973,808,1165,0,114.695,0,load
1780595352.5575967,19.23023670000839,19464,0.046875,-0.039551,1.060791,3.160305,2.664122,-0.320611,1.062562,4.145826,1170,1981,811,1170,0,114.695,0,load
1780595352.5887666,19.26140669999586,19496,0.028076,-0.009521,1.063721,-0.053435,3.0,-1.725191,1.064134,3.461089,1171,1983,812,1171,0,96.0,5,load
1780595352.6191988,19.291838899996947,19526,0.052002,-0.07666,1.050537,2.427481,3.007634,-0.038168,1.054613,3.865227,1173,1988,815,1173,1,96.0,14,load
1780595352.6500611,19.322701099998085,19557,0.034668,-0.000244,1.050781,1.603053,2.80916,-0.396947,1.051353,3.258639,1178,1995,817,1178,0,96.0,1,load
1780595352.6798747,19.352514700003667,19587,0.027588,-0.033936,1.050781,0.167939,2.503817,-1.91603,1.051691,3.157289,1180,1999,819,1180,0,96.0,0,load
1780595352.711625,19.384265100001357,19618,0.047363,-0.021973,1.054932,4.175572,3.946565,0.175573,1.056223,5.748183,1184,2005,821,1184,0,96.0,6,load
1780595352.7424986,19.41513870000199,19649,0.036621,0.007813,1.048828,0.083969,3.763359,-0.801527,1.049496,3.848684,1188,2011,823,1188,0,96.0,0,load
1780595352.7739682,19.446608400001423,19680,0.052246,-0.048828,1.051514,1.587786,2.755725,-0.427481,1.053942,3.209023,1190,2016,826,1190,1,96.0,13,load
1780595352.8042123,19.476852499996312,19711,0.027832,-0.025879,1.065186,2.89313,2.091603,-0.374046,1.065863,3.589556,1195,2023,828,1195,0,96.0,0,load
1780595352.834378,19.507018100004643,19742,0.04248,-0.002441,1.063721,0.122137,3.0,-1.381679,1.064571,3.305141,1197,2027,830,1197,0,96.0,1,load
1780595352.8655858,19.538225900003454,19772,0.044434,-0.072021,1.059082,2.29771,2.374046,-0.167939,1.062458,3.308136,1199,2032,833,1199,1,101.449,14,load
1780595352.8963146,19.568954700007453,19803,0.036865,0.013916,1.045898,1.839695,2.603053,0.007634,1.04664,3.187542,1204,2039,835,1204,0,101.449,0,load
1780595352.9280608,19.600700800001505,19834,0.032959,-0.039062,1.060059,0.427481,2.603053,-1.717557,1.06129,3.147798,1206,2043,837,1206,0,101.449,0,load
1780595352.9582071,19.630847100008396,19865,0.059326,-0.018555,1.060303,3.847328,3.732824,-0.244275,1.062123,5.366152,1210,2049,839,1210,0,101.449,5,load
1780595352.989361,19.66200120000576,19896,0.056152,0.005371,1.054688,0.396947,3.442748,-1.08397,1.056195,3.631125,1214,2055,841,1214,0,101.449,1,load
1780595353.0212226,19.69386270000541,19927,0.036377,-0.059814,1.050537,1.78626,2.48855,-0.549618,1.052867,3.112183,1216,2060,844,1216,1,101.449,14,load
1780595353.052212,19.724852200000896,19959,0.038818,-0.017334,1.047607,2.274809,2.274809,-0.21374,1.04847,3.224158,1221,2067,846,1221,0,101.449,1,load
1780595353.0829177,19.7555577000021,19990,0.031738,-0.032471,1.05542,0.045802,2.381679,-1.541985,1.056396,2.837642,1223,2071,848,1223,0,101.449,0,load
1780595353.1154978,19.788138000003528,20021,0.053467,-0.033447,1.050293,3.954198,3.236641,-0.206107,1.052185,5.114099,1227,2077,850,1227,0,101.449,6,load
1780595353.1462758,19.818915800002287,20053,0.05835,0.035889,1.061523,0.114504,3.80916,-0.862595,1.063731,3.907286,1230,2081,851,1230,0,110.32,5,load
1780595353.1781971,19.850837300007697,20084,0.048584,-0.05542,1.054688,1.78626,2.557252,-0.78626,1.057259,3.216903,1232,2086,854,1232,1,110.32,14,load
1780595353.2079136,19.880553800001508,20115,0.04126,-0.002686,1.063232,2.099237,2.267176,-0.587786,1.064036,3.145214,1238,2093,855,1238,0,110.32,0,load
1780595353.2394164,19.912056500004837,20146,0.036865,-0.023438,1.056641,0.022901,2.59542,-1.549618,1.057543,3.02292,1240,2097,857,1240,0,110.32,0,load
1780595353.270486,19.943126099999063,20177,0.060303,-0.043213,1.048584,3.496183,3.748092,-0.015267,1.051205,5.125594,1242,2102,860,1242,1,110.32,14,load
1780595353.3015711,19.97421129999566,20208,0.039062,-0.002686,1.042236,0.450382,2.709924,-0.908397,1.042972,2.893392,1247,2109,862,1247,0,110.32,0,load
1780595353.3323228,20.004962899998645,20239,0.034668,-0.059082,1.044678,1.351145,2.801527,-0.992366,1.046921,3.264802,1249,2113,864,1249,0,110.32,1,load
1780595353.3636837,20.036323899999843,20270,0.05249,-0.048096,1.059814,2.885496,2.908397,-0.259542,1.062203,4.105146,1254,2119,865,1254,0,110.32,5,load
1780595353.3934722,20.066112300002715,20301,0.050049,0.018555,1.058594,0.358779,3.40458,-1.679389,1.059939,3.813166,1258,2125,867,1258,0,110.32,1,load
1780595353.4260623,20.098702500006766,20332,0.04248,-0.084229,1.044434,2.259542,3.122137,-0.076336,1.048685,3.85475,1260,2130,870,1260,1,107.527,14,load
1780595353.457137,20.12977729999693,20364,0.058594,0.005615,1.056152,0.793893,2.503817,-0.694656,1.057791,2.716968,1265,2137,872,1265,0,107.527,0,load
1780595353.4873345,20.15997459999926,20395,0.032715,-0.03125,1.056152,0.770992,2.557252,-1.572519,1.057121,3.099481,1267,2141,874,1267,0,107.527,0,load
1780595353.5186946,20.191334800008917,20425,0.058838,-0.033203,1.063477,3.80916,3.427481,-0.251908,1.06562,5.130379,1271,2147,876,1271,0,107.527,5,load
1780595353.5505812,20.223221399995964,20457,0.049072,0.033936,1.059326,0.061069,3.778626,-1.145038,1.061005,3.948779,1275,2153,878,1275,0,107.527,1,load
1780595353.5818722,20.254512400002568,20488,0.030029,-0.067871,1.05249,2.099237,2.648855,-0.389313,1.055104,3.402174,1277,2158,881,1277,1,107.527,14,load
1780595353.6132238,20.285863800003426,20520,0.036133,-0.000244,1.049072,1.610687,2.641221,-0.305344,1.049694,3.108632,1282,2165,883,1282,0,107.527,0,load
1780595353.6446838,20.317324000003282,20551,0.025879,-0.034668,1.043701,0.664122,2.473282,-1.564886,1.044597,3.001175,1284,2169,885,1284,0,107.527,0,load
1780595353.67719,20.34983010000724,20583,0.052002,-0.040283,1.062988,3.343511,3.198473,-0.282443,1.065022,4.635631,1288,2175,887,1288,0,111.554,6,load
1780595353.7076936,20.380333599998266,20614,0.049316,0.040771,1.06543,0.328244,3.862595,-1.21374,1.067349,4.062087,1291,2179,888,1291,0,111.554,5,load
1780595353.7393289,20.411968900007196,20646,0.035889,-0.071289,1.054199,2.335878,2.610687,-0.671756,1.057216,3.566969,1293,2184,891,1293,1,111.554,14,load
1780595353.7701194,20.442759500001557,20677,0.047607,0.005615,1.055908,1.328244,2.885496,-0.603053,1.056996,3.233264,1298,2191,893,1298,0,111.554,1,load
1780595353.8017814,20.474421599996276,20708,0.026123,-0.043213,1.05957,0.908397,2.908397,-1.305344,1.060773,3.314797,1300,2195,895,1300,0,111.554,0,load
1780595353.8324544,20.50509449999663,20739,0.044922,-0.021973,1.057617,3.450382,3.419847,-0.083969,1.058799,4.85876,1304,2201,897,1304,0,111.554,6,load
1780595353.8647888,20.53742890000285,20771,0.040283,0.018555,1.064697,0.259542,3.618321,-1.358779,1.065621,3.873743,1308,2207,899,1308,0,111.554,0,load
1780595353.895521,20.568161100003636,20802,0.027344,-0.059082,1.046631,1.80916,2.778626,-0.59542,1.048654,3.368731,1309,2210,901,1309,1,111.554,17,load
1780595353.9258282,20.598468199998024,20833,0.026123,-0.009033,1.047852,2.198473,2.175573,-0.045802,1.048216,3.093299,1314,2217,903,1314,0,104.0,1,load
1780595353.958197,20.63083710000501,20864,0.027344,-0.034668,1.05127,0.40458,2.610687,-1.419847,1.052196,2.999223,1316,2221,905,1316,0,104.0,0,load
1780595353.9884114,20.66105160000734,20895,0.045654,-0.034668,1.043457,3.931298,3.51145,0.10687,1.04503,5.272268,1320,2227,907,1320,0,104.0,6,load
1780595354.0193276,20.691967699996894,20926,0.056641,-0.00708,1.047119,0.374046,2.900763,-1.068702,1.048674,3.113914,1324,2233,909,1324,0,104.0,0,load
1780595354.0512476,20.723887600004673,20957,0.047607,-0.054688,1.045654,1.832061,3.152672,-0.458015,1.048165,3.674992,1326,2238,912,1326,1,104.0,13,load
1780595354.0820384,20.75467860000208,20988,0.033447,-0.039795,1.050293,2.732824,2.519084,-0.229008,1.051579,3.723783,1331,2245,914,1331,0,104.0,1,load
1780595354.1125915,20.785231500005466,21019,0.043213,0.010254,1.05957,-0.320611,3.083969,-1.618321,1.060501,3.497516,1333,2249,916,1333,0,104.0,0,load
1780595354.1433954,20.816035399999237,21050,0.060791,-0.049072,1.047363,3.21374,2.870229,-0.251908,1.050273,4.316225,1335,2254,919,1335,1,104.0,14,load
1780595354.1733873,20.846027300009155,21081,0.05127,-0.006104,1.045898,0.725191,2.656489,-0.641221,1.047172,2.827366,1340,2261,921,1340,0,104.0,0,load
1780595354.2056344,20.878274500006228,21111,0.045898,-0.036865,1.052978,0.534351,2.717557,-1.320611,1.054623,3.068332,1342,2265,923,1342,0,100.719,1,load
1780595354.2353847,20.908024799995474,21142,0.051514,-0.03125,1.057861,3.908397,3.465649,-0.091603,1.059576,5.224431,1346,2271,925,1346,0,100.719,5,load
1780595354.2665064,20.939146400007303,21173,0.05249,0.011963,1.051758,0.427481,3.335878,-0.839695,1.053135,3.466397,1350,2277,927,1350,0,100.719,1,load
1780595354.2981343,20.970774400004302,21204,0.050537,-0.045166,1.053467,1.908397,2.916031,-0.534351,1.055645,3.525726,1352,2282,930,1352,1,100.719,14,load
1780595354.3293014,21.001941499998793,21235,0.020264,-0.019043,1.052002,2.679389,2.526718,-0.259542,1.052369,3.69199,1357,2289,932,1357,0,100.719,0,load
1780595354.3587847,21.03142480000679,21266,0.03418,0.007813,1.063721,0.030534,2.816794,-1.732824,1.064298,3.307256,1359,2293,934,1359,0,100.719,0,load
1780595354.3906775,21.06331759999739,21297,0.049805,-0.024658,1.055908,3.282443,2.885496,-0.435114,1.05737,4.39202,1361,2298,937,1361,1,100.719,14,load
1780595354.4216974,21.094337500006077,21328,0.051758,-0.01416,1.046631,0.725191,2.687023,-0.557252,1.048005,2.838402,1366,2305,939,1366,0,100.719,1,load
1780595354.4529576,21.12559759999567,21359,0.030762,-0.032471,1.062744,0.847328,2.946565,-1.114504,1.063685,3.262258,1367,2307,940,1367,0,100.719,6,load
1780595354.485338,21.157978100003675,21391,0.036133,-0.028076,1.055664,3.183206,2.732824,-0.175573,1.056655,4.199042,1372,2315,943,1372,0,107.143,0,load
1780595354.5163944,21.18903439999849,21423,0.02124,-0.032471,1.054443,0.244275,2.732824,-1.236641,1.055157,3.009532,1374,2319,945,1374,0,107.143,0,load
1780595354.5471096,21.21974980000232,21454,0.043701,-0.03833,1.048584,3.015267,3.145038,-0.114504,1.050194,4.358464,1377,2324,947,1377,1,107.143,14,load
1780595354.5777543,21.25039440000546,21485,0.056641,-0.020508,1.041504,0.519084,2.59542,-0.564886,1.043244,2.706427,1382,2331,949,1382,0,107.143,1,load
1780595354.6095762,21.282216399995377,21516,0.039551,-0.041504,1.061523,0.305344,2.725191,-0.10687,1.06307,2.744325,1384,2335,951,1384,0,107.143,0,load
1780595354.6404414,21.313081400003284,21547,0.031738,-0.046631,1.048096,3.389313,3.10687,-0.916031,1.049612,4.688198,1389,2341,952,1389,0,107.143,6,load
1780595354.672009,21.34464910000679,21578,0.034912,0.018799,1.049805,0.267176,3.648855,-1.282443,1.050553,3.876878,1393,2347,954,1393,0,107.143,1,load
1780595354.7036211,21.376261199999135,21609,0.022217,-0.04834,1.060791,2.122137,2.816794,-0.664122,1.062124,3.588712,1394,2350,956,1394,1,107.143,17,load
1780595354.734198,21.406838099996094,21640,0.049805,-0.012939,1.044922,1.229008,3.412214,0.664122,1.046188,3.687102,1400,2357,957,1400,0,107.143,0,load
1780595354.765558,21.43819810000423,21672,0.03418,-0.04248,1.05542,0.977099,2.221374,-1.694656,1.056827,2.959913,1402,2361,959,1402,0,106.762,0,load
1780595354.7967145,21.46935470000608,21703,0.064453,-0.030029,1.066162,3.305344,3.854962,-0.114504,1.068531,5.079285,1406,2367,961,1406,0,106.762,5,load
1780595354.8291628,21.501802900005714,21735,0.053711,0.021973,1.052978,0.900763,3.427481,-1.687023,1.054576,3.924926,1410,2373,963,1410,0,106.762,0,load
1780595354.8600597,21.53269980000914,21766,0.032227,-0.022705,1.054199,2.320611,2.045802,-0.870229,1.054936,3.213695,1412,2378,966,1412,1,106.762,14,load
1780595354.8904464,21.563086499998462,21797,0.042236,-0.003662,1.050049,0.969466,2.839695,0.549618,1.050904,3.050543,1418,2385,967,1418,0,106.762,1,load
1780595354.9216218,21.594261899997946,21828,0.039062,-0.030029,1.053467,1.206107,2.473282,-0.984733,1.054618,2.922588,1420,2389,969,1420,0,106.762,0,load
1780595354.9534893,21.62612950000039,21859,0.049561,-0.0354,1.057373,2.80916,3.015267,-0.923664,1.059126,4.223313,1423,2394,971,1423,1,106.762,13,load
1780595354.982962,21.655601999998908,21890,0.037842,-0.016357,1.047119,1.21374,2.40458,-0.343511,1.04793,2.715358,1428,2401,973,1428,0,106.762,1,load
1780595355.0149179,21.68755790000432,21921,0.028564,-0.020508,1.053223,1.679389,2.839695,-1.89313,1.05381,3.803703,1430,2405,975,1430,0,106.762,0,load
1780595355.0466235,21.71926359999634,21952,0.041992,-0.024414,1.05957,3.244275,2.351145,-1.48855,1.060683,4.274223,1434,2411,977,1434,0,114.286,6,load
1780595355.0777855,21.75042550000944,21984,0.051025,0.019531,1.060303,1.679389,2.923664,-1.206107,1.061709,3.580901,1438,2417,979,1438,0,114.286,0,load
1780595355.1096156,21.782255600002827,22015,0.015381,-0.028564,1.042969,0.946565,2.763359,0.114504,1.043473,2.923226,1440,2422,982,1440,1,114.286,15,load
1780595355.1404927,21.813132700001006,22047,0.070068,-0.03125,1.03418,0.122137,3.48855,1.068702,1.037022,3.650619,1445,2429,984,1445,0,114.286,1,load
1780595355.1715438,21.844184000001405,22078,0.067383,-0.031494,1.069336,1.587786,2.770992,-1.137405,1.07192,3.390155,1447,2433,986,1447,0,114.286,0,load
1780595355.2022305,21.874870500003453,22109,-0.003418,-0.012695,1.048828,2.908397,0.755725,-2.679389,1.04891,4.026042,1448,2436,988,1448,1,114.286,18,load
1780595355.2342317,21.906871700004558,22140,0.029541,-0.015137,1.061523,2.007634,3.435115,-0.450382,1.062042,4.004179,1454,2443,989,1454,0,114.286,1,load
1780595355.2659245,21.938564600000973,22172,0.090088,-0.05542,1.044434,1.824428,5.053436,1.267176,1.049776,5.520098,1456,2447,991,1456,0,114.286,1,load
1780595355.2969337,21.969573700000183,22203,0.133057,-0.062988,1.05957,-0.312977,5.72519,1.954198,1.069748,6.057612,1458,2451,993,1458,0,95.618,0,load
1780595355.3273635,22.00000359999831,22234,0.051025,-0.075439,1.053711,1.0,2.877863,-1.152672,1.05764,3.257414,1462,2456,994,1462,1,95.618,15,load
1780595355.3594022,22.03204220000771,22265,0.05835,-0.054199,1.027588,1.694656,4.206106,-0.664122,1.030669,4.58304,1467,2463,996,1467,0,95.618,1,load
1780595355.3905602,22.063200200005667,22297,0.078125,-0.036133,1.053711,1.099237,4.282442,-0.259542,1.057221,4.428882,1468,2465,997,1468,0,95.618,6,load
1780595355.4219837,22.094623700002558,22328,0.043701,-0.039307,1.051758,1.305344,3.458015,-0.374046,1.053399,3.715064,1469,2467,998,1469,0,95.618,6,load
1780595355.451668,22.124307999998564,22359,0.001953,0.004639,1.055176,1.679389,2.122137,-0.603053,1.055188,2.772632,1470,2469,999,1470,0,95.618,3,load
1780595355.4841542,22.156794299997273,22390,0.012207,-0.05127,1.061279,1.358779,3.816794,1.656489,1.062587,4.377002,1471,2471,1000,1471,0,95.618,1,load
1780595355.5199773,22.192617299995618,22427,0.027588,0.003418,1.06543,1.366412,4.129771,0.083969,1.065792,4.350764,1473,2474,1001,1473,1,95.618,26,load
1780595355.5517988,22.22443889999704,22458,0.074219,-0.087402,1.087646,-0.290076,4.328244,-0.541985,1.093674,4.37168,1474,2476,1002,1474,1,62.745,22,load
1780595355.584673,22.2573129000084,22490,0.031738,-0.06958,1.06958,1.885496,3.167939,0.022901,1.072311,3.686659,1475,2477,1002,1475,0,62.745,10,load
1780595355.6161559,22.288796000008006,22522,0.069336,0.03833,1.061523,1.534351,2.076336,-1.557252,1.064476,3.015035,1477,2479,1002,1477,0,62.745,0,load
1780595355.6480644,22.320704400000977,22554,0.013916,-0.067627,1.065918,1.839695,-0.343511,-1.290076,1.068152,2.273054,1478,2481,1003,1478,0,62.745,1,load
1780595355.6775336,22.350173800004995,22585,-0.007568,-0.106445,1.025635,1.29771,2.290076,-0.206107,1.031171,2.640262,1479,2483,1004,1479,0,62.745,1,load
1780595355.7089849,22.38162500000908,22615,0.012207,-0.043457,1.035156,2.061069,1.610687,-0.480916,1.03614,2.659624,1480,2485,1005,1480,0,62.745,3,load
1780595355.7402785,22.41291860000638,22646,-0.018311,-0.091797,1.056396,0.89313,2.801527,0.19084,1.060535,2.946634,1481,2487,1006,1481,0,62.745,5,load
1780595355.7701123,22.442752400005702,22677,0.031738,0.016846,1.010498,0.396947,4.70229,0.290076,1.011137,4.727922,1482,2489,1007,1482,0,62.745,5,load
1780595355.800577,22.473217000006116,22707,0.018799,0.076416,1.062012,1.59542,2.854962,0.381679,1.064923,3.292697,1483,2491,1008,1483,0,62.745,7,load
1780595355.8313289,22.503968899996835,22738,0.07666,-0.137939,1.057129,0.167939,4.473282,0.167939,1.068843,4.479583,1484,2493,1009,1484,0,35.714,8,load
1780595355.862624,22.535264000005554,22769,0.015869,-0.102783,1.013428,2.496183,2.0,-2.129771,1.01875,3.842766,1485,2495,1010,1485,0,35.714,8,load
1780595355.8940976,22.56673760000558,22800,0.116211,-0.204102,1.064941,2.396947,4.259542,0.282443,1.090533,4.895797,1485,2496,1011,1485,1,35.714,29,load
1780595355.9246724,22.597312500001863,22831,0.024658,-0.046631,1.065186,0.030534,1.938931,-0.450382,1.066491,1.990786,1486,2497,1011,1486,0,35.714,16,load
1780595355.9560883,22.628728499999852,22862,-0.023193,-0.080566,1.061035,1.282443,3.206107,-1.534351,1.064342,3.778626,1488,2499,1011,1488,0,35.714,0,load
1780595355.9887116,22.6613517000078,22894,0.037109,-0.128418,1.029297,1.358779,3.656489,0.267176,1.03794,3.909932,1489,2501,1012,1489,0,35.714,5,load
1780595356.0210803,22.69372029999795,22926,0.051025,0.042236,1.068604,1.076336,3.007634,0.458015,1.070654,3.227094,1490,2503,1013,1490,0,35.714,8,load
1780595356.0511515,22.723791600001277,22957,0.072266,-0.037354,1.086182,2.458015,3.10687,-2.236641,1.089224,4.5494,1491,2505,1014,1491,0,35.714,8,load
1780595356.0823278,22.754967900007614,22988,0.058105,-0.087158,1.06543,1.389313,4.167938,-1.709924,1.070567,4.714419,1492,2507,1015,1492,0,32.0,8,load
1780595356.1119113,22.78455130000657,23019,0.033691,-0.106201,1.067871,3.351145,3.175573,-2.59542,1.073668,5.296285,1493,2509,1016,1493,0,32.0,8,load
1780595356.143918,22.81655810000666,23050,0.019531,-0.083252,1.052246,2.419847,2.40458,-1.48855,1.055715,3.722022,1493,2510,1017,1493,1,32.0,26,load
1780595356.1750731,22.84771329999785,23081,0.045654,-0.012207,1.074951,0.10687,4.030534,0.954198,1.075989,4.143322,1494,2512,1018,1494,1,32.0,19,load
1780595356.2052884,22.87792840000475,23112,0.016113,-0.009033,1.061035,-0.473282,2.015267,-0.603053,1.061196,2.156148,1495,2513,1018,1495,0,32.0,12,load
1780595356.2373083,22.909948300002725,23142,0.079834,0.049316,1.080078,0.244275,4.038168,0.251908,1.084147,4.053385,1497,2515,1018,1497,0,32.0,0,load
1780595356.2668839,22.939523900000495,23173,-0.009521,0.081055,1.057617,2.083969,2.793893,-1.358779,1.060761,3.740996,1498,2517,1019,1498,0,32.0,6,load
1780595356.298556,22.971196200000122,23204,0.02832,-0.123535,1.061035,2.343511,3.458015,-1.793893,1.068578,4.546204,1499,2519,1020,1499,0,32.0,8,load
1780595356.3297133,23.00235340000654,23235,0.040771,0.081299,1.050537,3.526718,2.793893,-0.725191,1.054467,4.557354,1499,2520,1021,1499,1,32.0,32,load
1780595356.360916,23.03355590000865,23266,0.048828,0.08667,1.063477,1.854962,2.343511,-0.137405,1.068119,2.991958,1500,2521,1021,1500,0,28.777,16,load
1780595356.3896918,23.062332000001334,23297,0.034424,0.098633,1.073975,3.603053,3.068702,-1.0,1.079044,4.837244,1501,2523,1022,1501,0,28.777,2,load
1780595356.4221349,23.09477500000503,23327,0.056641,0.07959,1.039795,2.061069,3.320611,-1.78626,1.044374,4.297114,1502,2525,1023,1502,0,28.777,9,load
1780595356.4518273,23.124467300003744,23358,0.016846,0.080322,1.061523,2.549618,3.152672,-0.59542,1.064691,4.098099,1503,2527,1024,1503,0,28.777,9,load
1780595356.4817092,23.154349300006288,23389,0.143799,0.03418,1.055176,2.59542,5.267176,-0.305344,1.065478,5.879845,1503,2528,1025,1503,1,28.777,28,load
1780595356.513861,23.186501000003773,23419,0.029053,0.089111,1.069092,-0.053435,0.572519,-1.687023,1.073192,1.782324,1504,2529,1025,1504,0,28.777,14,load
1780595356.546168,23.218808200006606,23451,0.113281,-0.023926,1.0979,0.59542,5.503816,-0.343511,1.103988,5.546578,1506,2531,1025,1506,0,28.777,0,load
1780595356.5871878,23.25982780000777,23483,-0.019043,0.120117,1.065918,0.320611,1.122137,-1.412214,1.072834,1.832029,1507,2533,1026,1507,0,28.777,1,load
1780595356.6096673,23.282307400004356,23515,0.055664,0.033691,1.037109,1.389313,4.137404,1.045802,1.039148,4.487984,1508,2535,1027,1508,0,28.777,5,load
1780595356.641116,23.313756000003195,23546,0.013672,0.124512,1.066894,-0.045802,1.80916,-1.824428,1.074223,2.569766,1509,2537,1028,1509,0,32.143,7,load
1780595356.6719398,23.344579900003737,23577,0.035889,-0.172119,1.040772,1.946565,2.824427,-1.740458,1.055518,3.846518,1510,2539,1029,1510,0,32.143,8,load
1780595356.7031372,23.375777199995355,23608,0.050781,-0.061768,1.070068,0.610687,3.259542,-0.664122,1.073052,3.382102,1511,2541,1030,1511,0,32.143,9,load
1780595356.7341871,23.406827200000407,23639,0.038086,0.106934,1.076416,0.89313,2.160305,-2.381679,1.082385,3.337214,1511,2542,1031,1511,1,32.143,30,load
1780595356.7655108,23.438150900008623,23671,0.043945,0.036865,1.052246,2.503817,2.832061,0.221374,1.053808,3.786644,1512,2543,1031,1512,0,32.143,11,load
1780595356.7980423,23.4706823000015,23703,0.015625,0.07373,1.063477,1.732824,2.78626,-0.435114,1.066144,3.309871,1513,2545,1032,1513,0,32.143,6,load
1780595356.8297987,23.502438900002744,23735,0.070801,0.025879,1.057861,1.267176,3.78626,-0.992366,1.060544,4.114157,1514,2547,1033,1514,0,32.143,9,load
1780595356.85993,23.53257019999728,23766,0.02417,0.061035,1.049072,2.580153,2.984733,-0.10687,1.051124,3.946801,1514,2548,1034,1514,1,32.143,33,load
1780595356.8928707,23.56551080000645,23798,0.081787,0.015137,1.064697,1.099237,3.740458,0.969466,1.067941,4.017364,1515,2549,1034,1515,0,23.81,14,load
1780595356.9239573,23.596597399999155,23830,0.041992,-0.049561,1.05835,0.656489,2.564885,-1.08397,1.060341,2.860875,1516,2551,1035,1516,0,23.81,5,load
1780595356.9536142,23.626254300004803,23861,0.067139,-0.00415,1.065186,2.580153,4.038168,-2.312977,1.067307,5.321076,1517,2553,1036,1517,0,23.81,9,load
1780595356.9859946,23.658634699997492,23892,0.088135,0.037842,1.071289,0.923664,4.709924,-0.076336,1.075574,4.800246,1517,2554,1037,1517,1,23.81,32,load
1780595357.0162437,23.68888390000211,23923,0.056152,0.06543,1.065918,1.129771,3.40458,-0.381679,1.0694,3.607385,1518,2555,1037,1518,0,23.81,14,load
1780595357.0464828,23.71912290000182,23953,0.042236,0.009277,1.044678,1.51145,2.938931,-0.641221,1.045572,3.366447,1519,2557,1038,1519,0,23.81,6,load
1780595357.077563,23.750203200004762,23984,0.046631,-0.106689,1.067139,0.038168,3.80916,-0.40458,1.073472,3.830776,1520,2559,1039,1520,0,23.81,9,load
1780595357.1100092,23.78264930000296,24015,0.017822,0.043945,1.038086,2.541985,2.427481,-0.580153,1.039168,3.562433,1520,2560,1040,1520,1,23.81,35,load
1780595357.1423326,23.814972599997418,24047,0.028564,-0.061035,1.032715,1.10687,3.427481,-0.496183,1.034911,3.635792,1521,2561,1040,1521,0,23.81,10,load
1780595357.1718564,23.844496500008972,24078,0.074951,0.016113,1.063721,2.587786,4.152672,-0.236641,1.06648,4.898706,1522,2563,1041,1522,0,25.0,9,load
1780595357.2027147,23.875354700008756,24109,0.038086,0.109619,1.037842,2.480916,2.709924,-1.541985,1.04431,3.984514,1522,2564,1042,1522,1,25.0,36,load
1780595357.2341325,23.9067725000059,24140,0.06665,-0.069092,1.068604,0.10687,3.21374,-1.022901,1.072907,3.374296,1523,2565,1042,1523,0,25.0,13,load
1780595357.2661133,23.93875339999795,24171,0.060059,0.05127,1.067871,2.122137,3.633588,-0.877863,1.070787,4.298496,1524,2567,1043,1524,0,25.0,9,load
1780595357.295957,23.968597099999897,24202,-0.000977,-0.135986,1.030762,3.122137,2.015267,-1.885496,1.039694,4.16703,1525,2569,1044,1525,0,25.0,9,load
1780595357.3271148,23.999754999997094,24232,0.091553,-0.147949,1.049561,2.374046,3.343511,-0.59542,1.063884,4.143632,1525,2569,1044,1525,0,25.0,9,load
1780595357.3575282,24.030168299999787,24263,0.061768,0.100098,1.043457,1.748092,4.030534,0.80916,1.050065,4.467188,1527,2571,1044,1527,0,25.0,0,load
1780595357.3891878,24.061827900004573,24295,0.020996,-0.060791,1.041504,2.740458,3.519084,-0.305344,1.043488,4.470716,1528,2573,1045,1528,0,25.0,8,load
1780595357.4194176,24.09205760000623,24326,0.033691,-0.009766,1.054932,0.770992,2.427481,-1.755725,1.055515,3.093487,1529,2575,1046,1529,0,25.0,9,load
1780595357.4507744,24.123414600006072,24356,-0.00708,-0.162109,1.031494,2.412214,1.183206,-2.259542,1.044179,3.510596,1529,2576,1047,1529,1,25.18,30,load
1780595357.4805057,24.15314589999616,24387,0.07251,0.003662,1.084961,0.038168,4.442748,0.717557,1.087387,4.500484,1530,2577,1047,1530,0,25.18,15,load
1780595357.5134401,24.186080200001015,24418,0.088135,0.037109,1.051514,1.832061,4.053436,-0.076336,1.055853,4.448889,1531,2579,1048,1531,0,25.18,0,load
1780595357.5430229,24.215662900009193,24449,0.080811,0.037842,1.041748,2.290076,4.534352,0.503817,1.045563,5.104765,1532,2581,1049,1532,0,25.18,7,load
1780595357.5744486,24.247088600008283,24480,0.062012,-0.150391,1.03418,2.175573,3.847328,-0.198473,1.046896,4.424301,1533,2583,1050,1533,0,25.18,8,load
1780595357.6053145,24.277954600009252,24511,0.040039,-0.039795,1.064453,1.229008,2.045802,-1.78626,1.065949,2.981021,1534,2585,1051,1534,0,25.18,8,load
1780595357.636044,24.308684000003268,24542,0.042725,0.118896,1.076172,0.053435,3.335878,-1.259542,1.083562,3.566144,1534,2586,1052,1534,1,25.18,30,load
1780595357.666886,24.339526099996874,24573,-0.004883,0.081299,1.059326,2.633588,1.954198,-1.244275,1.062452,3.507548,1535,2587,1052,1535,0,25.18,11,load
1780595357.6990411,24.371681300006458,24604,0.053467,-0.166992,1.042725,1.862595,3.839695,-0.160305,1.057364,4.270622,1536,2589,1053,1536,0,25.18,5,load
1780595357.7294078,24.4020479000028,24635,0.056396,0.105713,1.067627,1.534351,3.167939,-0.969466,1.074329,3.651018,1537,2591,1054,1537,0,28.674,9,load
1780595357.7605796,24.433219600003213,24666,0.020508,-0.001465,1.043701,2.80916,3.564885,-0.709924,1.043904,4.593885,1538,2593,1055,1538,0,28.674,9,load
1780595357.7925856,24.465225799998734,24697,0.079834,0.05835,1.08374,-0.045802,2.740458,0.450382,1.088242,2.777598,1538,2594,1056,1538,1,28.674,31,load
1780595357.8239236,24.4965635999979,24729,0.023193,-0.080322,1.032959,2.21374,2.671756,-0.717557,1.036337,3.543136,1539,2595,1056,1539,0,28.674,11,load
1780595357.856414,24.529054200000246,24761,0.035645,0.092773,1.05957,1.656489,3.503817,-0.458015,1.064221,3.902623,1540,2597,1057,1540,0,28.674,6,load
1780595357.8864007,24.559040899999673,24792,0.039551,-0.104248,1.044434,1.40458,4.21374,0.793893,1.050368,4.512064,1541,2599,1058,1541,0,28.674,9,load
1780595357.9188356,24.5914757999999,24823,0.043457,0.075684,1.048828,2.687023,3.053435,-0.320611,1.052453,4.079994,1541,2600,1059,1541,1,28.674,36,load
1780595357.9499297,24.622569800005294,24855,0.049316,0.04541,1.067383,0.900763,3.389313,-0.847328,1.069486,3.607878,1542,2601,1059,1542,0,28.674,10,load
1780595357.9795103,24.65215029999672,24886,0.032227,0.037598,1.045898,3.358779,2.801527,-1.763359,1.04707,4.715864,1543,2603,1060,1543,0,23.904,10,load
1780595358.0098412,24.682481399999233,24916,0.036133,-0.11499,1.051514,0.923664,3.175573,-0.671756,1.058399,3.374711,1543,2603,1060,1543,0,23.904,10,load
1780595358.0420444,24.714684599995962,24947,0.037354,-0.037109,1.031494,2.198473,2.587786,-1.946565,1.032837,3.913954,1544,2605,1061,1544,0,23.904,3,load
1780595358.072852,24.745492000001832,24978,0.016113,0.027832,1.070801,2.083969,2.526718,-0.862595,1.071284,3.386931,1544,2606,1062,1544,1,23.904,40,load
1780595358.105162,24.777801999996882,25010,0.05249,0.067383,1.063232,3.221374,2.78626,-0.824427,1.066658,4.338222,1545,2607,1062,1545,0,23.904,19,load
1780595358.1359098,24.80855000000156,25041,0.050781,-0.107178,1.070312,-0.89313,3.450382,-0.816794,1.076863,3.656496,1546,2609,1063,1546,0,23.904,9,load
1780595358.1674914,24.840131500008283,25073,0.060791,0.078857,1.057617,2.442748,3.664122,0.671756,1.062294,4.454668,1546,2610,1064,1546,1,23.904,40,load
1780595358.1984036,24.871043799998006,25104,0.010498,-0.132568,1.044922,0.053435,2.778626,-1.450382,1.05335,3.13484,1547,2611,1064,1547,0,23.904,13,load
1780595358.2299554,24.902595499996096,25135,0.020508,-0.042236,1.062988,1.198473,2.839695,-0.763359,1.064025,3.175362,1548,2613,1065,1548,0,23.904,9,load
1780595358.2596605,24.932300500004203,25166,0.071045,0.079102,1.060547,3.145038,2.877863,-1.21374,1.065863,4.43244,1548,2613,1065,1548,0,17.857,9,load
1780595358.2910228,24.96366290000151,25197,0.049805,0.005127,1.046143,3.633588,3.282443,-0.78626,1.04734,4.959395,1549,2615,1066,1549,0,17.857,1,load
1780595358.322262,24.994902100006584,25228,0.033691,-0.040527,1.029541,2.679389,3.541985,-0.839695,1.030889,4.519942,1550,2617,1067,1550,0,17.857,9,load
1780595358.354284,25.02692420000676,25259,0.014893,0.026367,1.043945,3.389313,1.908397,-1.885496,1.044384,4.322559,1550,2617,1067,1550,0,17.857,9,load
