host_epoch_s,host_elapsed_s,time_ms,ax,ay,az,gx,gy,gz,acc_mag,gyro_mag,pulse_count,edge_count,rise_count,fall_count,state,pulse_rate_hz,last_edge_dt_ms,label
1780597071.108917,0.009223400003975257,610856,0.009766,0.00293,1.074951,1.648855,1.19084,-2.381679,1.074999,3.131967,24161,39610,15447,24161,0,93.19,7,load
1780597071.1398814,0.04018779999751132,610886,0.022217,-0.025391,1.049316,2.358779,2.045802,-1.091603,1.049859,3.307679,24164,39614,15448,24164,0,93.19,6,load
1780597071.1708448,0.0711511999979848,610917,0.049561,-0.016113,1.068359,0.89313,2.732824,-0.427481,1.06963,2.906673,24166,39618,15450,24166,0,93.19,0,load
1780597071.2017212,0.10202770000614692,610948,0.12207,-0.006104,1.053711,1.48855,4.473282,0.282443,1.060776,4.722903,24167,39620,15451,24167,0,93.19,6,load
1780597071.2328837,0.1331901000085054,610979,-0.017822,-0.023926,1.042969,1.183206,1.923664,-2.519084,1.043395,3.38323,24168,39623,15453,24168,1,93.19,19,load
1780597071.263262,0.16356860000814777,611009,-0.056641,-0.011719,1.105713,2.564885,0.290076,-3.137405,1.107225,4.062769,24170,39626,15454,24170,0,93.19,8,load
1780597071.294546,0.19485230000282172,611040,0.098633,-0.021729,1.0271,2.412214,5.732824,-2.122137,1.032053,6.571721,24171,39628,15455,24171,0,93.19,7,load
1780597071.3244705,0.22477700001036283,611071,0.029785,-0.002197,1.043457,1.015267,3.076336,-1.366412,1.043884,3.51592,24172,39630,15456,24172,0,61.372,8,load
1780597071.3553865,0.2556929999991553,611101,0.000244,0.000488,1.059814,1.755725,2.083969,-0.80916,1.059815,2.842576,24174,39634,15458,24174,0,61.372,0,load
1780597071.3869522,0.2872586000012234,611132,0.031738,-0.04541,1.044189,2.221374,2.717557,-1.381679,1.045658,3.77209,24176,39637,15459,24176,1,61.372,17,load
1780597071.4178996,0.31820609999704175,611163,0.074219,-0.020752,1.077393,3.167939,4.0229,-1.160305,1.080145,5.250322,24178,39640,15460,24178,0,61.372,7,load
1780597071.4481316,0.3484381000016583,611194,0.018799,0.002441,1.068604,0.633588,1.954198,-0.580153,1.068772,2.13469,24179,39642,15461,24179,0,61.372,7,load
1780597071.480422,0.3807284000067739,611225,0.137451,-0.034668,1.047607,0.603053,6.969466,0.641221,1.057155,7.024834,24180,39644,15462,24180,0,61.372,5,load
1780597071.512232,0.4125386000087019,611257,-0.020508,-0.001465,1.054199,2.389313,0.916031,-2.206107,1.0544,3.378585,24182,39647,15463,24182,1,61.372,16,load
1780597071.5433695,0.44367600000987295,611288,0.102539,-0.052002,1.048584,1.679389,4.610687,0.19084,1.054868,4.910723,24185,39651,15464,24185,0,61.372,4,load
1780597071.5739338,0.4742402999982005,611319,0.021729,-0.014404,1.038574,1.412214,3.572519,-0.427481,1.038901,3.865227,24187,39655,15466,24187,0,61.372,0,load
1780597071.6043754,0.5046817999973428,611350,0.064209,-0.019775,1.069824,0.473282,3.572519,1.160305,1.071932,3.785921,24188,39657,15467,24188,0,57.348,8,load
1780597071.6361532,0.5364595999999437,611381,0.051025,-0.050781,1.05127,0.549618,3.648855,0.122137,1.053731,3.692037,24189,39659,15468,24189,0,57.348,5,load
1780597071.666345,0.5666514000040479,611412,0.031006,0.036377,1.067627,0.022901,4.099236,-0.80916,1.068696,4.178398,24190,39661,15469,24190,0,57.348,4,load
1780597071.6988559,0.59916240000166,611444,0.032471,-0.089844,1.045654,2.114504,3.244275,-0.748092,1.050009,3.94412,24191,39663,15470,24191,0,57.348,6,load
1780597071.7290432,0.6293497000006028,611475,0.051514,-0.128906,1.068359,1.923664,3.366412,-3.343511,1.07734,5.119794,24192,39665,15471,24192,0,57.348,8,load
1780597071.7611609,0.6614671999996062,611506,-0.038818,0.114014,1.06665,1.267176,1.664122,-0.419847,1.073429,2.13338,24193,39667,15472,24193,0,57.348,9,load
1780597071.7920563,0.6923627000069246,611537,-0.155762,0.025635,1.06543,2.236641,-2.007634,-5.91603,1.07706,6.635704,24194,39669,15473,24194,0,57.348,9,load
1780597071.8241565,0.724463000005926,611569,0.048096,-0.054199,1.0271,3.183206,2.938931,-2.091603,1.029652,4.810917,24195,39671,15474,24195,0,57.348,8,load
1780597071.853598,0.7539045000012266,611600,0.278809,-0.032471,1.089356,0.664122,7.0,3.40458,1.124937,7.812312,24196,39673,15475,24196,0,32.0,9,load
1780597071.8838549,0.7841614000062691,611630,0.032471,-0.012207,1.132324,2.183206,4.358778,-0.900763,1.132855,4.95749,24197,39675,15476,24197,0,32.0,9,load
1780597071.9156754,0.8159818999993149,611661,0.013428,-0.077148,1.038574,1.091603,3.450382,0.175573,1.041522,3.623197,24198,39677,15477,24198,0,32.0,9,load
1780597071.946572,0.8468785000004573,611692,0.030273,-0.055176,1.03833,1.946565,3.419847,-0.641221,1.040236,3.986933,24199,39679,15478,24199,0,32.0,10,load
1780597071.9785054,0.8788119000091683,611723,0.042236,-0.144287,1.046143,1.709924,3.175573,-2.320611,1.05689,4.288746,24200,39681,15479,24200,0,32.0,10,load
1780597072.0088036,0.9091100000077859,611754,0.069824,-0.162109,1.067627,-0.091603,3.557252,0.778626,1.082119,3.642622,24200,39682,15480,24200,1,32.0,28,load
1780597072.039405,0.9397115000028862,611785,0.060059,0.059814,1.046631,3.938931,3.335878,-1.274809,1.050058,5.316804,24201,39683,15480,24201,0,32.0,13,load
1780597072.0704792,0.970785600002273,611816,0.051025,0.109375,1.085449,2.396947,2.78626,-0.992366,1.092138,3.807018,24202,39685,15481,24202,0,32.0,6,load
1780597072.1020253,1.0023317000013776,611847,0.014893,-0.069824,1.040039,3.51145,1.91603,-2.732824,1.042487,4.844562,24203,39687,15482,24203,0,32.0,11,load
1780597072.133215,1.033521400007885,611878,0.028076,-0.099609,1.077637,0.877863,2.137405,-2.732824,1.082595,3.578752,24203,39688,15483,24203,1,25.18,31,load
1780597072.163018,1.0633244000055129,611909,0.03125,0.110352,1.04541,1.755725,3.061069,-0.236641,1.051683,3.536766,24204,39689,15483,24204,0,25.18,13,load
1780597072.1942554,1.0945618999976432,611939,0.064209,-0.198242,1.040527,0.656489,3.725191,-2.007634,1.061188,4.282361,24205,39691,15484,24205,0,25.18,11,load
1780597072.2242007,1.1245072000019718,611970,0.028076,-0.052734,1.086182,1.21374,2.274809,-2.290076,1.087823,3.448532,24205,39692,15485,24205,1,25.18,30,load
1780597072.256986,1.1572923000057926,612001,0.102051,-0.054443,1.061279,-0.687023,4.664122,-0.458015,1.067564,4.736646,24206,39694,15486,24206,1,25.18,22,load
1780597072.2868068,1.1871132000087528,612032,0.073242,-0.214111,1.018799,1.251908,5.0229,-0.687023,1.043628,5.221954,24207,39695,15486,24207,0,25.18,10,load
1780597072.322659,1.2229653999966104,612063,0.142334,-0.018555,1.067627,1.229008,4.29771,-2.381679,1.077233,5.064896,24208,39697,15487,24208,0,25.18,10,load
1780597072.348559,1.2488654000044335,612094,0.059082,0.090332,1.06665,2.091603,3.877863,-1.076336,1.072098,4.53554,24209,39699,15488,24209,0,25.18,10,load
1780597072.3802176,1.280524100002367,612125,-0.024414,0.077148,1.031006,1.755725,2.946565,-1.572519,1.034176,3.773279,24209,39700,15489,24209,1,25.18,28,load
1780597072.4107144,1.3110207999998238,612156,0.018799,0.04834,1.056396,3.679389,1.030534,-1.358779,1.057669,4.05539,24210,39702,15490,24210,1,25.18,19,load
1780597072.442602,1.3429085000097984,612187,0.05127,0.051514,1.075684,-0.389313,2.167939,-0.664122,1.078136,2.300561,24211,39703,15490,24211,0,25.18,11,load
1780597072.473881,1.3741873999970267,612219,0.020508,-0.16748,1.060059,0.145038,2.503817,-1.175572,1.073403,2.769857,24212,39705,15491,24212,0,25.18,8,load
1780597072.503006,1.403312399997958,612250,0.007813,0.092285,1.056641,1.557252,2.29771,-2.656489,1.060692,3.842062,24213,39707,15492,24213,0,25.18,11,load
1780597072.5348947,1.4352012000017567,612280,0.039307,-0.102295,1.050293,0.435114,4.374046,0.053435,1.055995,4.39596,24213,39708,15493,24213,1,25.18,33,load
1780597072.5661478,1.4664542000100482,612311,0.0354,0.042236,1.070801,2.129771,1.259542,-2.351145,1.072218,3.413247,24214,39709,15493,24214,0,25.18,11,load
1780597072.596727,1.4970334000099683,612342,0.071045,0.11499,1.06543,1.725191,4.198474,-0.770992,1.07397,4.604117,24215,39711,15494,24215,0,25.18,11,load
1780597072.6274939,1.5278003999992507,612373,0.023682,0.062256,1.072754,-0.885496,2.099237,-1.633588,1.07482,2.803481,24215,39712,15495,24215,1,25.18,30,load
1780597072.6594634,1.559769800005597,612404,0.061768,0.113525,1.065674,1.312977,2.725191,-1.08397,1.073482,3.213342,24216,39714,15496,24216,1,25.18,19,load
1780597072.6889203,1.589226800002507,612435,0.085693,0.082031,1.042236,2.549618,4.687022,-0.70229,1.048966,5.38163,24217,39715,15496,24217,0,25.09,12,load
1780597072.7205164,1.6208230000047479,612466,0.024414,0.121094,1.07373,0.061069,2.267176,0.259542,1.080813,2.2828,24218,39717,15497,24218,0,25.09,4,load
1780597072.7515042,1.6518106000003172,612497,0.024902,0.075439,1.029053,1.709924,4.435114,-0.709924,1.032115,4.806046,24219,39719,15498,24219,0,25.09,10,load
1780597072.7836437,1.68395020000753,612528,0.085205,0.072021,1.05249,2.78626,4.954198,0.412214,1.058387,5.698881,24220,39721,15499,24220,0,25.09,10,load
1780597072.8139708,1.714277300008689,612559,0.043701,-0.198486,1.068115,0.030534,3.610687,-0.10687,1.08728,3.612398,24220,39722,15500,24220,1,25.09,28,load
1780597072.8444612,1.7447676000010688,612590,0.013428,0.032227,1.01709,3.984733,1.282443,-2.145038,1.017689,4.70361,24221,39723,15500,24221,0,25.09,17,load
1780597072.8751929,1.775499299998046,612621,0.012695,0.165039,1.072022,-1.198473,2.427481,0.664122,1.084725,2.787483,24222,39725,15501,24222,0,25.09,3,load
1780597072.90716,1.8074665000021923,612652,0.023438,-0.130371,1.046875,2.824427,2.412214,-1.839695,1.055222,4.144954,24223,39727,15502,24223,0,25.09,10,load
1780597072.937417,1.8377236000087578,612683,0.063721,0.112793,1.07666,1.717557,3.053435,-1.396947,1.084426,3.771595,24224,39729,15503,24224,0,25.09,10,load
1780597072.9698622,1.8701685999985784,612714,0.019775,-0.081543,1.041992,3.541985,2.740458,-0.969466,1.045365,4.582099,24224,39730,15504,24224,1,25.09,29,load
1780597072.9997802,1.9000865999987582,612745,0.015381,0.019775,1.051025,3.0,3.419847,-0.916031,1.051324,4.640524,24225,39731,15504,24225,0,25.09,14,load
1780597073.029797,1.9301035999960732,612775,0.058838,-0.19751,1.080566,1.389313,2.824427,-0.961832,1.100044,3.291307,24226,39733,15505,24226,0,25.09,2,load
1780597073.0606318,1.9609383000060916,612806,0.048584,-0.125977,1.071289,-0.381679,1.48855,0.641221,1.079764,1.66512,24227,39735,15506,24227,0,25.09,8,load
1780597073.091474,1.9917805000004591,612837,-0.015625,-0.129883,1.07251,2.19084,1.748092,-2.381679,1.080459,3.678043,24228,39737,15507,24228,0,25.09,10,load
1780597073.1230118,2.023318300009123,612868,0.007324,-0.088135,1.02832,3.412214,2.10687,-1.145038,1.032116,4.170518,24229,39739,15508,24229,0,25.09,10,load
1780597073.1534958,2.0538021999964258,612899,0.008789,-0.155518,1.067383,1.580153,2.687023,-1.641221,1.078688,3.522866,24229,39740,15509,24229,1,25.09,28,load
1780597073.1856077,2.0859141999972053,612930,0.029785,0.090088,1.064697,0.343511,2.129771,-1.427481,1.068917,2.586818,24230,39741,15509,24230,0,25.09,13,load
1780597073.2164407,2.1167471000080695,612961,0.040283,-0.072754,1.046143,1.305344,4.526718,0.29771,1.049443,4.720564,24231,39743,15510,24231,0,25.09,4,load
1780597073.246399,2.1467053000087617,612992,0.059814,0.074463,1.050781,3.564885,3.625954,-1.320611,1.055113,5.253567,24232,39745,15511,24232,0,28.777,11,load
1780597073.2785082,2.178814600003534,613023,0.028809,0.072754,1.063477,3.198473,3.358779,-1.122137,1.066352,4.771878,24232,39746,15512,24232,1,28.777,30,load
1780597073.3085473,2.2088538000098197,613054,0.07373,0.074707,1.075684,2.496183,4.259542,0.862595,1.080793,5.011856,24233,39747,15512,24233,0,28.777,19,load
1780597073.339688,2.239994600007776,613085,0.061035,-0.133789,1.059814,0.954198,3.580153,-1.801527,1.069968,4.119889,24234,39749,15513,24234,0,28.777,3,load
1780597073.3701222,2.270428700008779,613116,0.059814,0.071289,1.045898,3.496183,3.320611,-2.282443,1.05003,5.334726,24235,39751,15514,24235,0,28.777,10,load
1780597073.4018152,2.3021216000051936,613147,0.042969,-0.091797,1.027588,1.89313,4.480916,-0.259542,1.032574,4.871336,24235,39752,15515,24235,1,28.777,33,load
1780597073.4336655,2.3339719000068726,613178,-0.036621,-0.143799,1.016113,2.923664,0.633588,-0.908397,1.026891,3.126408,24236,39753,15515,24236,0,28.777,13,load
1780597073.4632118,2.3635181999998167,613209,0.09082,0.104492,1.090576,2.358779,4.885496,-0.137405,1.099328,5.426858,24237,39755,15516,24237,0,28.777,7,load
1780597073.4942193,2.3945258000021568,613240,0.021729,-0.171875,1.052978,1.167939,2.374046,-1.022901,1.067135,2.836636,24238,39757,15517,24238,0,28.777,10,load
1780597073.525106,2.425412500000675,613271,0.081543,0.067871,1.0625,3.19084,3.603053,-0.274809,1.067784,4.820682,24238,39758,15518,24238,1,21.505,29,load
1780597073.5560758,2.4563822000054643,613302,0.014893,0.003906,1.043213,1.412214,2.603053,-0.068702,1.043326,2.962255,24239,39760,15519,24239,1,21.505,21,load
1780597073.5873253,2.48763190000318,613333,0.044189,0.018555,1.05249,1.725191,3.083969,-0.694656,1.053581,3.601347,24240,39761,15519,24240,0,21.505,10,load
1780597073.618412,2.5187184999958845,613364,0.0354,-0.177979,1.062012,0.633588,1.80916,0.763359,1.077404,2.063301,24241,39763,15520,24241,0,21.505,7,load
1780597073.6502826,2.55058920000738,613395,0.038818,-0.072754,1.035156,3.78626,2.290076,-1.496183,1.038436,4.671057,24242,39765,15521,24242,0,21.505,10,load
1780597073.680405,2.580711300004623,613426,0.073486,0.015625,1.081787,0.274809,4.442748,0.045802,1.084393,4.451474,24242,39766,15522,24242,1,21.505,30,load
1780597073.7113357,2.6116421000042465,613457,0.085205,-0.173584,1.043457,2.900763,4.122138,-0.312977,1.061223,5.050188,24243,39767,15522,24243,0,21.505,16,load
1780597073.7430978,2.6434042000037152,613488,0.035645,0.027588,1.054443,1.816794,4.862596,0.557252,1.055406,5.220738,24244,39769,15523,24244,0,21.505,3,load
1780597073.7728,2.6731064000050537,613519,0.086182,0.054443,1.079834,-0.198473,4.167938,-1.0,1.084635,4.290816,24245,39771,15524,24245,0,21.505,10,load
1780597073.8038077,2.704114100008155,613549,0.042969,-0.072021,1.06543,1.603053,2.229008,-1.312977,1.068725,3.04338,24246,39773,15525,24246,0,28.777,10,load
1780597073.835168,2.7354743000032613,613580,0.044434,0.101074,1.070557,0.389313,3.916031,-1.206107,1.076235,4.116012,24246,39774,15526,24246,1,28.777,29,load
1780597073.871053,2.7713595000095665,613616,-0.027588,0.059326,1.021973,3.458015,0.099237,-2.129771,1.024065,4.062468,24247,39776,15527,24247,1,28.777,27,load
1780597073.9026885,2.8029949000047054,613648,0.013672,-0.15918,1.021484,3.0,0.091603,-2.053435,1.033903,3.636618,24248,39777,15527,24248,0,28.777,10,load
1780597073.9335568,2.833863300009398,613678,0.05542,-0.115479,1.07666,-0.145038,3.816794,-0.083969,1.084253,3.820472,24249,39779,15528,24249,0,28.777,5,load
1780597073.9638782,2.864184500009287,613709,0.111328,0.044678,1.101074,0.870229,4.885496,-0.076336,1.10759,4.962982,24250,39781,15529,24250,0,28.777,10,load
1780597073.9938302,2.894136700007948,613740,0.007568,0.077637,1.017578,2.198473,3.519084,-0.732824,1.020564,4.213581,24251,39783,15530,24251,0,28.777,9,load
1780597074.0244865,2.924792999998317,613770,0.139648,-0.080566,1.065918,1.061069,4.061068,0.343511,1.078042,4.21143,24251,39784,15531,24251,1,28.777,29,load
1780597074.0556362,2.955942700005835,613800,0.064209,0.064941,1.066162,1.923664,4.122138,0.641221,1.070066,4.593872,24252,39785,15531,24252,0,23.904,13,load
1780597074.0855587,2.985865199996624,613831,0.085938,-0.162598,1.070801,1.961832,4.076336,-0.618321,1.086479,4.56592,24253,39787,15532,24253,0,23.904,4,load
1780597074.116524,3.016830399996252,613862,0.030762,0.042236,1.038086,1.854962,3.251908,-0.045802,1.0394,3.744047,24254,39789,15533,24254,0,23.904,10,load
1780597074.1470299,3.047336300005554,613893,0.02417,-0.15332,1.057129,1.29771,3.061069,-1.030534,1.068463,3.480832,24255,39791,15534,24255,0,23.904,10,load
1780597074.1794128,3.079719400004251,613924,0.016846,0.053467,1.033936,1.480916,3.938931,-0.290076,1.035454,4.218108,24255,39792,15535,24255,1,23.904,30,load
1780597074.2090101,3.1093167000071844,613955,-0.007813,0.023682,1.069336,2.679389,2.48855,-3.122137,1.069627,4.8083,24256,39793,15535,24256,0,23.904,11,load
1780597074.2391877,3.1394942000042647,613985,0.081543,0.029785,1.088379,-0.618321,3.244275,-0.763359,1.091836,3.389743,24257,39795,15536,24257,0,23.904,9,load
1780597074.271283,3.171589400008088,614016,0.051514,0.068848,1.046387,2.732824,5.053436,-1.068702,1.049914,5.8436,24258,39797,15537,24258,0,23.904,10,load
1780597074.3003027,3.20060920000833,614047,0.064209,-0.162354,1.068604,0.541985,3.59542,-1.381679,1.082772,3.889708,24258,39798,15538,24258,1,23.904,29,load
1780597074.3312323,3.2315386999980547,614077,0.08252,-0.155762,1.063721,4.0,2.687023,-2.076336,1.078227,5.247024,24259,39799,15538,24259,0,25.271,16,load
1780597074.3769176,3.277224000004935,614107,0.032959,0.132568,1.06958,1.618321,3.473282,0.656489,1.078268,3.887625,24260,39801,15539,24260,0,25.271,4,load
1780597074.3927913,3.293097800007672,614138,0.046143,-0.050781,1.076416,-0.770992,1.694656,-1.48855,1.0786,2.383709,24261,39803,15540,24261,0,25.271,10,load
1780597074.423461,3.3237673999974504,614169,0.022217,-0.134766,1.054443,1.839695,3.206107,-1.015267,1.063253,3.833323,24262,39805,15541,24262,0,25.271,10,load
1780597074.4553468,3.355653300008271,614201,0.053955,0.085205,1.064941,1.70229,2.625954,-1.244275,1.069706,3.367736,24262,39806,15542,24262,1,25.271,31,load
1780597074.4853537,3.385660200001439,614231,0.022705,0.099365,1.061768,3.480916,2.091603,-1.251908,1.066649,4.249571,24263,39807,15542,24263,0,25.271,11,load
1780597074.5165892,3.416895600006683,614262,0.053467,0.04541,1.057861,2.465649,3.022901,0.160305,1.060184,3.904235,24264,39809,15543,24264,0,25.271,10,load
1780597074.5480497,3.4483562000095844,614293,0.048828,-0.077148,1.045166,1.793893,3.778626,1.068702,1.049146,4.317198,24265,39811,15544,24265,0,25.271,11,load
1780597074.5795186,3.4798251000029268,614324,0.023682,-0.017822,1.052246,3.328244,2.053435,-1.412214,1.052663,4.157902,24265,39812,15545,24265,1,25.271,32,load
1780597074.6119254,3.512231900007464,614356,0.034424,-0.043945,1.055664,2.763359,2.458015,-1.625954,1.057139,4.040015,24266,39813,15545,24266,0,25.09,10,load
1780597074.6418514,3.542157900010352,614387,0.053955,-0.11792,1.078369,-0.076336,3.763359,-0.435114,1.086138,3.789198,24267,39815,15546,24267,0,25.09,11,load
1780597074.6737149,3.574021399996127,614418,0.086182,0.021729,1.080811,0.496183,3.587786,-0.59542,1.084459,3.670549,24267,39816,15547,24267,1,25.09,31,load
1780597074.7039418,3.6042483000055654,614449,0.092285,-0.104492,1.066162,-1.068702,4.465648,0.656489,1.075238,4.638439,24268,39817,15547,24268,0,25.09,20,load
1780597074.7355201,3.635826600002474,614480,0.013428,-0.172119,1.038086,1.160305,0.687023,-1.870229,1.052344,2.30566,24269,39819,15548,24269,0,25.09,1,load
1780597074.7645087,3.6648151999979746,614511,0.045166,-0.008789,1.03418,2.412214,3.480916,-0.541985,1.035203,4.269578,24270,39821,15549,24270,0,25.09,10,load
1780597074.7961478,3.6964542000059737,614541,0.020264,0.068604,1.027832,2.282443,2.793893,-1.732824,1.030318,4.002258,24271,39823,15550,24271,0,25.09,10,load
1780597074.8260183,3.726324700008263,614572,0.035156,-0.000244,1.068604,-0.824427,2.870229,-0.099237,1.069182,2.987933,24271,39824,15551,24271,1,25.09,29,load
1780597074.858477,3.7587836000020616,614603,0.03833,0.097168,1.058106,3.061069,1.732824,-2.274809,1.063249,4.188983,24272,39825,15551,24272,0,25.09,13,load
1780597074.8899217,3.7902281999995466,614635,0.061279,-0.149902,1.053711,1.526718,3.183206,-0.687023,1.066083,3.596619,24273,39827,15552,24273,0,25.09,5,load
1780597074.921354,3.8216604000044754,614666,0.030029,0.078369,1.05542,2.793893,3.480916,-0.450382,1.058752,4.486141,24274,39829,15553,24274,0,25.09,10,load
1780597074.9525886,3.852895100004389,614697,0.05127,0.028809,1.044434,2.664122,3.763359,-0.083969,1.046088,4.611666,24274,39830,15554,24274,1,25.09,31,load
1780597074.9822166,3.8825230000074953,614728,0.068848,-0.132324,1.048584,1.580153,4.10687,-0.10687,1.05914,4.401668,24275,39831,15554,24275,0,25.09,17,load
1780597075.0121381,3.912444500005222,614758,0.046631,0.031738,1.046631,2.59542,3.679389,-0.793893,1.04815,4.57213,24276,39833,15555,24276,0,25.09,5,load
1780597075.0423512,3.9426576999976533,614788,0.060791,0.071289,1.053223,1.732824,2.801527,-0.526718,1.057382,3.335965,24277,39835,15556,24277,0,25.09,11,load
1780597075.0748012,3.975107600010233,614819,0.013428,-0.005371,1.057861,2.229008,2.549618,-0.259542,1.05796,3.396526,24277,39836,15557,24277,1,25.09,33,load
1780597075.1047347,4.00504109999747,614850,0.041992,0.081055,1.057373,1.618321,3.274809,-0.931298,1.061306,3.769702,24278,39837,15557,24278,0,25.09,10,load
1780597075.1359704,4.036276800004998,614881,0.015137,-0.140625,1.033203,1.679389,3.343511,-1.282443,1.042839,3.955259,24279,39839,15558,24279,0,25.09,10,load
1780597075.1669638,4.067270300001837,614912,0.057373,0.058105,1.057129,2.305344,3.282443,-0.709924,1.060278,4.073455,24279,39840,15559,24279,1,21.661,34,load
1780597075.1974106,4.097716999996919,614943,0.020264,-0.113525,1.060791,0.954198,2.641221,-1.21374,1.067041,3.059364,24280,39841,15559,24280,0,21.661,14,load
1780597075.2295861,4.129892500001006,614974,0.041748,0.095947,1.05835,2.160305,2.977099,-0.458015,1.06351,3.706726,24281,39843,15560,24281,0,21.661,9,load
1780597075.260138,4.160444399996777,615005,0.006592,-0.117188,1.036621,1.374046,1.419847,-0.740458,1.043245,2.110035,24282,39845,15561,24282,0,21.661,11,load
1780597075.2910895,4.1913959000085015,615036,0.040527,-0.118652,1.056152,1.282443,1.877863,-2.221374,1.063569,3.17892,24282,39845,15561,24282,0,21.661,11,load
1780597075.322122,4.2224285999982385,615067,0.03418,0.029785,1.065918,0.89313,2.992366,-0.603053,1.066882,3.180505,24283,39847,15562,24283,0,21.661,1,load
1780597075.353037,4.25334360000852,615098,0.082275,0.076904,1.073242,1.80916,4.465648,-0.19084,1.079135,4.821981,24284,39849,15563,24284,0,21.661,10,load
1780597075.3857198,4.2860263000038685,615129,0.037598,0.060791,1.044189,3.51145,3.251908,-0.221374,1.046633,4.791054,24284,39850,15564,24284,1,21.661,32,load
1780597075.4147584,4.315064800000982,615160,0.030762,-0.126465,1.062256,0.961832,2.229008,-0.473282,1.0702,2.473377,24285,39851,15564,24285,0,21.661,17,load
1780597075.4455473,4.3458537999977125,615191,0.04834,0.075195,1.069336,1.984733,3.160305,0.51145,1.073066,3.766733,24286,39853,15565,24286,0,25.09,6,load
1780597075.4767601,4.37706650000473,615222,0.037598,-0.114502,1.033447,2.541985,4.29771,-1.770992,1.040451,5.297962,24287,39855,15566,24287,0,25.09,11,load
1780597075.507704,4.40801040000224,615253,0.05957,0.021729,1.076172,-0.603053,2.343511,-0.78626,1.078038,2.54439,24287,39856,15567,24287,1,25.09,32,load
1780597075.5383513,4.4386577999976,615284,0.016846,-0.142334,1.036377,1.664122,2.320611,-1.427481,1.046241,3.192528,24288,39857,15567,24288,0,25.09,13,load
1780597075.5698042,4.470110599999316,615315,0.071533,-0.124268,1.096924,-0.450382,2.870229,0.236641,1.106256,2.914971,24289,39859,15568,24289,0,25.09,6,load
1780597075.5998387,4.500145099998917,615346,-0.005615,-0.021729,1.050049,1.374046,0.015267,-1.160305,1.050289,1.798484,24290,39861,15569,24290,0,25.09,9,load
1780597075.6320474,4.532353800008423,615377,0.071777,0.025879,1.040772,1.473282,2.29771,-0.19084,1.043565,2.736138,24292,39865,15571,24292,0,25.09,0,load
1780597075.6637619,4.564068200008478,615408,0.053467,-0.016602,1.058594,0.396947,2.778626,0.427481,1.060073,2.839202,24293,39868,15573,24293,1,25.09,18,load
1780597075.6953797,4.5956861000013305,615440,0.072998,-0.037842,1.054688,2.206107,4.27481,-0.030534,1.057888,4.810596,24295,39871,15574,24295,0,25.09,8,load
1780597075.7267404,4.627046900001005,615471,0.025391,-0.021484,1.050781,1.015267,2.374046,-2.045802,1.051308,3.294262,24297,39875,15576,24297,0,39.286,1,load
1780597075.7582414,4.658547900005942,615503,0.05542,-0.039795,1.058106,1.312977,3.19084,-1.549618,1.060303,3.782418,24298,39879,15579,24298,1,39.286,1,load
1780597075.790602,4.690908400007174,615535,0.026367,-0.010742,1.055908,1.419847,2.389313,-1.854962,1.056292,3.341507,24302,39884,15580,24302,0,39.286,7,load
1780597075.8200943,4.7204006999963894,615566,0.039795,-0.022217,1.063965,1.015267,3.038168,-0.732824,1.064941,3.286071,24303,39886,15581,24303,0,39.286,7,load
1780597075.8510969,4.751403400005074,615597,0.02832,-0.043213,1.04248,2.053435,3.129771,-1.251908,1.04376,3.947067,24304,39889,15583,24304,1,39.286,15,load
1780597075.8803082,4.780614500006777,615627,0.034912,0.0,1.049316,0.916031,3.519084,-0.854962,1.049897,3.735509,24306,39892,15584,24306,0,39.286,6,load
1780597075.9125857,4.812892200003262,615657,0.039551,-0.024902,1.059082,1.526718,2.717557,-0.572519,1.060113,3.16919,24308,39896,15586,24308,0,39.286,0,load
1780597075.9427872,4.843093700008467,615688,0.04248,-0.032471,1.047363,2.366412,3.793893,-0.717557,1.048727,4.528622,24310,39899,15587,24310,1,39.286,15,load
1780597075.9738677,4.874174199998379,615719,0.029053,-0.014893,1.052246,1.236641,3.343511,-0.709924,1.052752,3.634879,24312,39902,15588,24312,0,39.286,6,load
1780597076.005798,4.906104499998037,615750,0.065674,-0.02417,1.048096,1.763359,3.236641,-0.656489,1.050429,3.743829,24313,39905,15590,24313,1,57.348,16,load
1780597076.035762,4.936068499999237,615781,0.032715,-0.018066,1.05835,1.854962,2.763359,-1.145038,1.059009,3.51968,24315,39908,15591,24315,0,57.348,6,load
1780597076.0661852,4.966491600003792,615812,0.04541,-0.02832,1.058106,1.748092,2.274809,-0.793893,1.059458,2.976718,24316,39910,15592,24316,0,57.348,7,load
1780597076.0982606,4.998567100003129,615843,0.033691,-0.023193,1.042236,1.977099,3.694656,-1.167939,1.043039,4.350114,24317,39913,15594,24317,1,57.348,16,load
1780597076.1287189,5.029025399999227,615874,0.071533,-0.041016,1.05542,0.694656,3.21374,-0.816794,1.058636,3.387894,24322,39920,15596,24322,0,57.348,1,load
1780597076.1599984,5.060304800004815,615905,0.036133,-0.043945,1.054199,1.687023,3.160305,-0.908397,1.055733,3.695776,24324,39924,15598,24324,0,57.348,0,load
1780597076.190975,5.091281400003936,615936,0.029541,-0.022949,1.049805,1.633588,2.877863,-0.78626,1.050471,3.40131,24327,39928,15599,24327,0,57.348,6,load
1780597076.2221406,5.122446900000796,615967,0.039551,-0.031494,1.058838,1.175572,3.183206,-0.374046,1.060044,3.413895,24328,39930,15600,24328,0,57.348,6,load
1780597076.25293,5.153236300000572,615998,0.056152,-0.048828,1.046387,1.931298,2.496183,-1.366412,1.049029,3.439175,24329,39933,15602,24329,1,57.348,16,load
1780597076.2845986,5.184905100002652,616030,0.046387,-0.033203,1.044189,1.137405,3.015267,-0.59542,1.045746,3.277202,24332,39938,15604,24332,0,67.857,1,load
1780597076.3160882,5.216394600007334,616061,0.039307,-0.014893,1.046875,1.694656,2.816794,-0.801527,1.047718,3.383583,24334,39942,15606,24334,0,67.857,0,load
1780597076.3472507,5.247557199996663,616092,0.046143,-0.0271,1.05249,1.755725,2.870229,-0.778626,1.05385,3.453555,24339,39948,15607,24339,0,67.857,6,load
1780597076.3780894,5.278395900008036,616123,0.037354,-0.027344,1.062012,1.625954,3.045802,-0.763359,1.06302,3.536008,24342,39952,15608,24342,0,67.857,6,load
1780597076.4086282,5.308934800006682,616154,0.023926,-0.027832,1.046631,1.847328,2.793893,-0.427481,1.047274,3.376566,24343,39955,15610,24343,1,67.857,16,load
1780597076.439919,5.34022549999645,616185,0.04834,-0.013428,1.05835,1.587786,3.412214,-0.648855,1.059538,3.819068,24346,39960,15612,24346,0,67.857,0,load
1780597076.4731452,5.37345159999677,616216,0.050293,-0.022949,1.046875,1.519084,3.022901,-0.70229,1.048334,3.455251,24348,39964,15614,24348,0,67.857,0,load
1780597076.5020769,5.402383300010115,616247,0.044922,-0.037842,1.049561,1.78626,3.206107,-0.435114,1.051203,3.695831,24352,39970,15616,24352,0,67.857,5,load
1780597076.5327911,5.433097600005567,616278,0.033203,-0.00293,1.058106,1.259542,3.51145,-0.442748,1.05863,3.756694,24356,39976,15618,24356,0,67.857,0,load
1780597076.5635803,5.463886700003059,616309,0.040527,-0.031006,1.048584,1.656489,2.816794,-0.610687,1.049825,3.324338,24358,39981,15621,24358,1,93.19,13,load
1780597076.5943422,5.494648599997163,616340,0.046875,-0.021973,1.0625,1.839695,2.656489,-0.587786,1.06376,3.284342,24363,39988,15623,24363,0,93.19,0,load
1780597076.625291,5.5255975000036415,616371,0.030762,-0.03125,1.057861,1.732824,2.381679,-0.59542,1.05877,3.00493,24365,39992,15625,24365,0,93.19,0,load
1780597076.6556492,5.555955600008019,616402,0.037354,-0.009766,1.049072,2.740458,3.381679,-0.832061,1.049782,4.4315,24369,39998,15627,24369,0,93.19,6,load
1780597076.6866078,5.586914200001047,616432,0.058105,-0.032471,1.064697,0.343511,2.885496,-0.59542,1.066776,2.966246,24373,40004,15629,24373,0,93.19,0,load
1780597076.7169628,5.617269199996372,616463,0.047607,-0.038574,1.059326,1.633588,2.877863,-0.732824,1.061097,3.389356,24375,40008,15631,24375,0,93.19,0,load
1780597076.7488856,5.649191999997129,616494,0.052246,-0.04834,1.054688,2.022901,2.129771,-1.045802,1.057087,3.117972,24379,40014,15633,24379,0,93.19,0,load
1780597076.7805161,5.680822499998612,616526,0.045654,-0.026611,1.062256,1.038168,2.755725,-0.877863,1.063569,3.072858,24381,40018,15635,24381,0,93.19,0,load
1780597076.8120139,5.712320400009048,616557,0.035889,-0.038086,1.05249,2.832061,3.030534,-0.656489,1.05379,4.199486,24383,40023,15638,24383,1,93.19,13,load
1780597076.8437414,5.7440478000062285,616588,0.050537,-0.025635,1.052246,0.687023,3.206107,-0.21374,1.053771,3.285849,24388,40030,15640,24388,0,107.527,0,load
1780597076.8751163,5.775422699996852,616619,0.039551,-0.056152,1.059082,1.671756,2.793893,-0.679389,1.061307,3.325985,24390,40034,15642,24390,0,107.527,1,load
1780597076.9043977,5.804704100009985,616650,0.032471,-0.048828,1.055908,2.083969,3.061069,-0.908397,1.057535,3.812906,24395,40040,15643,24395,0,107.527,5,load
1780597076.9362555,5.836561899996013,616681,0.062012,-0.007813,1.061523,0.832061,3.740458,-1.068702,1.063362,3.978125,24399,40046,15645,24399,0,107.527,1,load
1780597076.9673483,5.867654900008347,616712,0.066162,-0.072266,1.05957,2.282443,2.78626,-0.580153,1.064091,3.6482,24401,40051,15648,24401,1,107.527,13,load
1780597076.9976416,5.897948099998757,616743,0.049561,0.008545,1.057617,1.396947,2.648855,-0.473282,1.058812,3.031813,24406,40058,15650,24406,0,107.527,1,load
1780597077.0281043,5.928410699998494,616774,0.050781,-0.051514,1.048828,1.389313,2.603053,-1.0,1.05132,3.115458,24408,40062,15652,24408,0,107.527,0,load
1780597077.060218,5.960524599999189,616805,0.043701,-0.040283,1.058106,2.549618,3.221374,-0.78626,1.059773,4.182823,24412,40068,15654,24412,0,107.527,5,load
1780597077.092242,5.992548399997759,616836,0.057373,0.020264,1.061523,0.572519,3.687023,-0.78626,1.063266,3.813151,24416,40074,15656,24416,0,107.527,0,load
1780597077.1224318,6.022738100000424,616867,0.04126,-0.05542,1.057373,2.526718,1.862595,-0.709924,1.059628,3.218316,24418,40079,15659,24418,1,107.527,14,load
1780597077.1535869,6.0538934000069275,616898,0.038574,0.001709,1.056641,1.541985,3.045802,-0.343511,1.057346,3.431126,24423,40086,15661,24423,0,107.527,0,load
1780597077.1848748,6.085181200003717,616929,0.036377,-0.04834,1.053711,0.832061,2.717557,-1.053435,1.055446,3.031034,24425,40090,15663,24425,0,107.527,0,load
1780597077.216516,6.116822399999364,616961,0.052246,-0.012207,1.064697,2.19084,3.351145,-0.267176,1.066048,4.012647,24429,40096,15665,24429,0,107.527,6,load
1780597077.2475631,6.147869599997648,616993,0.049805,0.003174,1.058106,0.618321,3.679389,-0.732824,1.059282,3.80227,24433,40102,15667,24433,0,107.527,0,load
1780597077.277834,6.178140300005907,617023,0.037598,-0.060547,1.041504,2.587786,2.251908,-0.687023,1.04394,3.498532,24435,40107,15670,24435,1,107.527,14,load
1780597077.309706,6.210012399998959,617055,0.035889,0.015381,1.05249,1.59542,2.473282,-0.618321,1.053214,3.007459,24439,40112,15671,24439,0,107.527,6,load
1780597077.3411427,6.241449200009811,617086,0.031982,-0.061768,1.043701,1.725191,2.259542,-0.89313,1.046016,2.979848,24441,40116,15673,24441,0,107.527,0,load
1780597077.3721266,6.27243310000631,617117,0.061523,0.003174,1.062744,2.793893,3.374046,-0.366412,1.064528,4.39594,24445,40122,15675,24445,0,108.0,6,load
1780597077.4131398,6.313446200001636,617148,0.069824,-0.021484,1.061279,0.931298,3.870229,-0.564886,1.063791,4.020582,24449,40128,15677,24449,0,108.0,0,load
1780597077.4333382,6.333644700003788,617179,0.027588,-0.045654,1.044922,2.40458,2.290076,-0.587786,1.046282,3.372232,24451,40133,15680,24451,1,108.0,13,load
1780597077.4652257,6.365532199997688,617210,0.0271,0.01001,1.053711,1.59542,2.351145,-0.641221,1.054107,2.912802,24456,40140,15682,24456,0,108.0,1,load
1780597077.496424,6.39673049999692,617241,0.024414,-0.048584,1.048828,1.030534,2.641221,-1.0,1.050237,3.006335,24458,40144,15684,24458,0,108.0,0,load
1780597077.525639,6.425945499999216,617271,0.060791,-0.012451,1.049561,3.160305,3.175573,-0.305344,1.051393,4.490548,24461,40149,15686,24461,1,108.0,13,load
1780597077.5579247,6.458231199998409,617302,0.056152,-0.032959,1.057129,0.320611,2.122137,-0.839695,1.059132,2.304636,24466,40156,15688,24466,0,108.0,0,load
1780597077.587911,6.488217300007818,617333,0.0354,-0.040283,1.059814,1.946565,2.603053,-0.778626,1.06117,3.342344,24468,40160,15690,24468,0,108.0,1,load
1780597077.619157,6.5194636000087485,617364,0.033447,-0.040771,1.053711,2.282443,2.992366,-0.870229,1.05503,3.862784,24473,40166,15691,24473,0,108.0,6,load
1780597077.6507556,6.551062099999399,617395,0.051758,-0.014404,1.067627,0.709924,3.541985,-0.541985,1.068978,3.652861,24475,40170,15693,24475,0,107.914,1,load
1780597077.6817484,6.58205490000546,617426,0.063477,-0.066406,1.059326,2.10687,2.854962,-0.480916,1.063302,3.580641,24477,40175,15696,24477,1,107.914,13,load
1780597077.7123902,6.612696700001834,617457,0.049561,0.015625,1.052002,0.801527,3.068702,-0.679389,1.053284,3.243601,24482,40182,15698,24482,0,107.914,1,load
1780597077.741872,6.64217859999917,617488,0.048096,-0.05957,1.056396,1.870229,2.870229,-0.748092,1.059167,3.50651,24484,40186,15700,24484,0,107.914,1,load
1780597077.774195,6.674501300003612,617519,0.043213,-0.036865,1.059326,2.435115,2.78626,-0.78626,1.060848,3.783018,24488,40192,15702,24488,0,107.914,5,load
1780597077.8038247,6.704131100006634,617550,0.063232,0.006348,1.069824,0.412214,3.587786,-0.732824,1.07171,3.684991,24492,40198,15704,24492,0,107.914,1,load
1780597077.8340242,6.734330699997372,617580,0.051758,-0.03125,1.049805,2.427481,2.396947,-0.389313,1.051544,3.433596,24494,40203,15707,24494,1,107.914,14,load
1780597077.8654292,6.765735699998913,617610,0.045898,-0.027832,1.054932,1.824428,2.557252,-0.847328,1.056296,3.253619,24499,40210,15709,24499,0,107.914,1,load
1780597077.898227,6.798533499997575,617642,0.012207,-0.047363,1.05127,0.839695,2.687023,-1.274809,1.052407,3.090359,24500,40212,15710,24500,0,107.914,6,load
1780597077.927837,6.828143300008378,617673,0.041016,-0.001953,1.049072,3.122137,3.78626,-0.503817,1.049876,4.933288,24503,40217,15712,24503,1,100.719,14,load
1780597077.9588897,6.859196100005647,617704,0.043457,-0.016113,1.053467,-0.045802,3.572519,-1.045802,1.054486,3.722726,24508,40224,15714,24508,0,100.719,0,load
1780597077.9904778,6.890784200004418,617735,0.05542,-0.042725,1.054688,2.679389,2.923664,-0.931298,1.057006,4.073604,24510,40229,15717,24510,1,100.719,14,load
1780597078.0212755,6.921581900009187,617766,0.032227,-0.052979,1.049561,1.541985,2.89313,-0.549618,1.051391,3.324154,24515,40236,15719,24515,0,100.719,0,load
1780597078.0517988,6.952105400006985,617797,0.037354,-0.013672,1.059082,0.923664,3.366412,-0.877863,1.059829,3.599518,24517,40240,15721,24517,0,100.719,0,load
1780597078.0838616,6.984168099996168,617828,0.040527,-0.07251,1.039795,2.51145,2.717557,-0.671756,1.043108,3.760818,24519,40245,15724,24519,1,100.719,13,load
1780597078.114101,7.014407399998163,617859,0.056885,-0.026123,1.047852,0.244275,2.877863,-0.931298,1.04972,3.034646,24524,40252,15726,24524,0,100.719,0,load
1780597078.1460242,7.046330600001966,617890,0.033203,-0.026855,1.061523,1.78626,2.442748,-1.045802,1.062382,3.201787,24526,40256,15728,24526,0,100.719,0,load
1780597078.176238,7.076544499999727,617921,0.0354,-0.034912,1.051025,2.122137,3.389313,-0.526718,1.052201,4.033404,24531,40262,15729,24531,0,100.719,6,load
1780597078.2076557,7.107962199996109,617952,0.046875,0.027588,1.061279,0.78626,3.946565,-0.832061,1.062672,4.109246,24534,40266,15730,24534,0,111.111,5,load
1780597078.2383533,7.138659700009157,617983,0.044922,-0.050049,1.055664,2.10687,2.267176,-0.465649,1.057804,3.129827,24536,40271,15733,24536,1,111.111,13,load
1780597078.2689254,7.169232000000193,618015,0.036377,0.005127,1.055664,0.717557,2.229008,-0.755725,1.056303,2.460586,24541,40278,15735,24541,0,111.111,0,load
1780597078.3010404,7.201346800007741,618046,0.038574,-0.043701,1.051025,1.572519,2.465649,-1.274809,1.05264,3.1902,24543,40282,15737,24543,0,111.111,1,load
1780597078.3324034,7.232709900010377,618077,0.061035,-0.019775,1.054688,2.381679,2.89313,-0.419847,1.056637,3.770792,24546,40288,15740,24546,0,111.111,5,load
1780597078.3782318,7.278538200000185,618108,0.044434,0.008789,1.067383,0.541985,3.374046,-0.679389,1.068343,3.484179,24550,40294,15742,24550,0,111.111,1,load
1780597078.3941946,7.294501099997433,618139,0.016357,-0.038574,1.046143,2.229008,3.030534,-0.442748,1.046981,3.78796,24552,40299,15745,24552,1,111.111,14,load
1780597078.4256124,7.325918900009128,618170,0.04541,0.006592,1.053223,1.465649,2.748092,-0.48855,1.054222,3.152589,24557,40306,15747,24557,0,111.111,1,load
1780597078.4564798,7.356786200005445,618201,0.040527,-0.058105,1.061768,1.290076,2.427481,-0.80916,1.064128,2.865606,24559,40310,15749,24559,0,111.111,0,load
1780597078.486937,7.387243600009242,618232,0.048828,-0.001221,1.047852,3.152672,4.068702,-0.030534,1.048989,5.147292,24563,40316,15751,24563,0,103.571,5,load
1780597078.5186975,7.419004000010318,618263,0.035889,-0.025391,1.053955,0.412214,3.51145,-1.145038,1.054871,3.716358,24567,40322,15753,24567,0,103.571,0,load
1780597078.5499215,7.450228000001516,618294,0.050781,-0.036133,1.041992,2.305344,2.709924,-0.656489,1.043854,3.61791,24569,40327,15756,24569,1,103.571,14,load
1780597078.5795135,7.47982010000851,618325,0.046631,0.000244,1.054932,1.603053,2.244275,-0.793893,1.055962,2.869985,24573,40332,15757,24573,0,103.571,6,load
1780597078.6111856,7.5114920000050915,618356,0.032471,-0.051025,1.059082,0.900763,2.526718,-1.229008,1.060808,2.950616,24575,40336,15759,24575,0,103.571,0,load
1780597078.6424515,7.542757900009747,618387,0.045898,-0.019043,1.054932,2.862595,3.015267,-0.526718,1.056101,4.19091,24578,40341,15761,24578,1,103.571,13,load
1780597078.673948,7.574254599996493,618419,0.049805,-0.006104,1.060547,0.091603,3.687023,-0.694656,1.061733,3.753009,24583,40348,15763,24583,0,103.571,0,load
1780597078.7047424,7.605048800003715,618450,0.062012,-0.047119,1.052246,2.48855,3.015267,-0.603053,1.055124,3.955804,24585,40353,15766,24585,1,103.571,13,load
1780597078.736522,7.63682840000547,618481,0.024902,-0.022705,1.04834,1.778626,2.450382,-0.679389,1.048881,3.103136,24590,40360,15768,24590,0,103.571,1,load
1780597078.7675529,7.667859299996053,618512,0.040527,-0.030518,1.054199,0.51145,2.465649,-0.992366,1.055419,2.706621,24592,40364,15770,24592,0,103.571,1,load
1780597078.7987921,7.699098600001889,618543,0.067871,-0.049561,1.052002,2.755725,3.206107,-0.916031,1.055353,4.325766,24595,40369,15772,24595,1,103.571,13,load
1780597078.8293378,7.729644200007897,618574,0.038086,-0.022461,1.059326,0.51145,2.267176,-0.633588,1.060248,2.408962,24600,40376,15774,24600,0,103.571,1,load
1780597078.8601947,7.760501199998544,618605,0.024902,-0.036377,1.054443,2.007634,2.664122,-1.030534,1.055364,3.491438,24602,40380,15776,24602,0,103.571,0,load
1780597078.8918543,7.79216080000333,618636,0.040039,-0.039307,1.052734,1.977099,2.709924,-0.641221,1.054229,3.415226,24607,40386,15777,24607,0,103.571,5,load
1780597078.9226139,7.822920300008263,618667,0.060547,-0.000488,1.06665,0.900763,3.748092,-0.862595,1.068368,3.950144,24611,40392,15779,24611,0,103.571,0,load
1780597078.9541488,7.854455200009397,618698,0.046387,-0.070801,1.042969,2.137405,2.633588,-0.412214,1.046398,3.416753,24613,40397,15782,24613,1,103.571,14,load
1780597078.983826,7.884132300008787,618729,0.020508,0.015625,1.040772,1.267176,2.48855,-0.908397,1.041091,2.93663,24616,40402,15784,24616,0,103.571,0,load
1780597079.0155041,7.915810699996655,618760,0.024658,-0.063232,1.043701,1.549618,2.465649,-1.022901,1.045906,3.086595,24618,40406,15786,24618,0,103.571,0,load
1780597079.046323,7.94662960000278,618791,0.052734,-0.003906,1.050049,2.755725,3.396947,-0.740458,1.051379,4.436389,24622,40412,15788,24622,0,107.527,6,load
1780597079.077746,7.978052400008892,618822,0.058594,0.020752,1.061768,0.442748,3.305344,-0.770992,1.063586,3.422828,24626,40418,15790,24626,0,107.527,0,load
1780597079.1095698,8.009876199997962,618854,0.031006,-0.043213,1.04541,1.977099,3.19084,-0.748092,1.046762,3.827534,24628,40423,15793,24628,1,107.527,13,load
1780597079.140563,8.040869400007068,618885,0.047607,0.002197,1.051514,1.099237,2.755725,-0.847328,1.052593,3.0855,24633,40430,15795,24633,0,107.527,0,load
1780597079.17187,8.072176400004537,618916,0.024658,-0.045898,1.061035,1.244275,2.427481,-1.267176,1.062314,3.00776,24635,40434,15797,24635,0,107.527,1,load
1780597079.201433,8.101739400008228,618947,0.047852,-0.008545,1.056885,2.618321,3.534351,-0.221374,1.058002,4.404117,24639,40440,15799,24639,0,107.527,6,load
1780597079.2323697,8.132676100009121,618978,0.045898,-0.00708,1.05957,0.778626,3.167939,-0.977099,1.060588,3.40541,24643,40446,15801,24643,0,107.527,0,load
1780597079.2650564,8.165362800005823,619009,0.056641,-0.036377,1.056152,2.396947,2.091603,-0.419847,1.058295,3.208805,24645,40451,15804,24645,1,107.527,14,load
1780597079.2950885,8.195395100003225,619040,0.039551,0.008057,1.053223,1.709924,2.572519,-0.435114,1.053996,3.119458,24651,40458,15805,24651,0,107.527,1,load
1780597079.3254921,8.225798500003293,619071,0.02124,-0.050049,1.056641,0.923664,2.51145,-1.167939,1.058038,2.919695,24653,40462,15807,24653,0,110.714,0,load
1780597079.357365,8.257671400002437,619102,0.040283,-0.007568,1.045654,2.961832,3.351145,-0.625954,1.046457,4.516021,24656,40467,15809,24656,1,110.714,14,load
1780597079.3880863,8.288392800008296,619133,0.045654,-0.021484,1.047119,0.389313,3.167939,-1.221374,1.048334,3.417478,24661,40474,15811,24661,0,110.714,0,load
1780597079.4194293,8.319735700002639,619164,0.06543,-0.039307,1.05542,2.412214,2.89313,-0.648855,1.058176,3.822302,24663,40479,15814,24663,1,110.714,14,load
1780597079.4566932,8.356999700001325,619202,0.0354,-0.007568,1.055908,1.633588,2.320611,-0.526718,1.056529,2.886395,24668,40486,15816,24668,0,110.714,0,load
1780597079.4882298,8.38853620000009,619233,0.0271,-0.037109,1.05957,2.335878,2.435115,-0.587786,1.060566,3.425142,24670,40491,15819,24670,1,110.714,14,load
1780597079.5195174,8.419823800009908,619264,0.027832,0.013184,1.046875,1.564886,2.778626,-0.717557,1.047328,3.268718,24675,40498,15821,24675,0,110.714,1,load
1780597079.5502908,8.45059740000579,619295,0.048584,-0.050049,1.046387,1.099237,2.51145,-0.847328,1.048709,2.869437,24676,40500,15822,24676,0,110.714,6,load
1780597079.5811498,8.481456200010143,619326,0.055664,0.002441,1.055908,3.274809,3.587786,-0.221374,1.057377,4.862673,24680,40506,15824,24680,0,105.882,6,load
1780597079.6127176,8.513024200001382,619357,0.042725,-0.010498,1.060303,0.633588,2.908397,-0.740458,1.061215,3.067325,24683,40510,15825,24683,0,105.882,6,load
1780597079.6432908,8.54359729999851,619388,0.058105,-0.048584,1.0625,2.854962,2.908397,-0.496183,1.065196,4.105579,24685,40515,15828,24685,1,105.882,13,load
1780597079.6752112,8.575517600009334,619419,0.044189,-0.012207,1.049072,1.587786,2.10687,-0.587786,1.050073,2.702862,24690,40522,15830,24690,0,105.882,0,load
1780597079.7061956,8.606502000009641,619451,0.018555,-0.051514,1.045166,0.923664,2.473282,-0.870229,1.046599,2.779852,24692,40526,15832,24692,0,105.882,0,load
1780597079.7375793,8.637885700009065,619482,0.041504,-0.012939,1.048828,3.068702,3.274809,-0.320611,1.049729,4.499344,24696,40532,15834,24696,0,105.882,6,load
1780597079.7690883,8.669394700002158,619513,0.060059,-0.023193,1.062988,0.21374,3.175573,-0.969466,1.064936,3.327132,24700,40538,15836,24700,0,105.882,0,load
1780597079.7995105,8.699817000000621,619544,0.065674,-0.032959,1.057373,2.78626,2.839695,-0.557252,1.059923,4.017168,24702,40543,15839,24702,1,105.882,13,load
1780597079.830239,8.730545600003097,619575,0.030762,-0.038574,1.040039,1.709924,2.251908,-0.603053,1.041209,2.891125,24707,40550,15841,24707,0,105.882,0,load
1780597079.8621926,8.762499000004027,619607,0.023438,-0.057373,1.053955,1.351145,2.335878,-1.061069,1.055776,2.899618,24709,40554,15843,24709,0,103.203,1,load
1780597079.8927677,8.793074100001832,619638,0.036621,0.004395,1.053711,3.053435,3.526718,-0.465649,1.054356,4.688074,24712,40559,15845,24712,1,103.203,14,load
1780597079.9237554,8.824061799998162,619669,0.033203,-0.02002,1.0625,0.221374,3.091603,-0.709924,1.063207,3.179781,24716,40564,15846,24716,0,103.203,5,load
1780597079.9551,8.855406500006211,619700,0.044678,-0.044678,1.067139,2.351145,2.847328,-0.625954,1.069008,3.745261,24718,40569,15849,24718,1,103.203,14,load
1780597079.987008,8.887314499996137,619732,0.028076,0.005859,1.043213,1.358779,2.343511,-0.259542,1.043607,2.721339,24723,40576,15851,24723,0,103.203,0,load
1780597080.0183406,8.918647099999362,619763,0.031982,-0.055176,1.054932,0.740458,3.038168,-0.78626,1.056858,3.22443,24725,40580,15853,24725,0,103.203,0,load
1780597080.0492265,8.94953300000634,619794,0.055908,-0.011719,1.053711,2.977099,3.358779,-0.450382,1.055258,4.510804,24728,40585,15855,24728,1,103.203,14,load
1780597080.0804968,8.980803300000844,619825,0.045654,-0.024902,1.052978,0.290076,2.900763,-0.679389,1.054262,2.99335,24733,40592,15857,24733,0,103.203,0,load
1780597080.1121373,9.012443800005713,619857,0.054199,-0.041016,1.064453,2.679389,2.916031,-0.480916,1.066621,3.98919,24735,40597,15860,24735,1,104.0,13,load
1780597080.1442742,9.044580600006157,619888,0.045166,-0.01123,1.052978,1.725191,2.450382,-0.473282,1.054006,3.033917,24740,40604,15862,24740,0,104.0,0,load
1780597080.1746879,9.074994399998104,619920,0.03125,-0.052734,1.051514,1.343511,2.389313,-1.038168,1.053299,2.931149,24742,40608,15864,24742,0,104.0,1,load
1780597080.2054694,9.105775899995933,619950,0.05249,-0.039551,1.050293,2.625954,3.374046,-0.78626,1.052347,4.347186,24745,40613,15866,24745,1,104.0,13,load
1780597080.23581,9.136116499998025,619981,0.028809,-0.024658,1.052002,0.648855,2.40458,-0.648855,1.052685,2.573719,24750,40620,15868,24750,0,104.0,1,load
1780597080.265795,9.166101399998297,620011,0.030518,-0.032715,1.059326,1.580153,2.740458,-1.061069,1.06027,3.336594,24752,40624,15870,24752,0,104.0,0,load
1780597080.2970974,9.197404000005918,620042,0.04126,-0.023682,1.059082,2.152672,3.641221,-0.343511,1.06015,4.243876,24756,40630,15872,24756,0,104.0,5,load
1780597080.3274705,9.227777100008097,620073,0.042725,0.003174,1.059326,0.633588,3.389313,-1.076336,1.060192,3.612115,24758,40634,15874,24758,0,104.0,0,load
1780597080.3603597,9.26066620000347,620104,0.029785,-0.040771,1.045654,2.290076,2.343511,-1.145038,1.046873,3.470966,24760,40639,15877,24760,1,104.0,14,load
1780597080.3906612,9.290967699998873,620135,0.031494,-0.002686,1.050049,1.328244,2.51145,-0.847328,1.050524,2.964723,24765,40646,15879,24765,0,107.914,0,load
1780597080.4206297,9.320936300005997,620166,0.012451,-0.050537,1.052246,1.061069,2.870229,-1.137405,1.053533,3.264624,24767,40650,15881,24767,0,107.914,0,load
1780597080.451829,9.35213549999753,620197,0.035889,-0.013184,1.043457,2.984733,3.549618,-0.442748,1.044157,4.658803,24770,40655,15883,24770,1,107.914,13,load
1780597080.48309,9.38339650000853,620228,0.060791,-0.0271,1.059082,0.229008,3.21374,-0.916031,1.061171,3.34958,24775,40662,15885,24775,0,107.914,1,load
1780597080.530305,9.430611300005694,620259,0.064209,-0.044434,1.052978,2.351145,2.763359,-0.618321,1.05587,3.680538,24777,40667,15888,24777,1,107.914,13,load
1780597080.5459394,9.446245900006033,620291,0.027832,-0.001953,1.051758,1.48855,2.305344,-0.48855,1.052128,2.787305,24783,40674,15889,24783,0,107.914,1,load
1780597080.5773091,9.477615499999956,620322,0.03125,-0.053223,1.059326,1.022901,2.19084,-0.969466,1.061123,2.604989,24785,40678,15891,24785,0,107.914,0,load
1780597080.60843,9.508736400006455,620353,0.048096,-0.011719,1.04248,2.778626,3.122137,-0.70229,1.043655,4.238126,24788,40683,15893,24788,1,107.914,14,load
1780597080.6391764,9.539482899999712,620384,0.029297,-0.017334,1.047607,-0.114504,3.374046,-1.099237,1.04816,3.550439,24793,40690,15895,24793,0,107.914,0,load
1780597080.6711402,9.571446700007073,620415,0.030273,-0.043945,1.051514,2.160305,3.099237,-0.458015,1.052867,3.805518,24795,40695,15898,24795,1,107.143,14,load
1780597080.7022529,9.60255940000934,620447,0.026855,0.008301,1.054688,1.824428,2.305344,-0.541985,1.055062,2.989464,24798,40700,15900,24798,0,107.143,0,load
1780597080.7334492,9.633755800008657,620478,0.015137,-0.049805,1.053467,1.061069,2.366412,-0.877863,1.054752,2.737958,24800,40704,15902,24800,0,107.143,0,load
1780597080.7634788,9.663785199998529,620509,0.05249,-0.008301,1.049561,2.854962,3.557252,-0.473282,1.050905,4.585722,24802,40707,15903,24802,1,107.143,16,load
1780597080.796439,9.696745499997633,620540,0.045654,-0.01123,1.058838,0.229008,2.206107,-1.030534,1.059881,2.445681,24807,40714,15905,24807,0,107.143,0,load
1780597080.8260617,9.726368100004038,620571,0.039307,-0.026855,1.058594,1.816794,2.519084,-1.061069,1.059664,3.282132,24809,40718,15907,24809,0,107.143,1,load
1780597080.8575468,9.757853300005081,620602,0.032715,-0.038574,1.043701,1.78626,3.007634,-0.916031,1.044926,3.616033,24814,40724,15908,24814,0,107.143,5,load
1780597080.8880198,9.788326299996697,620633,0.037842,0.000244,1.057617,0.89313,4.076336,-0.763359,1.058294,4.242276,24818,40730,15910,24818,0,107.143,0,load
1780597080.919817,9.820123400000739,620664,0.062744,-0.095459,1.055176,1.755725,2.664122,-0.389313,1.061341,3.214294,24820,40735,15913,24820,1,107.143,14,load
1780597080.9508054,9.851111900003161,620696,0.047119,-0.036133,1.082764,2.916031,2.29771,0.259542,1.08439,3.721568,24825,40742,15915,24825,0,106.762,1,load
1780597080.9831464,9.883452800000669,620727,0.053711,-0.047607,1.072754,0.419847,3.633588,-0.381679,1.075152,3.677623,24827,40746,15917,24827,0,106.762,0,load
1780597081.0142055,9.914511800001492,620758,0.0896,-0.040283,1.004883,2.358779,3.053435,-0.465649,1.009673,3.886404,24831,40752,15919,24831,0,106.762,5,load
1780597081.0459418,9.946248300009756,620790,0.034912,0.015381,1.080566,1.80916,3.129771,-1.206107,1.08124,3.810934,24834,40756,15920,24834,0,106.762,6,load
1780597081.0776858,9.977992400003131,620822,0.045166,-0.05249,1.066894,1.030534,2.580153,0.038168,1.06914,2.778605,24836,40761,15923,24836,1,106.762,14,load
1780597081.1090865,10.009392899999511,620853,0.033447,-0.005615,1.054199,1.908397,2.251908,-0.832061,1.054745,3.066822,24841,40768,15925,24841,0,106.762,1,load
1780597081.1379802,10.038286800001515,620884,0.026855,-0.052002,1.0625,1.015267,1.458015,-1.045802,1.064111,2.06162,24843,40772,15927,24843,0,106.762,0,load
1780597081.1682963,10.068602700004703,620914,0.002686,-0.041748,1.040772,1.450382,1.610687,-1.305344,1.041612,2.530186,24845,40777,15930,24845,1,106.762,13,load
1780597081.2005963,10.100902699996368,620945,0.083496,-0.003174,1.043701,0.603053,4.793894,0.717557,1.04704,4.884668,24850,40784,15932,24850,0,106.762,0,load
1780597081.231913,10.13221959999646,620976,0.052979,-0.034668,1.061279,1.51145,3.641221,0.061069,1.063166,3.942931,24852,40788,15934,24852,0,96.429,0,load
1780597081.2618484,10.162154899997404,621007,-0.007324,-0.001709,1.067139,2.335878,1.832061,-2.473282,1.067165,3.863922,24855,40793,15936,24855,1,96.429,14,load
1780597081.2924848,10.192791200010106,621037,0.038818,-0.003174,1.051025,1.89313,1.954198,-1.229008,1.051747,2.985514,24860,40800,15938,24860,0,96.429,0,load
1780597081.3218417,10.222148200002266,621068,0.006836,0.005127,1.063965,1.0,2.290076,-0.40458,1.063999,2.531429,24862,40804,15940,24862,0,96.429,1,load
1780597081.3527317,10.253038099996047,621097,0.044678,-0.020996,1.043457,1.900763,3.946565,-0.916031,1.044624,4.475197,24864,40809,15943,24864,1,96.429,15,load
1780597081.3843827,10.284689100008109,621129,0.029053,-0.035645,1.05249,2.48855,3.10687,-0.480916,1.053494,4.009589,24868,40814,15944,24868,0,96.429,7,load
1780597081.4145951,10.314901600009762,621161,0.049316,0.005615,1.044922,1.091603,4.648855,-1.549618,1.0461,5.020435,24872,40820,15946,24872,0,96.429,0,load
1780597081.4474761,10.347782600001665,621191,0.074463,-0.054199,1.056641,1.396947,4.755726,-0.412214,1.060647,4.973762,24873,40822,15947,24873,0,96.429,7,load
1780597081.477926,10.378232500006561,621222,0.058594,-0.025391,1.065674,1.778626,2.450382,-0.366412,1.067585,3.049941,24875,40826,15949,24875,0,96.429,0,load
1780597081.5084841,10.408790500005125,621253,-0.017578,-0.024414,1.074707,2.21374,2.030534,-2.442748,1.075128,3.871787,24876,40828,15950,24876,0,86.643,3,load
1780597081.5393767,10.439683200005675,621284,0.03125,-0.0271,1.044434,0.641221,3.152672,0.320611,1.045252,3.233156,24878,40831,15951,24878,1,86.643,20,load
1780597081.5697057,10.47001220000675,621315,0.078857,0.019043,1.063232,1.557252,4.175572,-1.419847,1.066323,4.677222,24879,40833,15952,24879,1,86.643,19,load
1780597081.6020343,10.502340899998671,621346,0.068604,-0.040039,1.060059,3.167939,3.083969,-2.366412,1.06303,5.01464,24880,40835,15953,24880,1,86.643,17,load
1780597081.6335607,10.533867100006319,621377,0.105469,-0.052979,1.059326,1.167939,4.832062,0.274809,1.065881,4.978797,24881,40837,15954,24881,1,86.643,16,load
1780597081.6642518,10.564558199999738,621408,0.074463,0.019775,1.063965,2.305344,4.160306,-1.053435,1.066751,4.871599,24882,40839,15955,24882,1,86.643,16,load
1780597081.6948566,10.595163200006937,621439,0.078125,-0.123779,1.074219,2.038168,3.412214,-1.251908,1.084145,4.167086,24883,40841,15956,24883,1,86.643,18,load
1780597081.7260401,10.62634670000989,621470,0.016357,-0.112549,1.036133,1.496183,3.412214,-0.541985,1.042356,3.765038,24884,40843,15957,24884,1,86.643,20,load
1780597081.756532,10.656838399998378,621501,0.108154,-0.107666,1.059326,1.244275,3.671756,1.183206,1.070262,4.053392,24885,40844,15957,24885,0,86.643,11,load
1780597081.7868285,10.687135000000126,621532,0.071777,-0.012451,1.063965,1.549618,3.29771,-0.465649,1.066456,3.673287,24887,40846,15957,24887,0,39.427,1,load
1780597081.819115,10.719421300003887,621563,0.095703,0.060547,1.06543,2.10687,4.854962,-0.160305,1.071432,5.294832,24888,40848,15958,24888,0,39.427,3,load
1780597081.8494735,10.74977989999752,621594,0.061523,0.026367,1.040527,1.770992,4.503816,-1.015267,1.042678,4.94485,24889,40850,15959,24889,0,39.427,5,load
1780597081.8800037,10.780310200003441,621625,0.057617,-0.048584,1.058838,0.992366,2.40458,-0.320611,1.061517,2.62099,24890,40852,15960,24890,0,39.427,7,load
1780597081.9106138,10.810920300005819,621656,-0.000488,-0.033203,1.074219,1.503817,2.603053,-1.061069,1.074732,3.18798,24891,40854,15961,24891,0,39.427,9,load
1780597081.942315,10.842621600007988,621687,0.038086,-0.096436,1.07373,2.244275,3.801527,-0.725191,1.078725,4.473732,24892,40856,15962,24892,0,39.427,9,load
1780597081.9744093,10.874715900004958,621718,0.070801,-0.064941,1.061768,1.381679,3.152672,-2.664122,1.066105,4.352692,24893,40858,15963,24893,0,39.427,9,load
1780597082.0047276,10.905034000010346,621749,0.02417,-0.066895,1.047363,1.923664,3.541985,-0.801527,1.049776,4.109572,24894,40860,15964,24894,0,39.427,9,load
1780597082.0358202,10.936126800006605,621780,0.040039,0.04541,1.050049,2.664122,3.175573,0.320611,1.051793,4.157475,24894,40861,15965,24894,1,39.427,28,load
1780597082.0668244,10.967130799996085,621811,0.049072,0.02417,1.068848,0.427481,2.755725,-0.229008,1.070246,2.798072,24895,40862,15965,24895,0,28.674,14,load
1780597082.096471,10.996777599997586,621842,0.03125,0.082764,1.068848,2.267176,3.21374,-1.19084,1.072502,4.109296,24896,40864,15966,24896,0,28.674,6,load
1780597082.1268153,11.027121799997985,621872,0.070068,0.027832,1.058594,1.007634,3.076336,-1.221374,1.061275,3.459902,24897,40866,15967,24897,0,28.674,11,load
1780597082.1580908,11.05839730000298,621903,0.050537,0.001465,1.06958,2.251908,3.152672,1.167939,1.070774,4.046543,24897,40867,15968,24897,1,28.674,33,load
1780597082.1893625,11.089669000008143,621934,0.062988,0.019775,1.061768,0.755725,3.038168,-0.381679,1.063818,3.153928,24898,40868,15968,24898,0,28.674,11,load
1780597082.2214568,11.121763300005114,621966,0.091309,0.060059,1.06958,2.458015,4.007634,-0.305344,1.075149,4.711284,24899,40870,15969,24899,0,28.674,10,load
1780597082.2522366,11.152543000003789,621997,0.057373,0.101318,1.06665,3.541985,2.740458,-1.78626,1.072986,4.821462,24899,40871,15970,24899,1,28.674,32,load
1780597082.2829196,11.183226100009051,622028,0.076904,0.020264,1.048584,1.801527,2.671756,-1.641221,1.051596,3.616267,24900,40872,15970,24900,0,28.674,19,load
1780597082.3156433,11.215949700010242,622059,-0.028809,-0.143066,1.036133,2.427481,-0.290076,-1.664122,1.04636,2.957382,24901,40874,15971,24901,0,28.674,0,load
1780597082.349222,11.249528400003328,622090,0.003662,-0.033691,1.083496,0.343511,-0.282443,-2.412214,1.084026,2.452866,24902,40876,15972,24902,0,25.09,9,load
1780597082.3753257,11.275632100005168,622120,0.048828,0.113525,1.056641,1.801527,3.587786,-0.916031,1.063843,4.117866,24903,40878,15973,24903,0,25.09,10,load
1780597082.4058177,11.306124199996702,622151,0.057129,-0.192139,1.043213,2.40458,3.160305,-0.221374,1.062296,3.977253,24903,40879,15974,24903,1,25.09,28,load
1780597082.4386773,11.338983699999517,622182,0.078125,0.046875,1.037354,2.984733,3.748092,0.206107,1.041347,4.795759,24904,40880,15974,24904,0,25.09,17,load
1780597082.469342,11.369648499996401,622214,0.014893,-0.072998,1.044189,2.51145,3.59542,0.343511,1.046844,4.39914,24905,40882,15975,24905,0,25.09,3,load
1780597082.5006013,11.400907800009008,622245,0.038574,-0.028809,1.052978,-0.137405,4.099236,-0.847328,1.054079,4.188148,24906,40884,15976,24906,0,25.09,12,load
1780597082.5312428,11.431549300003098,622276,0.037598,-0.067139,1.03125,3.038168,3.21374,-1.022901,1.034117,4.539264,24906,40885,15977,24906,1,25.09,32,load
1780597082.5611544,11.46146079999744,622306,0.072266,-0.010742,1.072754,0.954198,1.862595,-1.80916,1.075239,2.766373,24907,40886,15977,24907,0,25.09,13,load
1780597082.5921838,11.492490200005705,622337,0.078613,-0.141113,1.052002,1.648855,4.21374,-1.664122,1.064331,4.821165,24908,40888,15978,24908,0,25.09,8,load
1780597082.622971,11.523277500004042,622368,0.059814,0.03833,1.074951,0.816794,3.267176,-2.076336,1.077296,3.956357,24909,40890,15979,24909,0,25.18,10,load
1780597082.6546457,11.554952200007392,622399,-0.018555,0.138916,1.041748,0.610687,1.198473,-0.977099,1.051133,1.662528,24909,40891,15980,24909,1,25.18,28,load
1780597082.6859632,11.586269499995979,622430,0.049072,0.119873,1.09668,1.152672,2.961832,-1.21374,1.104302,3.402098,24910,40893,15981,24910,1,25.18,18,load
1780597082.7171037,11.617410200007726,622461,0.046387,0.045166,1.064697,0.709924,2.19084,-0.977099,1.066664,2.501698,24911,40894,15981,24911,0,25.18,13,load
1780597082.7482817,11.648588099997141,622492,0.015869,-0.172852,1.048828,-0.664122,2.427481,0.320611,1.063094,2.537028,24912,40896,15982,24912,0,25.18,3,load
1780597082.7767532,11.677059599998756,622523,0.066406,-0.046143,1.101807,-0.137405,3.0,-1.938931,1.10477,3.57468,24913,40898,15983,24913,0,25.18,8,load
1780597082.8088381,11.709144599997671,622553,0.001709,0.131592,1.064941,3.503817,1.541985,-1.870229,1.073042,4.26054,24914,40900,15984,24914,0,25.18,10,load
1780597082.840285,11.74059159999888,622584,0.02124,-0.185547,1.017334,0.236641,1.671756,-0.732824,1.034334,1.840597,24914,40901,15985,24914,1,25.18,29,load
1780597082.8712683,11.771574700003839,622615,0.026855,0.100342,1.050049,2.068702,1.954198,-0.946565,1.055174,2.999068,24915,40902,15985,24915,0,25.18,16,load
1780597082.9015586,11.801865000001271,622646,-0.012695,-0.031982,1.038818,1.885496,2.992366,0.480916,1.039388,3.569402,24916,40904,15986,24916,0,25.18,1,load
1780597082.933135,11.833441599999787,622678,-0.001465,-0.080322,1.043213,3.129771,1.748092,-0.923664,1.046302,3.701952,24917,40906,15987,24917,0,25.18,7,load
1780597082.9640422,11.86434860000736,622709,0.042236,-0.141113,1.066406,2.694656,3.465649,-1.694656,1.076531,4.705715,24918,40908,15988,24918,0,25.18,9,load
1780597082.9956203,11.895926800003508,622740,0.06665,-0.166504,1.053711,3.450382,3.832061,-0.801527,1.068865,5.218455,24919,40910,15989,24919,0,25.18,10,load
1780597083.026214,11.926520399996662,622772,0.074219,-0.012207,1.0625,2.503817,4.053436,0.549618,1.065159,4.79599,24919,40911,15990,24919,1,25.18,28,load
1780597083.0580397,11.958346100000199,622803,0.020264,0.077881,1.053711,2.206107,2.70229,-0.221374,1.056779,3.495466,24920,40912,15990,24920,0,25.18,14,load
1780597083.0893736,11.989680099999532,622834,0.062988,0.005615,1.043213,1.656489,3.648855,0.977099,1.045128,4.12466,24921,40914,15991,24921,0,25.18,2,load
1780597083.1194746,12.019781199996942,622864,0.075928,-0.034424,1.082275,0.381679,4.648855,-1.015267,1.085481,4.773709,24922,40916,15992,24922,0,25.18,9,load
1780597083.1500795,12.050386000002618,622895,0.053223,0.075684,1.063721,2.129771,3.389313,-2.427481,1.067737,4.681456,24923,40918,15993,24923,0,25.18,9,load
1780597083.181141,12.081447400007164,622926,0.005127,0.093262,1.03833,3.312977,3.038168,-0.465649,1.042523,4.519194,24923,40919,15994,24923,1,25.0,29,load
1780597083.2136922,12.11399870000605,622957,0.057373,-0.161865,1.049805,1.160305,3.526718,0.641221,1.063758,3.767653,24924,40921,15995,24924,1,25.0,22,load
1780597083.2456121,12.145918599999277,622989,0.063232,-0.006836,1.068359,-0.236641,2.748092,-0.80916,1.070251,2.8745,24925,40922,15995,24925,0,25.0,10,load
1780597083.2757215,12.17602810000244,623020,0.058594,-0.128906,1.055908,0.610687,2.847328,-1.618321,1.06536,3.331543,24926,40924,15996,24926,0,25.0,8,load
1780597083.306415,12.206721599999582,623051,0.060303,0.053711,1.052246,0.748092,3.206107,-0.587786,1.05534,3.344287,24927,40926,15997,24927,0,25.0,11,load
1780597083.3536222,12.253928600010113,623082,0.047119,-0.021973,1.053711,2.221374,2.648855,1.015267,1.054993,3.603013,24927,40927,15998,24927,1,25.0,33,load
1780597083.3683753,12.26868180000747,623113,0.104736,0.053711,1.059082,2.320611,4.503816,-0.977099,1.065603,5.159876,24928,40928,15998,24928,0,25.0,11,load
1780597083.4001908,12.300497200005339,623144,0.018799,-0.070801,1.057861,0.717557,1.969466,-1.374046,1.060394,2.506329,24929,40930,15999,24929,0,25.0,11,load
1780597083.4296145,12.329921099997591,623175,0.018799,-0.121338,1.049805,1.877863,2.778626,0.473282,1.056961,3.386905,24929,40931,16000,24929,1,25.0,33,load
1780597083.461752,12.362058500002604,623206,0.049561,0.004883,1.076904,1.221374,2.885496,-0.580153,1.078055,3.1866,24930,40932,16000,24930,0,25.0,14,load
1780597083.49225,12.39255650000996,623236,0.04126,0.02124,1.062012,1.061069,2.862595,-1.664122,1.063025,3.477013,24931,40934,16001,24931,0,25.0,11,load
1780597083.521821,12.422127600002568,623267,0.060059,0.006836,1.057129,1.870229,4.152672,0.625954,1.058856,4.597202,24931,40935,16002,24931,1,25.0,33,load
1780597083.554069,12.45437540000421,623298,0.036377,0.034668,1.049805,2.374046,1.877863,-2.236641,1.051007,3.763645,24932,40936,16002,24932,0,25.0,17,load
1780597083.583879,12.484185399996932,623329,0.062012,-0.128906,1.059326,1.053435,3.519084,-1.48855,1.068941,3.963516,24933,40938,16003,24933,0,25.0,7,load
1780597083.615342,12.515648300002795,623360,0.042725,0.005615,1.042725,2.091603,4.61832,0.48855,1.043615,5.093365,24934,40940,16004,24934,0,25.0,11,load
1780597083.647587,12.547893599999952,623391,0.038086,-0.148193,1.043701,0.503817,2.839695,-1.167939,1.054857,3.111556,24934,40941,16005,24934,1,25.0,32,load
1780597083.6784372,12.578743600010057,623423,0.038574,-0.056885,1.060303,0.564886,3.664122,-0.419847,1.062528,3.731107,24935,40942,16005,24935,0,25.0,11,load
1780597083.7099283,12.61023479999858,623454,-0.024902,0.088379,1.044434,3.458015,1.656489,-1.465649,1.048462,4.10487,24936,40944,16006,24936,0,25.0,11,load
1780597083.7411156,12.641422000000603,623485,0.0271,-0.151611,1.039551,0.78626,2.526718,-1.21374,1.050898,2.911301,24936,40945,16007,24936,1,21.505,32,load
1780597083.771112,12.671418500001892,623516,0.023438,0.015137,1.053467,1.412214,1.526718,-2.0,1.053836,2.885345,24937,40946,16007,24937,0,21.505,17,load
1780597083.8021977,12.702504200002295,623546,0.028076,0.038574,1.058106,3.664122,3.045802,-1.977099,1.05918,5.158645,24938,40948,16008,24938,0,21.505,6,load
1780597083.8328438,12.733150200001546,623577,0.020508,-0.094971,1.047119,1.251908,2.641221,-0.480916,1.051617,2.962196,24939,40950,16009,24939,0,21.505,11,load
1780597083.8634083,12.76371480000671,623608,0.031738,-0.12207,1.045898,1.938931,2.526718,-1.08397,1.053476,3.364334,24939,40951,16010,24939,1,21.505,30,load
1780597083.8947532,12.795059600000968,623639,0.017578,-0.137695,1.030029,2.21374,2.007634,-0.717557,1.039341,3.073455,24940,40952,16010,24940,0,21.505,14,load
1780597083.925202,12.825508399997489,623670,0.095459,0.086182,1.064941,3.274809,4.206106,0.221374,1.072679,5.335233,24941,40954,16011,24941,0,21.505,7,load
1780597083.957271,12.8575775000063,623701,0.012207,0.117676,1.035156,3.389313,2.007634,-2.412214,1.041895,4.619179,24942,40956,16012,24942,0,21.505,11,load
1780597083.9882553,12.888561800005846,623732,0.047363,0.121582,1.057617,1.480916,3.946565,0.183206,1.065636,4.219248,24942,40957,16013,24942,1,21.505,30,load
1780597084.019612,12.919918500003405,623763,0.048828,0.030273,1.059326,1.709924,2.709924,-0.671756,1.060883,3.273955,24943,40958,16013,24943,0,25.18,16,load
1780597084.0485456,12.948852000001352,623794,0.094238,0.096436,1.092529,2.557252,4.519084,-0.48855,1.100818,5.215394,24944,40960,16014,24944,0,25.18,5,load
1780597084.080466,12.980772399998386,623825,0.012451,0.036377,1.050293,2.396947,3.038168,-0.351145,1.050997,3.885759,24945,40962,16015,24945,0,25.18,11,load
1780597084.1105256,13.010832100000698,623856,0.072754,-0.173828,1.057373,1.29771,4.038168,0.763359,1.074033,4.309706,24945,40963,16016,24945,1,25.18,32,load
1780597084.1420858,13.042392200004542,623886,0.034912,0.094482,1.065918,1.625954,3.229008,-0.541985,1.070667,3.655676,24946,40964,16016,24946,0,25.18,13,load
1780597084.1731935,13.07349979999708,623917,0.045166,-0.141602,1.052978,0.656489,3.564885,-0.877863,1.063416,3.729615,24947,40966,16017,24947,0,25.18,11,load
1780597084.203114,13.103420500003267,623948,0.050293,0.110107,1.085449,1.78626,2.916031,-0.687023,1.092178,3.487974,24947,40967,16018,24947,1,25.18,33,load
1780597084.234237,13.134543300009682,623979,0.027344,-0.106445,1.022705,0.824427,3.221374,-0.305344,1.028593,3.339186,24948,40968,16018,24948,0,25.18,18,load
1780597084.2771807,13.177487200009637,624010,0.028564,0.086426,1.068848,2.152672,2.816794,-2.091603,1.072716,4.116203,24949,40970,16019,24949,0,25.18,5,load
1780597084.295997,13.19630340000731,624041,0.053955,0.048828,1.057617,2.198473,4.068702,0.015267,1.060118,4.6247,24950,40972,16020,24950,0,25.18,11,load
1780597084.3281133,13.228419799997937,624072,0.019775,-0.15332,1.055664,1.89313,2.755725,-0.519084,1.066923,3.383402,24950,40973,16021,24950,1,25.18,32,load
1780597084.3583705,13.258677100006025,624103,0.104492,0.015381,1.086914,0.007634,4.51145,-0.839695,1.092034,4.588936,24951,40974,16021,24951,0,25.18,13,load
1780597084.3883772,13.288683599996148,624133,0.043457,0.054199,1.052002,2.198473,3.877863,-0.335878,1.054293,4.470338,24952,40976,16022,24952,0,25.18,9,load
1780597084.4188218,13.319128200004343,624164,0.015381,-0.118652,1.049805,-0.114504,2.839695,-1.564886,1.056601,3.244356,24952,40977,16023,24952,1,25.18,32,load
1780597084.4504457,13.350752199999988,624195,0.039551,0.081787,1.059082,1.877863,2.641221,-0.603053,1.062971,3.296376,24953,40978,16023,24953,0,25.18,20,load
1780597084.4811842,13.381490700005088,624226,0.032959,-0.142334,1.043945,1.030534,3.564885,-1.015267,1.054119,3.84723,24954,40980,16024,24954,0,25.18,3,load
1780597084.512528,13.412834500006284,624257,0.033203,0.037109,1.061768,2.21374,4.412214,-0.671756,1.062934,4.981921,24955,40982,16025,24955,0,25.18,11,load
1780597084.5437431,13.444049600002472,624288,0.034912,-0.146729,1.041504,0.335878,3.618321,-1.137405,1.052368,3.807722,24955,40983,16026,24955,1,25.18,33,load
1780597084.575463,13.475769600001513,624319,0.040527,0.075684,1.071289,1.328244,3.687023,0.068702,1.074724,3.919578,24956,40984,16026,24956,0,21.583,13,load
1780597084.6060836,13.506390199996531,624351,0.025391,-0.112793,1.060791,-0.038168,4.641222,-0.900763,1.067073,4.727977,24957,40986,16027,24957,0,21.583,11,load
1780597084.6378613,13.538167699996848,624382,0.022705,0.011475,1.041992,2.80916,2.587786,-0.572519,1.042303,3.862098,24957,40987,16028,24957,1,21.583,33,load
1780597084.668869,13.569175600001472,624413,0.04834,-0.112061,1.042236,0.10687,2.908397,-0.251908,1.049357,2.921242,24958,40988,16028,24958,0,21.583,18,load
1780597084.6998498,13.600156300002709,624444,0.02002,-0.102295,1.042725,2.083969,3.305344,-0.435114,1.047922,3.931609,24959,40990,16029,24959,0,21.583,6,load
1780597084.7287583,13.62906490000023,624475,0.041504,-0.008301,1.046875,3.29771,2.977099,-0.374046,1.04773,4.458466,24960,40992,16030,24960,0,21.583,12,load
1780597084.7613103,13.661616700002924,624505,-0.016357,-0.07373,1.026856,3.091603,2.51145,1.832061,1.029629,4.384272,24960,40992,16030,24960,0,21.583,12,load
1780597084.7917569,13.692063399998005,624536,0.073242,-0.023682,1.044189,1.564886,2.763359,2.114504,1.047023,3.815252,24961,40994,16031,24961,0,21.583,6,load
1780597084.823679,13.723985500007984,624568,0.045654,0.009033,1.055908,3.259542,2.992366,0.877863,1.056933,4.511044,24961,40995,16032,24961,1,21.583,38,load
1780597084.854822,13.755128300006618,624599,0.049561,-0.056396,1.049072,1.427481,2.725191,0.51145,1.051755,3.118645,24962,40996,16032,24962,0,21.429,18,load
1780597084.8858957,13.786202200004482,624631,0.031738,-0.054688,1.061523,1.045802,3.29771,1.549618,1.063405,3.790766,24963,40998,16033,24963,0,21.429,12,load
1780597084.9160683,13.816374700007145,624661,-0.009033,-0.070312,1.052978,1.541985,2.40458,0.839695,1.055362,2.977383,24963,40998,16033,24963,0,21.429,12,load
1780597084.945953,13.846259400001145,624691,-0.002441,-0.084229,1.05957,1.40458,2.916031,-0.587786,1.062916,3.289616,24964,41000,16034,24964,0,21.429,5,load
1780597084.9785461,13.878852499998175,624722,0.083008,-0.061768,1.057373,1.236641,3.282443,0.89313,1.062423,3.619585,24964,41001,16035,24964,1,21.429,38,load
1780597085.0084817,13.908788300002925,624753,0.037598,0.053711,1.054443,2.076336,2.244275,-0.648855,1.05648,3.125532,24965,41002,16035,24965,0,21.429,20,load
1780597085.0458083,13.946114799997304,624789,0.048096,-0.021973,1.056885,0.725191,1.427481,-2.801527,1.058207,3.226787,24966,41004,16036,24966,0,21.429,8,load
1780597085.0761685,13.976475100003881,624821,0.050781,-0.108398,1.046631,2.358779,3.061069,-0.458015,1.053454,3.891498,24967,41006,16037,24967,0,21.429,11,load
1780597085.1091151,14.009421599999769,624852,0.025635,0.016846,1.040527,4.793894,3.129771,-1.251908,1.040979,5.860389,24967,41007,16038,24967,1,19.763,31,load
1780597085.14029,14.040596500009997,624884,0.056641,-0.039795,1.063232,-0.145038,2.740458,-0.885496,1.065483,2.883617,24968,41009,16039,24968,1,19.763,22,load
1780597085.1711357,14.071442200001911,624916,0.009033,0.078369,1.046875,2.053435,2.832061,-0.587786,1.049843,3.547204,24969,41010,16039,24969,0,19.763,10,load
1780597085.2024958,14.102802200010046,624947,0.034912,0.009033,1.069092,0.793893,2.465649,-2.022901,1.0697,3.286612,24970,41012,16040,24970,0,19.763,9,load
1780597085.2337544,14.134060800002771,624978,0.020508,0.087646,1.074463,3.725191,1.946565,-3.290076,1.078227,5.337674,24971,41014,16041,24971,0,19.763,10,load
1780597085.2650976,14.165404200000921,625009,0.016602,0.095947,1.031982,1.824428,2.717557,-0.412214,1.036566,3.299026,24971,41015,16042,24971,1,19.763,28,load
1780597085.2964613,14.196767900008126,625040,0.063477,0.118896,1.044434,0.259542,3.534351,0.099237,1.053094,3.545257,24972,41017,16043,24972,1,19.763,19,load
1780597085.3275547,14.227861200008192,625071,0.030518,-0.128906,1.035644,0.625954,3.061069,-1.274809,1.044082,3.374478,24973,41018,16043,24973,0,19.763,12,load
1780597085.3583798,14.258686200002558,625103,0.022949,0.112305,1.074707,0.916031,2.664122,-1.290076,1.080803,3.098541,24974,41020,16044,24974,0,27.888,1,load
1780597085.3896298,14.289936200002558,625134,0.0271,-0.135498,1.070068,1.793893,3.099237,-0.862595,1.078953,3.683394,24975,41022,16045,24975,0,27.888,5,load
1780597085.4253829,14.325689200006309,625165,0.048096,-0.085938,1.046875,2.412214,3.007634,-1.10687,1.051497,4.011209,24976,41024,16046,24976,0,27.888,9,load
1780597085.4513125,14.351618900007452,625196,0.025635,0.091553,1.059326,0.961832,3.129771,-1.854962,1.063584,3.763173,24977,41026,16047,24977,0,27.888,9,load
1780597085.4827683,14.38307480000367,625227,0.010986,-0.140381,1.056396,1.351145,1.59542,-1.412214,1.06574,2.522956,24978,41028,16048,24978,0,27.888,9,load
1780597085.515075,14.415381400001934,625259,0.030273,-0.049316,1.042725,2.954198,2.458015,-0.625954,1.044329,3.893706,24978,41029,16049,24978,1,27.888,28,load
1780597085.5462,14.446506499996758,625290,0.03833,-0.167969,1.018799,0.938931,3.78626,0.48855,1.033264,3.931416,24979,41030,16049,24979,0,27.888,14,load
1780597085.576573,14.476879399997415,625321,0.027344,-0.095459,1.061279,0.374046,2.396947,-1.572519,1.065914,2.891034,24980,41032,16050,24980,0,27.888,2,load
1780597085.6075203,14.507826700006262,625352,0.028809,-0.126465,1.028564,1.167939,2.70229,-1.122137,1.03671,3.150499,24981,41034,16051,24981,0,27.888,10,load
1780597085.638533,14.538839500004542,625382,0.036621,-0.11084,1.052978,0.938931,2.007634,-1.122137,1.059429,2.484226,24981,41035,16052,24981,1,25.09,31,load
1780597085.668663,14.568969500003732,625413,0.051514,-0.054932,1.057129,0.992366,3.206107,-0.366412,1.059808,3.376118,24982,41036,16052,24982,0,25.09,19,load
1780597085.6997228,14.600029299996095,625444,0.060059,0.07373,1.077148,0.122137,3.015267,-0.862595,1.081338,3.138602,24983,41038,16053,24983,0,25.09,1,load
1780597085.7312675,14.63157389999833,625475,0.051514,0.021484,1.0896,0.419847,2.541985,-1.549618,1.091028,3.006539,24984,41040,16054,24984,0,25.09,10,load
1780597085.7621908,14.662497299999814,625506,0.026367,0.095215,1.042725,1.465649,3.053435,-0.51145,1.047395,3.425372,24984,41041,16055,24984,1,25.09,32,load
1780597085.7929273,14.693233700003475,625537,-0.019043,0.020752,1.041016,4.053436,0.816794,-1.526718,1.041396,4.407761,24985,41042,16055,24985,0,25.09,18,load
1780597085.82434,14.724646600006963,625568,0.045166,0.032959,1.042725,2.572519,3.198473,-0.343511,1.044223,4.118991,24986,41044,16056,24986,0,25.09,3,load
1780597085.8545933,14.754899799998384,625599,0.025635,-0.123779,1.053955,1.099237,2.48855,-1.885496,1.061508,3.31003,24987,41046,16057,24987,0,25.09,11,load
1780597085.885761,14.786067599998205,625630,0.039307,0.069336,1.060303,3.061069,2.671756,-0.740458,1.063294,4.129976,24987,41047,16058,24987,1,25.09,33,load
1780597085.9157941,14.816100600000937,625661,0.0,-0.075439,1.03833,1.816794,2.206107,-1.473282,1.041067,3.215309,24988,41048,16058,24988,0,25.09,14,load
1780597085.9480217,14.848328100008075,625692,0.042236,0.094727,1.067871,1.557252,2.778626,-1.587786,1.072896,3.559054,24989,41050,16059,24989,0,25.09,9,load
1780597085.979367,14.879673500006902,625723,0.033447,-0.144287,1.055176,-0.450382,3.885496,0.526718,1.06552,3.946816,24989,41051,16060,24989,1,25.09,33,load
1780597086.0099192,14.910225600004196,625754,0.023193,0.043213,1.05957,1.687023,2.519084,-1.618321,1.060705,3.436683,24990,41052,16060,24990,0,25.09,20,load
1780597086.0418005,14.942107000009855,625785,0.029541,-0.148438,1.058106,0.381679,2.160305,-1.145038,1.068875,2.474613,24991,41054,16061,24991,0,25.09,3,load
1780597086.071875,14.972181600009208,625816,0.038086,-0.031006,1.048828,1.717557,4.51145,-0.312977,1.049977,4.837472,24992,41056,16062,24992,0,25.09,10,load
1780597086.1032856,15.003592000008211,625847,0.053467,0.047607,1.07373,2.015267,2.427481,-1.061069,1.076114,3.328638,24992,41057,16063,24992,1,25.09,34,load
1780597086.1339564,15.034262800007127,625878,0.051758,-0.158203,1.064209,1.755725,4.221374,1.10687,1.077148,4.704012,24993,41058,16063,24993,0,25.09,12,load
1780597086.1644313,15.064737900000182,625909,0.066406,0.022217,1.075928,-0.007634,2.78626,-1.480916,1.078204,3.155378,24994,41060,16064,24994,0,25.09,11,load
1780597086.1945622,15.094868600004702,625939,0.069824,0.093994,1.077881,2.007634,4.160306,1.10687,1.084222,4.750147,24994,41061,16065,24994,1,21.583,32,load
1780597086.2246711,15.124977600004058,625970,0.007568,-0.104736,1.030029,1.961832,1.847328,-1.312977,1.035368,2.997552,24995,41062,16065,24995,0,21.583,17,load
1780597086.2566082,15.156914599996526,626001,0.068115,-0.130615,1.043213,1.70229,4.0229,-0.48855,1.053562,4.395475,24996,41064,16066,24996,0,21.583,4,load
1780597086.287891,15.188197299998137,626032,0.054199,-0.155518,1.051758,1.580153,2.984733,-1.335878,1.064574,3.631816,24997,41066,16067,24997,0,21.583,10,load
1780597086.3219745,15.222281000009389,626063,0.084229,-0.100098,1.077148,-0.358779,4.801526,0.526718,1.085063,4.843636,24997,41067,16068,24997,1,21.583,31,load
1780597086.3491042,15.24941060000856,626094,0.042236,-0.029785,1.046875,0.061069,1.824428,-1.099237,1.04815,2.130865,24998,41068,16068,24998,0,21.583,16,load
1780597086.38043,15.280736400003661,626125,0.084961,-0.198486,1.053711,0.793893,4.19084,-0.740458,1.075603,4.329166,24999,41070,16069,24999,0,21.583,5,load
1780597086.4119291,15.312235600009444,626156,0.043945,-0.1521,1.047119,1.694656,2.572519,-1.625954,1.05902,3.483309,25000,41072,16070,25000,0,21.583,10,load
1780597086.4431672,15.343473700006143,626187,0.041504,-0.162842,1.037598,0.725191,3.580153,-0.824427,1.051118,3.74474,25000,41073,16071,25000,1,21.583,30,load
1780597086.4743528,15.374659299995983,626218,-0.030273,-0.039795,1.024658,3.51145,2.442748,-1.030534,1.025877,4.399921,25001,41074,16071,25001,0,25.09,17,load
1780597086.5050955,15.40540200000396,626249,0.023682,0.046875,1.038574,2.916031,3.641221,-1.122137,1.039901,4.798012,25002,41076,16072,25002,0,25.09,3,load
1780597086.536528,15.436834599997383,626280,0.051514,-0.083496,1.07373,0.145038,2.954198,-1.381679,1.078203,3.264562,25003,41078,16073,25003,0,25.09,10,load
1780597086.5684645,15.468771100000595,626312,-0.010986,0.091797,1.039551,3.229008,1.51145,-2.320611,1.043654,4.253964,25004,41080,16074,25004,0,25.09,10,load
1780597086.5979588,15.498265200003516,626343,0.05957,0.003906,1.10083,-1.045802,4.122138,0.152672,1.102448,4.25547,25004,41081,16075,25004,1,25.09,29,load
1780597086.6287684,15.529074999998556,626374,-0.000732,0.095703,1.041748,2.183206,0.083969,-1.519084,1.046135,2.661025,25005,41082,16075,25005,0,25.09,13,load
1780597086.6610565,15.561363100001472,626405,0.052979,-0.05249,1.069336,0.473282,2.80916,-1.503817,1.071933,3.221311,25006,41084,16076,25006,0,25.09,6,load
1780597086.6905878,15.590894200009643,626436,0.04834,-0.053223,1.0625,2.381679,2.877863,-0.580153,1.06493,3.780353,25007,41086,16077,25007,0,25.09,10,load
1780597086.7210824,15.621389000007184,626466,-0.006836,0.04541,1.023438,3.10687,1.870229,-1.366412,1.024467,3.875239,25007,41087,16078,25007,1,25.09,29,load
1780597086.754654,15.65496030000213,626497,0.061768,0.028076,1.041016,1.51145,3.923664,0.022901,1.043224,4.204777,25008,41089,16079,25008,1,25.09,21,load
1780597086.784261,15.684567400006927,626529,0.107666,0.035889,1.041016,3.480916,2.206107,-0.763359,1.047184,4.191229,25009,41090,16079,25009,0,25.09,11,load
1780597086.8152776,15.715584100005799,626560,0.09668,-0.135254,1.068359,2.564885,2.320611,-1.0,1.081218,3.600538,25010,41092,16080,25010,0,25.09,4,load
1780597086.8458943,15.746200900000986,626590,0.023438,0.035156,1.060303,1.78626,2.954198,-2.091603,1.061144,4.036436,25011,41094,16081,25011,0,25.09,6,load
1780597086.8774097,15.777716199998395,626621,0.037598,-0.039307,1.051025,1.335878,2.839695,-1.007634,1.052432,3.296022,25012,41096,16082,25012,0,25.09,4,load
1780597086.9084508,15.808757200007676,626652,0.006348,-0.020264,1.068115,1.656489,2.328244,-1.114504,1.068326,3.06705,25014,41099,16083,25014,1,25.09,15,load
1780597086.9383774,15.838683800000581,626683,0.060059,-0.010254,1.062256,0.755725,3.70229,-0.740458,1.064002,3.8505,25016,41102,16084,25016,0,25.09,6,load
1780597086.969351,15.869657500006724,626713,0.031006,-0.034424,1.048828,1.389313,2.938931,-0.694656,1.049851,3.324162,25018,41106,16086,25018,0,25.09,0,load
1780597086.9997666,15.900073099997826,626744,0.0625,-0.019775,1.063721,2.167939,3.900763,-1.053435,1.065739,4.585372,25021,41111,16088,25021,1,25.09,13,load
1780597087.0282881,15.928594500001054,626774,0.032715,-0.014404,1.050537,1.0,3.083969,-1.503817,1.051145,3.57384,25026,41118,16090,25026,0,64.982,0,load
1780597087.0595999,15.959906300005969,626804,0.038818,-0.018555,1.049805,1.526718,2.931298,-1.236641,1.050686,3.528832,25027,41120,16091,25027,0,64.982,6,load
1780597087.090852,15.991158400007407,626835,0.028564,-0.037109,1.050293,2.045802,2.549618,-0.801527,1.051336,3.365754,25030,41124,16092,25030,0,64.982,6,load
1780597087.1219974,16.022303799996735,626866,0.053711,-0.022217,1.062012,1.534351,3.282443,-0.580153,1.063601,3.669502,25031,41126,16093,25031,0,64.982,6,load
1780597087.1535625,16.053868900009547,626897,0.032227,-0.037354,1.047363,1.664122,2.931298,-0.687023,1.048524,3.44003,25033,41131,16096,25033,1,64.982,13,load
1780597087.183037,16.083343500009505,626928,0.037598,-0.009277,1.050537,1.480916,3.48855,-0.534351,1.051251,3.827352,25038,41138,16098,25038,0,64.982,1,load
1780597087.2143154,16.114621900007478,626958,0.036377,-0.023926,1.05127,1.618321,2.78626,-0.679389,1.052171,3.292988,25040,41142,16100,25040,0,64.982,0,load
1780597087.2452242,16.145530800000415,626989,0.067139,-0.023438,1.05542,1.755725,3.305344,-0.801527,1.057813,3.827572,25044,41148,16102,25044,0,64.982,6,load
1780597087.2774038,16.177710300005856,627021,0.054443,-0.014893,1.053955,1.328244,2.938931,-0.236641,1.055465,3.233813,25045,41150,16103,25045,0,64.982,6,load
1780597087.3068514,16.20715790000395,627052,0.042236,-0.027344,1.049316,1.618321,3.221374,-0.801527,1.050522,3.693055,25047,41155,16106,25047,1,75.54,13,load
1780597087.3381062,16.23841259999608,627083,0.041992,-0.003174,1.05835,1.259542,3.259542,-0.450382,1.059187,3.523337,25051,41160,16107,25051,0,75.54,6,load
1780597087.3694355,16.269741900003282,627114,0.029785,-0.022461,1.054932,1.450382,2.587786,-0.992366,1.055591,3.128104,25053,41164,16109,25053,0,75.54,0,load
1780597087.4113898,16.31169640000735,627145,0.054443,-0.021484,1.063232,1.48855,3.366412,-0.847328,1.064842,3.777099,25057,41170,16111,25057,0,75.54,6,load
1780597087.4306936,16.33100020000711,627176,0.049316,-0.009766,1.05127,1.419847,3.465649,-0.748092,1.052471,3.819205,25061,41176,16113,25061,0,75.54,0,load
1780597087.462663,16.36296929999662,627207,0.036377,-0.034912,1.048828,1.572519,2.442748,-0.687023,1.050039,2.98527,25063,41181,16116,25063,1,75.54,13,load
1780597087.494106,16.394412499997998,627238,0.031006,-0.020264,1.055908,1.51145,2.954198,-0.725191,1.056558,3.396715,25066,41186,16118,25066,0,75.54,0,load
1780597087.5253053,16.425611700004083,627269,0.045898,-0.034424,1.050049,1.694656,2.80916,-1.244275,1.051615,3.508769,25068,41190,16120,25068,0,75.54,0,load
1780597087.5564282,16.456734599996707,627300,0.065674,-0.027832,1.053955,2.099237,3.419847,-0.473282,1.056366,4.040562,25073,41196,16121,25073,0,75.54,7,load
1780597087.5876405,16.48794700000144,627331,0.043457,-0.021484,1.055908,1.450382,3.175573,-0.801527,1.05702,3.581943,25077,41202,16123,25077,0,107.527,1,load
1780597087.6188664,16.519172900007106,627362,0.048096,-0.023438,1.053955,1.954198,2.557252,-0.610687,1.055312,3.275876,25079,41207,16126,25079,1,107.527,13,load
1780597087.6510031,16.551309500006028,627394,0.0354,-0.021484,1.066162,1.687023,3.091603,-0.70229,1.066966,3.591277,25084,41214,16128,25084,0,107.527,0,load
1780597087.6810253,16.581331800000044,627425,0.024902,-0.034668,1.05249,1.427481,2.664122,-0.862595,1.053355,3.143138,25086,41218,16130,25086,0,107.527,0,load
1780597087.7135994,16.613905899997917,627456,0.069336,-0.020264,1.059814,2.091603,3.870229,-0.732824,1.062273,4.459878,25090,41224,16132,25090,0,107.527,6,load
1780597087.743816,16.644122300000163,627488,0.046631,-0.025879,1.061768,1.198473,3.061069,-0.641221,1.063106,3.349275,25094,41230,16134,25094,0,107.527,0,load
1780597087.7770393,16.67734580000979,627520,0.05542,-0.05249,1.054688,1.656489,3.221374,-0.954198,1.057446,3.745891,25096,41235,16137,25096,1,107.527,13,load
1780597087.8071563,16.707462899998063,627551,0.052002,-0.037109,1.047119,1.122137,3.48855,-0.114504,1.049066,3.666372,25101,41242,16139,25101,0,107.527,0,load
1780597087.8376095,16.737916099998984,627582,0.055176,-0.029541,1.057373,1.679389,3.244275,-1.015267,1.059224,3.791627,25103,41246,16141,25103,0,103.586,1,load
1780597087.8692644,16.769570899996324,627613,0.045654,-0.031006,1.05127,1.923664,2.610687,-0.931298,1.052717,3.373942,25108,41252,16142,25108,0,103.586,6,load
1780597087.9004521,16.800758500001393,627645,0.039795,-0.027588,1.057373,1.549618,3.038168,-0.290076,1.058481,3.422854,25112,41258,16144,25112,0,103.586,0,load
1780597087.932085,16.83239150000736,627676,0.057129,-0.050537,1.047852,2.251908,2.977099,-0.641221,1.050624,3.787529,25114,41263,16147,25114,1,103.586,13,load
1780597087.9642668,16.86457330000121,627707,0.037354,-0.032227,1.044678,0.778626,3.343511,-0.381679,1.045842,3.454129,25117,41268,16149,25117,0,103.586,0,load
1780597087.993794,16.89410050000879,627738,0.031738,-0.024658,1.057373,1.59542,3.305344,-0.900763,1.058137,3.779158,25119,41272,16151,25119,0,103.586,0,load
1780597088.0255957,16.92590210000344,627769,0.052734,-0.034668,1.05835,1.908397,2.335878,-0.725191,1.06023,3.102291,25124,41278,16152,25124,0,103.586,6,load
1780597088.0570233,16.957329800003208,627800,0.036133,-0.023438,1.048828,1.427481,2.709924,-0.954198,1.049712,3.208096,25128,41284,16154,25128,0,103.586,0,load
1780597088.08704,16.987346299996716,627832,0.057861,-0.017334,1.052002,2.0,3.145038,-1.091603,1.053735,3.883666,25130,41289,16157,25130,1,108.0,14,load
1780597088.1177263,17.018032699998002,627862,0.039062,-0.002197,1.05835,1.427481,3.282443,-0.541985,1.059072,3.620204,25135,41296,16159,25135,0,108.0,0,load
1780597088.1491501,17.0494566999987,627893,0.044678,-0.047607,1.047607,1.923664,2.908397,-0.870229,1.04964,3.593961,25136,41298,16160,25136,0,108.0,6,load
1780597088.1803262,17.08063260000199,627924,0.049072,-0.031738,1.049561,1.885496,3.145038,-0.358779,1.051186,3.684438,25140,41304,16162,25140,0,108.0,5,load
1780597088.2101583,17.110464800003683,627955,0.045654,0.000732,1.059082,1.114504,3.343511,-0.381679,1.060066,3.544978,25143,41308,16163,25143,0,108.0,6,load
1780597088.2420368,17.14234320000105,627986,0.023682,-0.029541,1.049805,1.664122,2.389313,-0.89313,1.050487,3.04562,25145,41313,16166,25145,1,108.0,13,load
1780597088.2726314,17.17293790000258,628018,0.047852,0.0,1.06665,1.564886,2.793893,-0.549618,1.067723,3.249121,25150,41320,16168,25150,0,108.0,0,load
1780597088.303819,17.204125400006888,628048,0.037598,-0.038818,1.057617,1.236641,2.641221,-0.709924,1.058997,3.001554,25152,41324,16170,25152,0,108.0,0,load
1780597088.3465664,17.246872999996413,628079,0.053467,-0.017578,1.054443,2.099237,3.938931,-0.648855,1.055944,4.51032,25156,41330,16172,25156,0,108.0,5,load
1780597088.366593,17.266899399997783,628110,0.040771,-0.017822,1.055908,1.450382,3.519084,-0.793893,1.056845,3.888165,25160,41336,16174,25160,0,107.914,0,load
1780597088.396906,17.29721230000723,628141,0.065674,-0.019287,1.061035,1.473282,2.435115,-0.877863,1.063241,2.97842,25162,41341,16177,25162,1,107.914,13,load
1780597088.4290564,17.32936280001013,628173,0.054932,-0.020264,1.058106,1.732824,2.984733,-0.671756,1.059724,3.516044,25167,41348,16179,25167,0,107.914,0,load
1780597088.4600084,17.36031479999656,628204,0.051758,-0.037842,1.058106,1.343511,2.770992,-0.89313,1.060046,3.206416,25169,41352,16181,25169,0,107.914,0,load
1780597088.4923806,17.39268720000109,628235,0.054199,-0.020996,1.052246,2.160305,4.068702,-0.648855,1.05385,4.652126,25173,41358,16183,25173,0,107.914,6,load
1780597088.5234113,17.423717800003942,628267,0.058594,0.001221,1.068604,1.160305,3.641221,-0.725191,1.070209,3.88982,25177,41364,16185,25177,0,107.914,0,load
1780597088.5548263,17.45513280000887,628298,0.035645,-0.030273,1.051758,1.801527,2.068702,-0.954198,1.052797,2.904397,25179,41369,16188,25179,1,107.914,13,load
1780597088.5850968,17.485403300001053,628330,0.064697,-0.008301,1.066406,1.366412,3.229008,-0.396947,1.068399,3.528617,25184,41376,16190,25184,0,107.914,1,load
1780597088.6181855,17.51849210000364,628361,0.052979,-0.035156,1.062012,1.541985,2.862595,-1.022901,1.063913,3.408591,25186,41380,16192,25186,0,103.586,1,load
1780597088.647659,17.547965600009775,628392,0.04541,-0.031006,1.047607,2.076336,3.076336,-0.587786,1.049049,3.757726,25190,41386,16194,25190,0,103.586,7,load
1780597088.6801891,17.580495600006543,628423,0.056152,-0.024414,1.070312,0.931298,3.122137,-0.465649,1.072062,3.291183,25194,41392,16196,25194,0,103.586,1,load
1780597088.709935,17.61024150000594,628454,0.04126,-0.0354,1.047607,1.59542,3.167939,-0.70229,1.049017,3.615856,25196,41397,16199,25196,1,103.586,13,load
1780597088.741463,17.641769299996668,628485,0.055664,-0.024658,1.067871,1.687023,2.320611,-0.503817,1.069605,2.912922,25201,41404,16201,25201,0,103.586,1,load
1780597088.771945,17.672251399999368,628516,0.039062,-0.027832,1.057373,1.961832,2.641221,-0.908397,1.05846,3.413212,25203,41408,16203,25203,0,103.586,1,load
1780597088.8031142,17.70342060000985,628547,0.061768,-0.022217,1.053955,2.259542,4.038168,-0.59542,1.055997,4.665496,25207,41414,16205,25207,0,103.586,6,load
1780597088.8331954,17.73350190000201,628578,0.064941,-0.009521,1.054443,1.267176,3.412214,-0.587786,1.056484,3.687062,25211,41420,16207,25211,0,103.586,1,load
1780597088.8647997,17.76510610000696,628609,0.052979,-0.023682,1.058106,1.717557,2.396947,-0.526718,1.059696,2.995461,25213,41425,16210,25213,1,103.586,13,load
1780597088.8970952,17.797401700008777,628640,0.04541,-0.033936,1.063721,1.465649,2.80916,-0.870229,1.06523,3.285849,25218,41432,16212,25218,0,114.695,1,load
1780597088.927358,17.827664299999014,628672,0.043213,-0.039307,1.060303,1.885496,2.419847,-0.977099,1.061911,3.219546,25220,41436,16214,25220,0,114.695,1,load
1780597088.959345,17.85965159999614,628703,0.052246,-0.017334,1.054932,1.656489,3.78626,-0.801527,1.056367,4.20977,25224,41442,16216,25224,0,114.695,6,load
1780597088.990491,17.890797400003066,628734,0.038086,-0.021973,1.061279,1.435114,3.732824,-0.435114,1.06219,4.022792,25228,41448,16218,25228,0,114.695,1,load
1780597089.0216057,17.921912200006773,628765,0.051514,-0.01416,1.056396,1.526718,2.51145,-0.572519,1.057746,2.994332,25230,41453,16221,25230,1,114.695,13,load
1780597089.0526364,17.952942800009623,628796,0.031006,-0.011475,1.063477,1.366412,2.564885,-0.610687,1.06399,2.969623,25235,41460,16223,25235,0,114.695,1,load
1780597089.0845153,17.98482189999777,628828,0.052246,-0.030762,1.062988,2.015267,3.145038,-0.70229,1.064716,3.80076,25237,41464,16225,25237,0,114.695,1,load
1780597089.1154969,18.015803400005098,628859,0.061279,-0.026855,1.059326,1.78626,3.412214,-0.80916,1.061437,3.935564,25241,41470,16227,25241,0,114.695,6,load
1780597089.146372,18.04667860000336,628890,0.057373,-0.036377,1.055664,1.51145,3.748092,-0.442748,1.057848,4.06555,25243,41474,16229,25243,0,100.0,1,load
1780597089.177649,18.077955600005225,628921,0.033691,-0.030273,1.053223,1.603053,2.312977,-0.519084,1.054196,2.861659,25245,41479,16232,25245,1,100.0,13,load
1780597089.20804,18.108346399996663,628952,0.039795,-0.010498,1.069092,1.465649,2.725191,-0.80916,1.069884,3.198364,25251,41486,16233,25251,0,100.0,1,load
1780597089.2392156,18.13952209999843,628983,0.04834,-0.042969,1.05249,1.709924,2.442748,-0.931298,1.054476,3.123807,25253,41490,16235,25253,0,100.0,1,load
1780597089.2704756,18.170782200002577,629014,0.041992,-0.022461,1.060303,2.328244,3.160305,-0.603053,1.061372,3.971388,25256,41495,16237,25256,1,100.0,13,load
1780597089.3002977,18.20060419999936,629045,0.048584,-0.031494,1.052246,1.0,3.541985,-0.480916,1.053838,3.71173,25261,41502,16239,25261,0,100.0,0,load
1780597089.3384712,18.238777599995956,629075,0.04126,-0.026855,1.05249,1.480916,3.534351,-0.931298,1.053641,3.943611,25263,41506,16241,25263,0,100.0,1,load
1780597089.3628235,18.26312990000588,629106,0.04541,-0.027832,1.044922,1.671756,2.885496,-0.625954,1.046278,3.393033,25268,41512,16242,25268,0,100.0,6,load
1780597089.392467,18.292773499997566,629137,0.055908,-0.02002,1.071289,1.519084,3.21374,-0.435114,1.072934,3.58121,25272,41518,16244,25272,0,100.0,1,load
1780597089.423861,18.32416760000342,629168,0.048584,-0.052002,1.060303,1.78626,2.748092,-1.129771,1.062688,3.466859,25274,41523,16247,25274,1,111.511,13,load
1780597089.4552574,18.355563799996162,629199,0.031006,0.000488,1.050781,1.534351,3.290076,-0.442748,1.051239,3.657166,25279,41530,16249,25279,0,111.511,1,load
1780597089.4863493,18.38665570000012,629230,0.03833,-0.05127,1.060059,1.687023,2.610687,-0.694656,1.06199,3.185009,25281,41534,16251,25281,0,111.511,1,load
1780597089.5177262,18.418032700006734,629261,0.05249,-0.036377,1.054443,1.992366,3.419847,-0.679389,1.056376,4.015775,25284,41540,16254,25284,0,111.511,6,load
1780597089.5483897,18.44869620000827,629293,0.039062,-0.031982,1.064209,1.374046,2.984733,-0.755725,1.065406,3.37161,25288,41546,16256,25288,0,111.511,1,load
1780597089.5806997,18.48100620000332,629324,0.047852,-0.042969,1.054443,1.648855,2.870229,-0.977099,1.056403,3.451328,25290,41551,16259,25290,1,111.511,13,load
1780597089.6108193,18.51112570000987,629355,0.053223,-0.017334,1.058106,1.335878,2.641221,-0.343511,1.059585,2.979701,25295,41558,16261,25295,0,111.511,1,load
1780597089.641566,18.541872600006172,629386,0.0271,-0.023926,1.042969,1.824428,2.625954,-0.824427,1.043595,3.302098,25297,41562,16263,25297,0,111.511,0,load
1780597089.673691,18.573997400002554,629417,0.053955,-0.041748,1.048828,1.984733,3.374046,-0.580153,1.051044,3.957263,25301,41568,16265,25301,0,111.511,6,load
1780597089.7057612,18.60606770000595,629449,0.044678,-0.029541,1.058106,1.480916,3.198473,-0.450382,1.05946,3.553335,25304,41572,16266,25304,0,106.762,5,load
1780597089.7369409,18.637247300008312,629480,0.020264,-0.026611,1.053467,1.78626,2.938931,-0.793893,1.053998,3.529632,25306,41577,16269,25306,1,106.762,13,load
1780597089.7668657,18.667172300003585,629511,0.056396,-0.004395,1.059082,1.389313,3.427481,-0.70229,1.060592,3.764443,25311,41584,16271,25311,0,106.762,1,load
1780597089.7978287,18.69813520000025,629542,0.053467,-0.045166,1.058838,2.21374,2.816794,-1.022901,1.061148,3.725762,25313,41588,16273,25313,0,106.762,0,load
1780597089.8291256,18.729432100008125,629573,0.063477,-0.023682,1.050781,2.007634,3.740458,-0.312977,1.052963,4.256709,25317,41594,16275,25317,0,106.762,6,load
1780597089.8605103,18.76081669999985,629604,0.052979,-0.008789,1.061523,0.938931,3.21374,-0.251908,1.062881,3.357555,25321,41600,16277,25321,0,106.762,0,load
1780597089.8906813,18.790987700005644,629635,0.023438,-0.026855,1.048828,1.656489,2.740458,-0.816794,1.049434,3.304726,25323,41605,16280,25323,1,106.762,14,load
1780597089.9229307,18.82323720000568,629666,0.050781,-0.013672,1.069336,1.80916,2.290076,-0.938931,1.070628,3.065796,25328,41612,16282,25328,0,106.762,1,load
1780597089.953754,18.85406030000013,629698,0.021484,-0.028564,1.042236,1.78626,2.847328,-0.992366,1.042849,3.504681,25330,41616,16284,25330,0,106.762,1,load
1780597089.9854605,18.885766899999,629729,0.08252,-0.029297,1.055908,2.29771,4.053436,-0.099237,1.059533,4.660435,25334,41622,16286,25334,0,107.143,6,load
1780597090.016468,18.9167746000021,629760,0.071045,-0.001221,1.064209,1.351145,4.030534,-0.038168,1.066578,4.251148,25338,41628,16288,25338,0,107.143,0,load
1780597090.0470748,18.94738120000693,629791,0.064453,-0.001221,1.051514,1.557252,2.732824,-0.610687,1.053488,3.204107,25340,41633,16291,25340,1,107.143,14,load
1780597090.0782747,18.978581300005317,629822,0.037842,0.008057,1.052734,1.465649,3.038168,-0.053435,1.053445,3.37364,25346,41640,16292,25346,0,107.143,1,load
1780597090.1092875,19.009594000002835,629853,0.017822,-0.045654,1.059814,2.083969,2.10687,-1.458015,1.060947,3.302672,25348,41644,16294,25348,0,107.143,1,load
1780597090.1407928,19.04109939999762,629884,0.01709,-0.005127,1.073242,2.534351,1.625954,-2.572519,1.07339,3.960368,25350,41649,16297,25350,1,107.143,14,load
1780597090.1697204,19.070026800007327,629915,0.030273,-0.002441,1.043213,0.465649,2.59542,-0.175573,1.043655,2.642699,25355,41656,16299,25355,0,107.143,0,load
1780597090.2017717,19.102078099997016,629945,0.026855,-0.022705,1.05957,1.259542,2.549618,-1.030534,1.060154,3.024731,25357,41660,16301,25357,0,107.143,0,load
1780597090.2318068,19.132113200001186,629976,0.05249,-0.017334,1.053955,2.198473,4.198474,-1.580153,1.055404,4.995733,25360,41665,16303,25360,1,107.143,13,load
1780597090.2628465,19.16315290000057,630007,0.032227,-0.012451,1.048828,0.847328,3.70229,-0.618321,1.049397,3.848018,25365,41672,16305,25365,0,111.511,1,load
1780597090.2940252,19.194331699996837,630038,0.049072,-0.044189,1.041016,1.564886,3.992366,-0.022901,1.043108,4.288168,25367,41676,16307,25367,0,111.511,0,load
1780597090.3260045,19.226311000005808,630069,0.055176,-0.035645,1.046875,2.030534,3.80916,-0.694656,1.048934,4.372107,25370,41680,16308,25370,0,111.511,6,load
1780597090.3561382,19.256444700004067,630100,0.038086,-0.043213,1.053711,1.870229,3.290076,-0.793893,1.055284,3.866862,25374,41686,16310,25374,0,111.511,0,load
1780597090.3875935,19.287900000010268,630131,0.039307,-0.033936,1.057861,1.496183,2.282443,-0.992366,1.059135,2.903946,25376,41691,16313,25376,1,111.511,13,load
1780597090.4190247,19.319331200007582,630162,0.047852,-0.020508,1.056885,1.694656,2.076336,-0.816794,1.058166,2.801818,25381,41698,16315,25381,0,111.511,1,load
1780597090.4494736,19.349780200005625,630193,0.024902,-0.039795,1.047607,1.618321,3.045802,-0.717557,1.048659,3.52289,25383,41702,16317,25383,0,111.511,0,load
1780597090.483167,19.383473399997456,630224,0.042236,-0.022705,1.053711,2.374046,3.160305,-0.801527,1.054802,4.033121,25387,41708,16319,25387,0,111.511,6,load
1780597090.5117857,19.412092099999427,630255,0.042725,-0.02417,1.045654,1.015267,4.015268,-0.229008,1.046806,4.147961,25391,41714,16321,25391,0,111.511,0,load
1780597090.5446002,19.444906600008835,630287,0.055176,-0.027588,1.051758,2.015267,2.137405,-1.137405,1.053565,3.150157,25393,41719,16324,25393,1,100.0,13,load
1780597090.5740469,19.474353199999314,630319,0.049316,-0.005859,1.05835,1.625954,1.992366,-0.465649,1.059514,2.613442,25398,41726,16326,25398,0,100.0,0,load
1780597090.6066675,19.506974000003538,630350,0.048828,-0.032471,1.07251,0.183206,2.900763,-1.038168,1.074112,3.086387,25400,41730,16328,25400,0,100.0,1,load
1780597090.6427407,19.54304720000073,630387,0.046875,-0.010742,1.053467,2.274809,3.648855,-0.78626,1.054564,4.371167,25406,41738,16330,25406,0,100.0,0,load
1780597090.6759372,19.57624360000773,630418,0.031006,-0.035156,1.053467,1.870229,2.664122,-1.198473,1.054509,3.468666,25408,41742,16332,25408,0,100.0,1,load
1780597090.7058504,19.606156800000463,630449,0.04126,-0.040039,1.053223,2.038168,3.656489,-0.328244,1.054791,4.199022,25412,41748,16334,25412,0,100.0,7,load
1780597090.7363296,19.636635900009423,630480,0.053711,0.016113,1.054688,0.984733,3.458015,-0.770992,1.056177,3.677227,25416,41754,16336,25416,0,100.0,1,load
1780597090.7673953,19.667701700003818,630511,0.024414,-0.032471,1.051025,2.251908,2.229008,-0.580153,1.05181,3.221202,25418,41759,16339,25418,1,100.0,14,load
1780597090.7981293,19.698435800004518,630542,0.026855,0.002441,1.042725,1.832061,2.221374,-0.343511,1.043073,2.899819,25423,41766,16341,25423,0,117.647,0,load
1780597090.8292384,19.729544900008477,630573,0.036377,-0.050049,1.056641,1.145038,3.076336,-0.931298,1.058451,3.412077,25425,41770,16343,25425,0,117.647,0,load
1780597090.8602324,19.7605387000076,630604,0.048584,-0.00708,1.046875,2.854962,3.114504,-0.70229,1.048026,4.283008,25429,41776,16345,25429,0,117.647,6,load
1780597090.8914824,19.7917887000076,630635,0.036621,-0.023193,1.052734,0.442748,2.793893,-0.748092,1.053626,2.926005,25431,41780,16347,25431,0,117.647,0,load
1780597090.9226656,19.82297200000903,630666,0.036133,-0.04834,1.059082,2.099237,2.938931,-0.251908,1.0608,3.620438,25433,41785,16350,25433,1,117.647,14,load
1780597090.9526603,19.852966699996614,630697,0.023193,-0.027588,1.042725,2.40458,2.931298,0.061069,1.043347,3.791865,25438,41792,16352,25438,0,117.647,1,load
1780597090.984159,19.88446549999935,630728,0.065674,-0.007813,1.067627,0.839695,3.030534,-1.312977,1.069673,3.407805,25440,41796,16354,25440,0,117.647,0,load
1780597091.0162787,19.916585099999793,630759,0.044922,-0.090576,1.038086,1.366412,2.541985,1.08397,1.042998,3.082817,25442,41801,16357,25442,1,117.647,13,load
1780597091.0467567,19.947063100000378,630790,0.0625,-0.005615,1.054688,1.541985,2.908397,-0.656489,1.056553,3.356705,25447,41808,16359,25447,0,117.647,1,load
1780597091.076394,19.976700500003062,630820,0.050537,-0.053467,1.050537,1.534351,2.641221,-1.290076,1.05311,3.315808,25449,41812,16361,25449,0,93.525,0,load
1780597091.1076186,20.00792509999883,630852,0.08374,0.004639,1.087646,2.656489,3.358779,-0.366412,1.090875,4.297974,25453,41818,16363,25453,0,93.525,6,load
1780597091.1386218,20.038928199996008,630883,0.03833,-0.03418,1.062988,1.160305,3.305344,-0.916031,1.064228,3.620872,25457,41824,16365,25457,0,93.525,1,load
1780597091.1693344,20.06964080000762,630914,0.030762,-0.018311,1.050537,2.061069,1.70229,-1.381679,1.051147,3.009125,25459,41829,16368,25459,1,93.525,14,load
1780597091.2022018,20.10250839999935,630945,0.038574,-0.018066,1.048584,1.541985,2.954198,-0.984733,1.049449,3.474868,25464,41836,16370,25464,0,93.525,1,load
1780597091.233954,20.134260500009987,630977,0.020752,-0.028809,1.050537,1.175572,2.442748,-0.870229,1.051137,2.847154,25466,41840,16372,25466,0,93.525,0,load
1780597091.264088,20.16439440000977,631008,0.046143,-0.016846,1.057129,1.923664,2.175573,-1.770992,1.05827,3.401472,25469,41845,16374,25469,1,93.525,14,load
1780597091.2946746,20.19498120000935,631039,0.036133,-0.009521,1.053223,0.992366,2.251908,-1.08397,1.053885,2.689028,25474,41852,16376,25474,0,93.525,0,load
1780597091.3248644,20.225170799996704,631069,0.008789,-0.022217,1.035644,1.977099,2.045802,-0.961832,1.03592,3.003223,25476,41856,16378,25476,0,93.525,1,load
1780597091.356739,20.257045600010315,631099,0.060791,-0.043457,1.051514,1.541985,3.435115,-0.206107,1.054166,3.770969,25478,41861,16381,25478,1,103.943,14,load
1780597091.3861432,20.28644969999732,631130,-0.012695,0.020752,1.052246,1.244275,2.267176,-1.022901,1.052527,2.78112,25483,41868,16383,25483,0,103.943,0,load
1780597091.4179742,20.31828069999756,631162,0.0354,0.002441,1.060303,1.824428,1.633588,-0.961832,1.060896,2.63102,25485,41872,16385,25485,0,103.943,0,load
1780597091.4484785,20.34878500000923,631193,0.029053,-0.026855,1.05835,1.854962,1.694656,-1.564886,1.059089,2.960002,25487,41877,16388,25487,1,103.943,15,load
1780597091.4800963,20.38040280000132,631224,0.081543,-0.043945,1.068115,2.290076,4.007634,-0.366412,1.072124,4.630317,25491,41882,16389,25491,0,103.943,6,load
1780597091.5117922,20.412098700006027,631256,0.066895,-0.040039,1.043213,1.778626,4.114504,-1.08397,1.046122,4.611685,25494,41886,16390,25494,0,103.943,7,load
1780597091.5431437,20.443450100006885,631287,0.067627,0.003174,1.052734,1.145038,2.824427,-1.320611,1.054909,3.321523,25495,41888,16391,25495,0,103.943,7,load
1780597091.574848,20.475154300002032,631318,0.052002,-0.024902,1.046875,2.030534,3.267176,-1.358779,1.048462,4.07968,25496,41890,16392,25496,0,103.943,5,load
1780597091.6069672,20.50727360000019,631350,0.001953,-0.028809,1.052246,0.427481,1.641221,-0.870229,1.052642,1.906213,25497,41893,16394,25497,1,75.697,21,load
1780597091.637868,20.53817450000497,631381,0.052979,-0.04541,1.056152,1.946565,4.007634,-0.496183,1.058455,4.482906,25498,41895,16395,25498,1,75.697,18,load
1780597091.6689148,20.56922130000021,631413,0.056152,0.011475,1.065674,1.473282,3.885496,0.091603,1.067214,4.156444,25500,41898,16396,25500,0,75.697,7,load
1780597091.7011983,20.601504899997963,631445,0.015137,-0.021973,1.049805,0.59542,2.152672,-0.89313,1.050144,2.405452,25501,41900,16397,25501,0,75.697,7,load
1780597091.7318091,20.632115500004147,631476,0.037842,0.039551,1.058838,0.763359,3.038168,-0.694656,1.060252,3.208696,25502,41902,16398,25502,0,75.697,7,load
1780597091.7643688,20.66467530000955,631507,0.04541,0.0354,1.062744,1.633588,2.946565,-1.022901,1.064303,3.520963,25503,41904,16399,25503,0,75.697,7,load
1780597091.7947383,20.695044699998107,631539,0.039551,-0.039795,1.044434,1.954198,3.351145,-0.770992,1.045939,3.955186,25504,41906,16400,25504,0,75.697,7,load
1780597091.8275383,20.72784469999897,631570,0.057861,0.056396,1.071533,0.541985,4.770992,0.114504,1.074575,4.803044,25505,41908,16401,25505,0,75.697,7,load
1780597091.8575466,20.757853000002797,631601,0.057617,0.030518,1.063965,1.21374,2.740458,-0.992366,1.065961,3.157224,25506,41910,16402,25506,0,35.857,7,load
1780597091.8884752,20.78878160000022,631632,0.064453,-0.083252,1.073975,1.618321,3.320611,-2.030534,1.079123,4.215268,25507,41912,16403,25507,0,35.857,7,load
1780597091.920086,20.820392399997218,631663,0.040527,-0.062256,1.068604,1.435114,2.145038,-2.022901,1.071182,3.279157,25508,41914,16404,25508,0,35.857,7,load
1780597091.950387,20.850693500004127,631694,0.062012,-0.06665,1.075684,2.282443,3.824427,-2.175573,1.079529,4.956703,25509,41916,16405,25509,0,35.857,8,load
1780597091.9817073,20.882013900001766,631725,0.027588,0.043457,1.049316,1.664122,2.274809,-0.656489,1.050578,2.893966,25510,41918,16406,25510,0,35.857,7,load
1780597092.0127835,20.91309010000259,631757,0.039062,0.013184,1.053223,1.770992,2.717557,-2.022901,1.054029,3.822782,25511,41920,16407,25511,0,35.857,8,load
1780597092.0435572,20.943863699998474,631788,0.017822,0.015625,1.052002,1.70229,2.732824,-1.70229,1.052269,3.641965,25512,41922,16408,25512,0,35.857,7,load
1780597092.074904,20.97521050000796,631818,0.075684,-0.089111,1.047852,1.656489,3.923664,0.580153,1.054354,4.298333,25513,41924,16409,25513,0,35.857,7,load
1780597092.1060772,21.006383600004483,631849,0.075684,-0.107422,1.061279,1.931298,3.236641,-0.610687,1.069384,3.818206,25514,41926,16410,25514,0,35.857,6,load
1780597092.1367664,21.03707299999951,631880,0.050781,0.035889,1.075439,1.038168,4.0229,-0.587786,1.077236,4.196072,25515,41928,16411,25515,0,32.258,7,load
1780597092.1671345,21.067441100007272,631911,0.039062,0.105957,1.060791,2.045802,3.335878,-0.70229,1.066785,3.975751,25516,41930,16412,25516,0,32.258,8,load
1780597092.1970007,21.09730720000516,631942,0.041992,0.001221,1.072998,0.358779,3.137405,-1.40458,1.07382,3.456136,25517,41932,16413,25517,0,32.258,8,load
1780597092.2284153,21.12872160000552,631972,0.032227,0.074219,1.05835,2.320611,3.59542,-0.435114,1.061438,4.301349,25517,41933,16414,25517,1,32.258,29,load
1780597092.258643,21.15894940000726,632003,0.043457,-0.093018,1.074463,-0.099237,2.725191,-1.29771,1.079357,3.020027,25518,41934,16414,25518,0,32.258,17,load
1780597092.290062,21.19036849999975,632034,0.01123,-0.102295,1.041016,1.832061,2.549618,-0.19084,1.04609,3.145381,25519,41936,16415,25519,0,32.258,1,load
1780597092.3230548,21.22336119999818,632066,0.065186,0.026855,1.087646,0.625954,3.396947,-1.015267,1.089929,3.600254,25520,41938,16416,25520,0,32.258,9,load
1780597092.3574634,21.257769800009555,632098,0.040771,0.024658,1.040039,2.816794,2.801527,-0.587786,1.04113,4.016014,25521,41940,16417,25521,0,32.258,10,load
1780597092.3838081,21.284114599999157,632128,0.070557,0.038086,1.049072,1.564886,5.08397,0.152672,1.052132,5.321552,25521,41941,16418,25521,1,32.258,29,load
1780597092.415187,21.315493300004164,632159,0.067139,-0.088623,1.029541,2.274809,3.0,-0.748092,1.035527,3.838541,25522,41942,16418,25522,0,25.09,15,load
1780597092.4469657,21.34727220000059,632190,0.053467,0.058594,1.065918,-0.519084,2.870229,-1.091603,1.068865,3.114364,25523,41944,16419,25523,0,25.09,3,load
1780597092.4781532,21.378459800005658,632221,0.071533,0.050049,1.07959,1.251908,3.862595,-1.198473,1.083114,4.233587,25524,41946,16420,25524,0,25.09,9,load
1780597092.5085137,21.408820199998445,632252,0.011963,-0.050293,1.032715,3.083969,3.030534,-1.564886,1.034008,4.598246,25525,41948,16421,25525,0,25.09,10,load
1780597092.5391347,21.43944129999727,632283,0.046387,0.098633,1.069336,1.877863,3.045802,-0.572519,1.074877,3.62368,25525,41949,16422,25525,1,25.09,27,load
1780597092.5708432,21.471149700009846,632314,0.046387,0.097168,1.046387,1.259542,3.572519,-0.328244,1.051912,3.802247,25526,41951,16423,25526,1,25.09,19,load
1780597092.6015031,21.501809599998523,632345,0.042725,0.035889,1.071289,0.396947,3.946565,-1.557252,1.072741,4.261218,25527,41952,16423,25527,0,25.09,12,load
1780597092.633124,21.53343060000043,632377,0.042236,0.061279,1.052978,2.389313,3.435115,-0.465649,1.055605,4.210185,25528,41954,16424,25528,0,25.09,4,load
1780597092.6647887,21.56509509999887,632408,0.049316,-0.139893,1.056885,2.526718,3.221374,-1.557252,1.067243,4.38025,25529,41956,16425,25529,0,25.09,9,load
1780597092.6950154,21.595321900007548,632439,0.025635,0.101562,1.056152,2.183206,2.21374,-1.412214,1.061334,3.414877,25530,41958,16426,25530,0,28.571,10,load
1780597092.7262197,21.62652600000729,632470,0.045898,-0.016357,1.076416,-0.152672,2.29771,-0.778626,1.077518,2.430851,25530,41959,16427,25530,1,28.571,30,load
1780597092.7578337,21.65814020000107,632501,0.009277,0.052002,1.042725,2.770992,1.992366,-1.534351,1.044062,3.741946,25531,41960,16427,25531,0,28.571,12,load
1780597092.7881124,21.688418799996725,632532,0.035889,0.040527,1.085205,1.015267,3.175573,-1.473282,1.086554,3.64494,25532,41962,16428,25532,0,28.571,6,load
1780597092.8186958,21.719002300000284,632563,0.016113,-0.068359,1.034424,3.007634,1.923664,-1.259542,1.036805,3.785867,25533,41964,16429,25533,0,28.571,10,load
1780597092.8504443,21.75075079999806,632594,0.0354,-0.146484,1.057617,0.625954,2.389313,-0.916031,1.0683,2.63434,25534,41966,16430,25534,0,28.571,10,load
1780597092.8811793,21.781485900006373,632625,0.047852,0.091797,1.052246,1.740458,3.137405,-0.687023,1.057326,3.653013,25534,41967,16431,25534,1,28.571,29,load
1780597092.9124253,21.812731800004258,632656,0.042236,-0.052246,1.061768,2.068702,2.656489,-0.832061,1.063891,3.468254,25535,41968,16431,25535,0,28.571,11,load
1780597092.9432855,21.843591900003958,632687,0.032715,-0.188477,1.045898,1.564886,2.259542,-0.664122,1.063248,2.827624,25536,41970,16432,25536,0,28.571,5,load
1780597092.9735513,21.87385770000401,632718,0.066162,-0.09375,1.084228,1.312977,2.877863,-0.984733,1.090283,3.31296,25537,41972,16433,25537,0,25.09,10,load
1780597093.0042875,21.904593900006148,632748,0.060059,-0.095703,1.061768,1.374046,3.045802,-2.152672,1.067762,3.974784,25538,41974,16434,25538,0,25.09,10,load
1780597093.0351841,21.935490700008813,632779,0.050781,-0.174316,1.067383,1.91603,2.534351,-0.549618,1.082715,3.224312,25538,41975,16435,25538,1,25.09,27,load
1780597093.0661054,21.966411900008097,632810,0.036377,-0.122314,1.036621,1.389313,2.740458,0.549618,1.044446,3.121278,25539,41977,16436,25539,1,25.09,19,load
1780597093.0958142,21.996120600000722,632841,0.031006,-0.006836,1.026367,1.679389,3.419847,-0.221374,1.026858,3.816374,25540,41978,16436,25540,0,25.09,11,load
1780597093.1273692,22.02767560000939,632871,0.033936,0.084961,1.05835,2.541985,3.78626,-0.251908,1.062296,4.567374,25541,41980,16437,25541,0,25.09,4,load
1780597093.158588,22.058894400004647,632902,0.024414,0.11084,1.036377,1.038168,2.251908,-1.946565,1.042573,3.152459,25542,41982,16438,25542,0,25.09,9,load
1780597093.1888208,22.089127200000803,632933,0.065674,0.064697,1.078613,1.343511,3.167939,-1.496183,1.082546,3.752256,25543,41984,16439,25543,0,25.09,10,load
1780597093.2202942,22.120600599999307,632964,0.033447,-0.114258,1.062256,0.526718,2.305344,-1.08397,1.068906,2.601352,25544,41986,16440,25544,0,25.09,9,load
1780597093.2515397,22.15184620000946,632995,0.071045,0.052734,1.071289,0.832061,3.068702,0.282443,1.074936,3.192026,25544,41987,16441,25544,1,25.271,28,load
1780597093.2817822,22.182088700006716,633026,0.025879,0.016602,1.069824,2.21374,3.236641,-0.061069,1.070266,3.921763,25545,41988,16441,25545,0,25.271,12,load
1780597093.3127964,22.21310269999958,633057,0.05127,-0.050537,1.061768,-0.251908,3.122137,-1.198473,1.064205,3.353735,25546,41990,16442,25546,0,25.271,5,load
1780597093.3442628,22.244569200003752,633088,0.047363,0.050781,1.082031,2.717557,3.320611,-1.633588,1.084257,4.591316,25547,41992,16443,25547,0,25.271,9,load
1780597093.3765101,22.27681660000235,633119,0.03833,-0.132324,1.037354,2.778626,2.328244,-1.122137,1.046461,3.794822,25548,41994,16444,25548,0,25.271,10,load
1780597093.4162626,22.316569100003107,633150,0.037354,0.001465,1.068359,0.244275,2.900763,-0.717557,1.069013,2.998164,25548,41995,16445,25548,1,25.271,29,load
1780597093.4358923,22.336198799996055,633180,0.043945,-0.023193,1.057617,1.633588,2.282443,-0.984733,1.058784,2.974534,25549,41996,16445,25549,0,25.271,11,load
1780597093.4665425,22.366848999998183,633211,0.055908,0.052979,1.062256,1.458015,3.427481,-0.40458,1.065044,3.746614,25550,41998,16446,25550,0,25.271,4,load
1780597093.4979005,22.39820700000564,633242,0.064941,-0.114258,1.066894,2.10687,3.732824,-0.770992,1.074959,4.355148,25551,42000,16447,25551,0,25.271,9,load
1780597093.530189,22.43049549999705,633273,0.100342,0.052246,1.076904,1.473282,3.610687,-1.954198,1.08283,4.36194,25552,42002,16448,25552,0,28.777,9,load
1780597093.5595481,22.4598546000052,633304,0.034424,0.001465,1.029785,2.244275,3.251908,-2.389313,1.030361,4.617412,25553,42004,16449,25553,0,28.777,9,load
1780597093.5905762,22.490882700003567,633334,0.04126,-0.151855,1.054932,0.59542,3.198473,-0.145038,1.066604,3.256654,25554,42006,16450,25554,0,28.777,9,load
1780597093.621407,22.521713599999202,633365,0.056885,0.101807,1.054932,1.229008,3.053435,-1.625954,1.061358,3.671192,25554,42007,16451,25554,1,28.777,26,load
1780597093.6528316,22.553138100003707,633396,0.037598,-0.139404,1.04248,2.442748,3.503817,-0.061069,1.052432,4.271707,25555,42009,16452,25555,1,28.777,21,load
1780597093.6838686,22.584175199997844,633427,0.01123,0.034912,1.063965,0.770992,2.519084,-1.206107,1.064597,2.897396,25556,42010,16452,25556,0,28.777,10,load
1780597093.713573,22.61387950000062,633458,0.108154,-0.161377,1.064941,0.801527,4.27481,-0.152672,1.082516,4.351982,25557,42012,16453,25557,0,28.777,3,load
1780597093.7455873,22.645893900000374,633489,0.045166,-0.078369,1.081787,2.160305,3.427481,-0.282443,1.085562,4.06132,25558,42014,16454,25558,0,28.777,8,load
1780597093.776203,22.676509299999452,633520,0.044189,0.084229,1.040039,1.282443,4.053436,-2.015267,1.04438,4.704922,25559,42016,16455,25559,0,28.777,9,load
1780597093.8084147,22.70872120000422,633552,0.016846,0.020752,1.02124,2.664122,1.839695,-2.251908,1.02159,3.943744,25560,42018,16456,25560,0,28.674,9,load
1780597093.83872,22.739026499999454,633583,0.047852,-0.056152,1.041748,2.450382,3.366412,0.450382,1.044357,4.188072,25561,42020,16457,25561,0,28.674,9,load
1780597093.8699856,22.770292100001825,633614,0.051025,-0.035156,1.071289,0.320611,3.549618,-0.870229,1.07308,3.668771,25561,42021,16458,25561,1,28.674,26,load
1780597093.9007401,22.80104669999855,633645,0.021484,0.062744,1.040283,2.358779,2.770992,-0.984733,1.042395,3.769872,25562,42023,16459,25562,1,28.674,19,load
1780597093.931956,22.83226260000083,633676,0.022217,-0.13623,1.058106,1.862595,2.068702,-0.648855,1.06707,2.858287,25563,42024,16459,25563,0,28.674,12,load
1780597093.962515,22.86282160000701,633707,0.023682,0.032471,1.06543,-0.541985,3.10687,0.068702,1.066187,3.154538,25564,42026,16460,25564,0,28.674,1,load
1780597093.9937258,22.8940322999988,633738,0.02832,-0.071777,1.04248,1.992366,4.442748,-0.129771,1.045332,4.870768,25565,42028,16461,25565,0,28.674,5,load
1780597094.0249295,22.925236000010045,633769,0.062012,0.05249,1.106201,0.916031,3.625954,-0.847328,1.109181,3.83466,25566,42030,16462,25566,0,28.674,9,load
1780597094.0561228,22.95642930000031,633800,0.04834,0.09082,1.052734,2.977099,3.480916,-2.167939,1.05775,5.06753,25567,42032,16463,25567,0,28.674,9,load
1780597094.0868385,22.98714490000566,633831,0.034912,-0.131104,1.062256,2.145038,2.534351,-1.526718,1.070885,3.654448,25568,42034,16464,25568,0,28.674,9,load
1780597094.1182237,23.018530100001954,633862,0.050049,0.107422,1.054443,1.877863,3.145038,-1.374046,1.061082,3.912242,25568,42035,16465,25568,1,28.674,26,load
1780597094.148997,23.049303499996313,633893,0.086914,-0.112793,1.063721,2.824427,3.793893,-0.129771,1.073209,4.731581,25569,42037,16466,25569,1,28.674,17,load
1780597094.180613,23.08091940000304,633924,0.034912,-0.136963,1.047852,1.022901,2.832061,-0.51145,1.057341,3.054256,25570,42039,16467,25570,1,28.674,21,load
1780597094.2110014,23.111307900006068,633955,0.003174,0.01709,1.074219,0.335878,2.59542,-1.580153,1.074359,3.057106,25571,42040,16467,25571,0,28.674,11,load
1780597094.2407503,23.141056799999205,633985,0.11499,-0.175049,1.062256,1.038168,4.137404,0.763359,1.082706,4.333431,25572,42042,16468,25572,0,28.674,3,load
1780597094.2717257,23.17203210000298,634016,0.040527,-0.119629,1.06543,0.038168,2.0,-1.839695,1.07289,2.717707,25573,42044,16469,25573,0,28.674,7,load
1780597094.3027036,23.20301009999821,634047,0.057861,0.111572,1.071045,2.748092,4.351145,-1.740458,1.078394,5.432648,25574,42046,16470,25574,0,28.674,9,load
1780597094.3380024,23.238308900006814,634078,0.001953,-0.092041,1.020264,3.045802,1.580153,-1.900763,1.024409,3.922587,25575,42048,16471,25575,0,28.674,8,load
1780597094.3649518,23.265258300001733,634109,0.046631,0.010986,1.066162,0.862595,3.068702,-0.282443,1.067238,3.200122,25576,42050,16472,25576,0,28.777,9,load
1780597094.3961954,23.296501799995895,634140,0.052734,-0.019531,1.055176,1.91603,3.229008,-1.519084,1.056673,4.050344,25576,42051,16473,25576,1,28.777,26,load
1780597094.4278467,23.32815319999645,634171,0.010498,-0.070068,1.048828,2.412214,1.78626,-0.748092,1.051218,3.093403,25577,42053,16474,25577,1,28.777,17,load
1780597094.4583685,23.358674999995856,634202,0.013916,-0.020508,1.074951,0.412214,2.343511,-0.984733,1.075237,2.575202,25578,42055,16475,25578,1,28.777,21,load
1780597094.4894397,23.389746200002264,634233,0.016602,-0.025146,1.027832,0.656489,3.977099,0.740458,1.028274,4.098362,25579,42056,16475,25579,0,28.777,11,load
1780597094.5204117,23.420718200010015,634264,0.034668,-0.098145,1.049072,1.419847,3.435115,-1.610687,1.054223,4.050962,25580,42058,16476,25580,0,28.777,3,load
1780597094.5505455,23.450851900008274,634295,0.070557,0.09375,1.081055,2.366412,3.732824,-1.229008,1.087404,4.587412,25581,42060,16477,25581,0,28.777,7,load
1780597094.5805109,23.480817300005583,634325,0.042725,-0.023926,1.050781,0.725191,2.503817,-2.40458,1.051922,3.546408,25582,42062,16478,25582,0,28.777,9,load
1780597094.6107621,23.51106869999785,634355,0.044922,-0.104248,1.076904,2.038168,3.442748,-1.091603,1.08287,4.147076,25583,42064,16479,25583,0,28.777,9,load
1780597094.6423066,23.54261309999856,634386,0.053711,0.095215,1.065186,2.89313,3.129771,-1.419847,1.07078,4.492398,25583,42065,16480,25583,1,25.271,27,load
1780597094.6732688,23.57357520000369,634417,0.047363,0.050293,1.077637,-0.572519,2.900763,-0.625954,1.079849,3.022255,25584,42067,16481,25584,1,25.271,18,load
1780597094.7041364,23.60444280000229,634448,0.058594,0.036621,1.075684,0.015267,3.10687,-1.145038,1.0779,3.311191,25585,42068,16481,25585,0,25.271,13,load
1780597094.7342787,23.634585200008587,634479,0.063965,-0.00293,1.073242,1.847328,4.099236,-2.022901,1.075151,4.930364,25586,42070,16482,25586,0,25.271,3,load
