host_epoch_s,host_elapsed_s,time_ms,ax,ay,az,gx,gy,gz,acc_mag,gyro_mag,pulse_count,edge_count,rise_count,fall_count,state,pulse_rate_hz,last_edge_dt_ms,label
1780594084.6199954,0.01071859999501612,188,0.030029,-0.037354,1.053711,0.847328,2.519084,-1.717557,1.0548,3.164451,16,26,10,16,1,0.0,6,load
1780594084.6504295,0.04115259999525733,219,0.04126,-0.045898,1.070801,3.167939,3.229008,0.007634,1.072578,4.523537,19,30,11,19,0,0.0,7,load
1780594084.6826332,0.07335629999579396,250,0.061523,0.012451,1.065674,-0.053435,3.740458,-1.396947,1.067521,3.993162,23,36,13,23,0,92.0,0,load
1780594084.713176,0.10389919999579433,281,0.047363,-0.078125,1.038086,2.603053,2.816794,-0.923664,1.042098,3.945044,25,41,16,25,1,92.0,13,load
1780594084.744715,0.13543819999904372,312,0.044189,-0.012207,1.057373,2.114504,2.572519,-0.572519,1.058366,3.37887,30,48,18,30,0,92.0,1,load
1780594084.775062,0.16578529999242164,343,0.044922,-0.031738,1.056152,0.129771,2.778626,-1.687023,1.057584,3.253252,31,50,19,31,0,92.0,6,load
1780594084.8067954,0.1975185000046622,374,0.048828,-0.049316,1.050293,3.839695,3.549618,0.160305,1.052583,5.231514,34,54,20,34,0,92.0,6,load
1780594084.8386264,0.22934959999111015,405,0.042236,-0.01001,1.046387,0.496183,3.557252,-1.557252,1.047287,3.91475,35,56,21,35,0,92.0,6,load
1780594084.8686879,0.25941109999257606,436,0.047607,-0.044434,1.049561,2.030534,3.206107,-1.274809,1.051579,4.003414,37,61,24,37,1,92.0,13,load
1780594084.9004846,0.2912076999928104,467,0.037842,-0.020508,1.056152,2.847328,3.007634,-0.083969,1.057029,4.142486,42,68,26,42,0,92.0,0,load
1780594084.9307215,0.32144469999184366,498,0.066895,0.012207,1.06543,0.083969,3.480916,-1.503817,1.067597,3.792795,44,72,28,44,0,92.0,0,load
1780594084.961307,0.35203029999684077,529,0.051025,-0.083496,1.04541,2.648855,3.045802,-0.572519,1.04998,4.0769,45,75,30,45,1,78.853,17,load
1780594084.9928472,0.3835703999939142,560,0.045654,0.0354,1.047607,1.740458,3.053435,-0.923664,1.049199,3.633981,47,78,31,47,0,78.853,6,load
1780594085.023436,0.41415939999569673,591,0.032959,-0.04126,1.059814,0.656489,2.664122,-1.671756,1.061129,3.212988,48,80,32,48,0,78.853,6,load
1780594085.0540338,0.4447569000039948,622,0.047607,-0.040283,1.057861,3.160305,3.473282,0.152672,1.059698,4.698354,52,86,34,52,0,78.853,6,load
1780594085.0854018,0.47612500000104774,653,0.039307,-0.004883,1.052734,0.328244,3.19084,-1.450382,1.053479,3.520342,56,92,36,56,0,78.853,0,load
1780594085.1158586,0.5065819000010379,684,0.045166,-0.052734,1.043945,2.618321,2.251908,-0.770992,1.046252,3.53852,58,97,39,58,1,78.853,13,load
1780594085.1491723,0.5398955999989994,716,0.042969,-0.012695,1.058106,1.961832,3.129771,-0.251908,1.059054,3.702392,68,108,40,68,0,78.853,1,load
1780594085.1814253,0.5721484999958193,748,0.038574,-0.041504,1.050537,0.824427,2.534351,-1.717557,1.052064,3.170586,69,110,41,69,0,78.853,6,load
1780594085.211885,0.6026082000025781,779,0.049316,-0.040283,1.061279,3.259542,3.687023,0.267176,1.063188,4.928502,72,114,42,72,0,108.0,6,load
1780594085.2418644,0.6325877000053879,810,0.04541,0.014648,1.056152,0.229008,3.40458,-1.358779,1.05723,3.672858,76,120,44,76,0,108.0,0,load
1780594085.274239,0.6649622999975691,841,0.047363,-0.049072,1.039795,2.473282,2.526718,-0.648855,1.042029,3.59478,78,125,47,78,1,108.0,13,load
1780594085.3037825,0.6945055999967735,872,0.045166,-0.007324,1.047852,2.236641,2.519084,-0.687023,1.04885,3.438073,85,133,48,85,0,108.0,0,load
1780594085.3345497,0.7252728000021307,902,0.041992,-0.016113,1.062988,-0.412214,3.389313,-1.099237,1.063939,3.586877,86,135,49,86,0,108.0,6,load
1780594085.366112,0.7568352999951458,934,0.05542,-0.074951,1.04834,3.442748,3.114504,-0.534351,1.052476,4.673134,87,138,51,87,1,108.0,17,load
1780594085.3972876,0.7880107999953907,965,0.032715,0.010254,1.045654,0.526718,3.122137,-0.847328,1.046216,3.277673,89,141,52,89,0,108.0,6,load
1780594085.428905,0.8196282999997493,996,0.0354,-0.048096,1.061035,1.229008,2.618321,-1.198473,1.062714,3.130879,91,145,54,91,0,108.0,0,load
1780594085.4600353,0.8507585000043036,1027,0.049316,-0.033936,1.065674,3.007634,3.206107,-0.083969,1.067354,4.396821,96,151,55,96,0,108.0,6,load
1780594085.4901044,0.8808276999916416,1058,0.061768,0.009033,1.066162,0.19084,3.977099,-1.167939,1.067988,4.149436,99,155,56,99,0,96.774,6,load
1780594085.5222626,0.9129856999934418,1089,0.043945,-0.07251,1.038086,2.641221,2.740458,-0.877863,1.041543,3.905996,100,158,58,100,1,96.774,16,load
1780594085.5524285,0.9431516000040574,1120,0.035645,-0.001221,1.047852,1.541985,2.877863,-0.587786,1.048458,3.317424,102,161,59,102,0,96.774,6,load
1780594085.583577,0.9743002000031993,1151,0.030518,-0.032227,1.044922,0.358779,2.916031,-1.389313,1.045864,3.249946,103,163,60,103,0,96.774,6,load
1780594085.6149588,1.0056820000027074,1182,0.047119,-0.031494,1.049072,3.229008,3.908397,0.10687,1.050602,5.070846,107,169,62,107,0,96.774,6,load
1780594085.644897,1.0356200999958673,1213,0.046875,-0.022705,1.04834,0.320611,2.938931,-1.328244,1.049633,3.24104,110,173,63,110,0,96.774,6,load
1780594085.6773398,1.0680629999988014,1244,0.047852,-0.048584,1.054932,2.633588,2.816794,-1.122137,1.057133,4.01613,111,176,65,111,1,96.774,16,load
1780594085.7079167,1.09863989999576,1275,0.038086,-0.014404,1.053955,2.435115,2.519084,-0.396947,1.054741,3.526065,113,179,66,113,0,96.774,6,load
1780594085.738856,1.1295792000018992,1306,0.037109,-0.006348,1.060547,0.015267,3.274809,-1.381679,1.061215,3.554384,114,181,67,114,0,96.774,6,load
1780594085.769038,1.1597612000041408,1337,0.035645,-0.073975,1.052734,2.78626,3.038168,-0.091603,1.055932,4.12336,115,184,69,115,1,57.348,16,load
1780594085.7989616,1.1896849000040675,1367,0.034668,-0.00415,1.048828,1.664122,2.21374,-0.900763,1.049409,2.912271,120,191,71,120,0,57.348,1,load
1780594085.830867,1.2215903000032995,1398,0.035645,-0.027344,1.060547,0.358779,2.610687,-1.061069,1.061498,2.840823,122,195,73,122,0,57.348,0,load
1780594085.862021,1.252744099998381,1429,0.03418,-0.034668,1.044922,3.541985,3.519084,0.122137,1.046055,4.99445,125,199,74,125,0,57.348,6,load
1780594085.8977249,1.2884481999935815,1460,0.039307,0.004883,1.043701,0.007634,3.450382,-1.175572,1.044452,3.645156,126,201,75,126,0,57.348,6,load
1780594085.922807,1.3135303000017302,1490,0.033447,-0.062988,1.049316,1.328244,2.648855,-1.48855,1.051737,3.316089,127,203,76,127,0,57.348,6,load
1780594085.953409,1.3441321999998763,1521,0.036377,-0.013916,1.055908,2.51145,2.938931,-0.992366,1.056626,3.991177,130,207,77,130,0,57.348,6,load
1780594085.9844606,1.3751839000033215,1552,0.049072,0.003662,1.067139,0.465649,3.618321,-1.0,1.068273,3.782734,134,213,79,134,0,57.348,0,load
1780594086.0155082,1.4062313000031281,1582,0.048584,-0.013184,1.053955,2.633588,3.167939,-0.374046,1.055157,4.136608,136,218,82,136,1,57.348,13,load
1780594086.0461318,1.4368549999926472,1614,0.052246,-0.012207,1.053467,1.435114,2.221374,-1.045802,1.054832,2.843898,138,221,83,138,0,83.032,7,load
1780594086.078355,1.4690783999976702,1645,0.038818,-0.030762,1.049805,0.778626,2.656489,-0.992366,1.050972,2.940745,139,223,84,139,0,83.032,6,load
1780594086.110414,1.5011372000008123,1677,0.052979,-0.026611,1.050537,2.259542,3.580153,-1.007634,1.052209,4.351822,142,227,85,142,0,83.032,6,load
1780594086.140262,1.5309850000048755,1709,0.039795,-0.000244,1.068359,1.08397,3.29771,-0.687023,1.0691,3.538627,144,231,87,144,0,83.032,1,load
1780594086.1727276,1.563450899993768,1739,0.054688,-0.029785,1.053955,1.519084,2.877863,-1.015267,1.055793,3.408882,145,234,89,145,1,83.032,16,load
1780594086.2027428,1.5934660999919288,1770,0.030762,-0.025879,1.054688,1.549618,2.78626,-1.229008,1.055453,3.416873,149,239,90,149,0,83.032,6,load
1780594086.2332187,1.6239419000048656,1801,0.045654,-0.019287,1.054688,1.305344,2.961832,-0.679389,1.055851,3.307256,150,241,91,150,0,83.032,7,load
1780594086.2644835,1.6552066000003833,1832,0.044678,-0.036621,1.048584,2.267176,3.534351,-0.908397,1.050174,4.29615,151,244,93,151,1,83.032,16,load
1780594086.295588,1.6863111999991816,1863,0.058838,-0.033203,1.050293,0.984733,2.969466,-0.709924,1.052464,3.208024,153,247,94,153,0,83.032,6,load
1780594086.326218,1.7169410999922547,1894,0.048096,-0.032959,1.053955,1.770992,2.778626,-1.274809,1.055567,3.533032,155,251,96,155,0,60.714,1,load
1780594086.357526,1.7482493999996223,1925,0.054932,-0.029785,1.063721,2.160305,3.458015,-0.877863,1.065554,4.170783,158,255,97,158,0,60.714,7,load
1780594086.389527,1.7802502999984426,1957,0.043945,-0.011963,1.064941,0.961832,3.412214,-0.709924,1.065915,3.615566,161,259,98,161,0,60.714,6,load
1780594086.4218407,1.812563899991801,1989,0.041992,-0.034668,1.05249,1.48855,2.557252,-0.51145,1.053898,3.002815,162,262,100,162,1,60.714,16,load
1780594086.451678,1.8424012000032235,2020,0.055664,-0.00415,1.063232,1.671756,3.59542,0.022901,1.064697,3.96514,164,265,101,164,0,60.714,6,load
1780594086.481141,1.8718644000036875,2049,0.046143,-0.014404,1.056641,1.656489,3.015267,-0.816794,1.057746,3.53595,165,267,102,165,0,60.714,7,load
1780594086.5138352,1.9045584999985294,2080,0.048828,-0.046387,1.043945,2.183206,3.145038,-0.427481,1.046116,3.852323,167,272,105,167,1,60.714,13,load
1780594086.5431263,1.93384949999745,2111,0.046143,-0.009277,1.055664,1.80916,3.450382,-0.740458,1.056713,3.965662,170,277,107,170,0,60.714,1,load
1780594086.5742695,1.9649927999998908,2142,0.040283,-0.029541,1.05249,1.603053,3.29771,-0.572519,1.053675,3.711125,171,279,108,171,0,60.714,6,load
1780594086.6057587,1.9964818000007654,2173,0.061279,-0.029785,1.054688,1.908397,3.633588,-0.625954,1.056886,4.151718,174,283,109,174,0,68.1,7,load
1780594086.6375008,2.028223999994225,2204,0.047852,-0.025146,1.055176,1.290076,3.442748,-0.900763,1.05656,3.785259,175,285,110,175,0,68.1,6,load
1780594086.667386,2.0581092999927932,2235,0.054443,-0.047852,1.046631,2.129771,3.412214,-1.129771,1.049138,4.177979,176,288,112,176,1,68.1,16,load
1780594086.6983514,2.0890745999931823,2266,0.043945,-0.010254,1.053955,1.946565,2.770992,-0.839695,1.054921,3.488925,178,291,113,178,0,68.1,7,load
1780594086.7294502,2.1201734999922337,2297,0.054688,-0.023682,1.068848,1.244275,3.412214,-0.862595,1.070508,3.733028,179,293,114,179,0,68.1,7,load
1780594086.7595947,2.1503178999992087,2328,0.038086,-0.036865,1.051758,1.48855,2.770992,-1.0,1.053093,3.300633,180,296,116,180,1,68.1,16,load
1780594086.7904706,2.181193800002802,2358,0.0354,-0.020996,1.062256,1.618321,3.366412,-0.954198,1.063053,3.855151,182,299,117,182,0,68.1,7,load
1780594086.83776,2.228483099999721,2389,0.052246,-0.019775,1.047363,1.389313,3.732824,-0.603053,1.048852,4.02838,183,301,118,183,0,68.1,7,load
1780594086.8528392,2.2435624999925494,2420,0.039795,-0.029053,1.064941,1.847328,2.022901,-1.381679,1.066081,3.06819,185,306,121,185,1,68.1,13,load
1780594086.8831017,2.2738249999965774,2451,0.060059,-0.037354,1.050537,2.053435,3.832061,-0.587786,1.052915,4.387116,188,311,123,188,0,50.36,0,load
1780594086.9148176,2.305540799992741,2482,0.039062,-0.028564,1.055908,1.755725,2.824427,-0.954198,1.057016,3.459834,189,313,124,189,0,50.36,7,load
1780594086.9456096,2.3363328999985242,2513,0.075684,-0.031006,1.060791,2.053435,4.366412,-1.671756,1.063939,5.106556,191,316,125,191,1,50.36,16,load
1780594086.9768,2.3675231999950483,2544,0.04126,-0.020752,1.058106,1.625954,3.099237,-0.847328,1.059113,3.600966,194,321,127,194,0,50.36,0,load
1780594087.0066836,2.397406799995224,2575,0.032227,-0.005371,1.078125,1.656489,2.167939,-0.954198,1.07862,2.890399,195,323,128,195,0,50.36,7,load
1780594087.0375407,2.4282640000019455,2605,0.001465,-0.014404,1.064941,2.053435,1.954198,-3.038168,1.06504,4.155232,196,326,130,196,1,50.36,17,load
1780594087.0697544,2.4604776999913156,2636,0.086182,-0.030029,1.060303,3.053435,3.862595,-2.641221,1.064223,5.58741,197,328,131,197,1,50.36,15,load
1780594087.1007814,2.4915046999958577,2668,0.135986,-0.02124,1.043701,3.290076,6.648855,-3.580153,1.052737,8.237073,199,331,132,199,0,50.36,8,load
1780594087.1313868,2.5221099000045797,2699,0.068359,-0.029785,1.056885,1.343511,6.312978,-1.938931,1.059512,6.7393,200,333,133,200,0,50.36,8,load
1780594087.162108,2.552831099994364,2729,0.084229,-0.057373,1.031738,2.129771,5.396946,-1.022901,1.036759,5.891458,201,335,134,201,0,46.763,6,load
1780594087.194488,2.5852111999993213,2761,-0.022705,-0.026123,1.047119,1.954198,5.854962,-2.030534,1.047691,6.497888,202,338,136,202,1,46.763,20,load
1780594087.2264373,2.6171604999981355,2793,0.017334,-0.056885,1.074463,1.427481,1.717557,0.335878,1.076107,2.258433,203,340,137,203,1,46.763,16,load
1780594087.2567825,2.647505699991598,2824,-0.029297,0.046143,1.063232,1.633588,1.900763,-3.908397,1.064636,4.64296,205,343,138,205,0,46.763,8,load
1780594087.2880743,2.678797400003532,2855,0.01709,-0.075684,1.048096,1.832061,2.496183,-0.78626,1.050964,3.194618,206,345,139,206,0,46.763,9,load
1780594087.320166,2.7108893999975407,2887,0.028076,0.049316,1.041504,2.167939,2.465649,-2.496183,1.043049,4.124356,207,347,140,207,0,46.763,9,load
1780594087.3507648,2.7414878999989014,2918,0.011719,-0.04126,1.038818,3.877863,1.89313,-2.923664,1.039703,5.212444,208,349,141,208,0,46.763,10,load
1780594087.38237,2.773093299998436,2950,0.011719,0.007568,1.05542,1.923664,2.099237,-3.053435,1.055512,4.175014,208,350,142,208,0,46.763,23,load
1780594087.4140048,2.8047280000027968,2981,0.104736,-0.020508,1.057129,-0.870229,4.259542,2.129771,1.062503,4.84117,209,352,143,209,1,31.746,15,load
1780594087.4450045,2.8357276000024285,3012,0.062744,-0.05835,1.047607,1.671756,2.618321,-0.740458,1.051106,3.193532,210,354,144,210,1,31.746,15,load
1780594087.4758065,2.8665297999978065,3043,-0.044922,-0.05127,1.049316,1.564886,1.389313,-1.061069,1.051528,2.346258,211,356,145,211,1,31.746,15,load
1780594087.5070992,2.8978223000012804,3074,0.045654,-0.085693,1.066406,2.450382,3.19084,-0.19084,1.070818,4.027685,212,358,146,212,1,31.746,16,load
1780594087.53842,2.9291433000034885,3105,0.025146,0.02417,1.037842,2.358779,1.801527,-5.51145,1.038428,6.259826,213,360,147,213,1,31.746,14,load
1780594087.5704894,2.9612125999992713,3137,0.089111,-0.013916,1.04834,1.114504,4.534352,0.946565,1.052212,4.764288,215,363,148,215,0,31.746,9,load
1780594087.6014347,2.992157999993651,3168,0.06543,-0.039551,1.067383,3.335878,2.679389,-5.694656,1.070118,7.122944,216,365,149,216,0,31.746,9,load
1780594087.631664,3.0223872999922605,3199,0.060303,-0.101074,1.040772,2.458015,4.870229,-2.320611,1.047405,5.928424,217,367,150,217,0,31.746,9,load
1780594087.662107,3.0528303000028245,3230,-0.000244,0.054932,1.046875,1.603053,2.282443,-4.473282,1.048315,5.271582,218,369,151,218,0,31.746,10,load
1780594087.6936233,3.0843464999925345,3261,0.053223,-0.078613,1.060791,0.038168,4.244274,0.274809,1.065031,4.253333,218,370,152,218,1,32.143,24,load
1780594087.7242403,3.114963500003796,3292,0.057129,-0.000977,1.063965,0.557252,3.290076,-1.694656,1.065498,3.742592,219,372,153,219,1,32.143,21,load
1780594087.7563934,3.1471166999981506,3323,0.056641,0.056885,1.068359,0.458015,3.061069,-1.152672,1.071371,3.302813,220,373,153,220,0,32.143,12,load
1780594087.7863703,3.1770933999941917,3354,0.041504,-0.095459,1.050781,0.351145,3.541985,-1.206107,1.055924,3.758145,221,375,154,221,0,32.143,13,load
1780594087.837128,3.2278511000040453,3386,0.053955,0.034424,1.058838,2.396947,3.366412,-0.419847,1.06077,4.153836,221,376,155,221,1,32.143,36,load
1780594087.8490622,3.2397855000017444,3417,0.040527,0.010254,1.055176,2.59542,3.274809,-0.801527,1.056004,4.254765,222,377,155,222,0,32.143,15,load
1780594087.8807669,3.271489999999176,3448,0.05127,-0.066162,1.059326,1.053435,3.183206,-1.015267,1.062628,3.503326,222,378,156,222,1,32.143,42,load
1780594087.9107897,3.3015128999977605,3479,0.047119,0.001709,1.050049,2.396947,3.664122,-0.282443,1.051107,4.387587,223,379,156,223,0,32.143,17,load
1780594087.9431703,3.333893499991973,3510,0.034424,0.036621,1.062012,3.755725,2.068702,-2.374046,1.0632,4.901132,224,381,157,224,0,32.143,15,load
1780594087.9748256,3.3655488999938825,3542,0.053223,-0.010254,1.049561,2.885496,2.793893,-1.076336,1.050959,4.158176,224,381,157,224,0,21.352,15,load
1780594088.0058472,3.3965704000002006,3573,0.099121,-0.124756,1.054932,-1.137405,5.076336,1.923664,1.066897,5.546472,225,383,158,225,0,21.352,5,load
1780594088.0368311,3.4275542999967,3604,-0.029297,0.122803,1.065674,1.015267,0.465649,-3.312977,1.073126,3.4962,226,385,159,226,0,21.352,10,load
1780594088.0680377,3.458760900000925,3635,0.141846,0.096191,1.048096,2.358779,5.175572,-2.549618,1.062016,6.233052,227,387,160,227,0,21.352,9,load
1780594088.0992644,3.489987499997369,3666,-0.017822,-0.01416,1.073486,1.89313,3.816794,-3.343511,1.073728,5.415804,228,389,161,228,0,21.352,9,load
1780594088.130581,3.5213040999951772,3697,-0.032227,0.058105,1.046631,3.198473,0.137405,-4.748092,1.048738,5.72656,229,391,162,229,0,21.352,9,load
1780594088.163213,3.5539362999988953,3729,0.084717,0.060059,1.104736,1.351145,1.633588,-2.854962,1.109606,3.555982,230,393,163,230,0,21.352,9,load
1780594088.193175,3.5838982999994187,3760,0.036865,-0.093262,1.071533,2.687023,2.946565,-1.633588,1.076216,4.309402,231,395,164,231,0,21.352,10,load
1780594088.2242153,3.614938400001847,3791,0.008301,-0.137207,1.041748,2.068702,3.80916,-1.40458,1.050778,4.556542,232,397,165,232,0,21.352,12,load
1780594088.255034,3.64575729999342,3822,0.057861,0.006836,1.065918,1.122137,3.610687,-0.541985,1.067509,3.819686,232,397,165,232,0,28.571,12,load
1780594088.2849348,3.6756579999928363,3853,0.065674,0.059082,1.06543,2.328244,3.29771,-0.938931,1.069086,4.144539,233,399,166,233,0,28.571,7,load
1780594088.3175423,3.708265499997651,3884,0.049072,-0.071777,1.053467,0.480916,3.755725,0.381679,1.057049,3.805579,233,400,167,233,1,28.571,42,load
1780594088.3478692,3.738592499998049,3915,0.04834,0.001221,1.063721,1.633588,3.671756,-0.534351,1.064819,4.054126,234,401,167,234,0,28.571,17,load
1780594088.379435,3.7701584000024013,3946,0.038086,-0.035889,1.058594,0.083969,3.282443,0.198473,1.059886,3.28951,234,401,167,234,0,28.571,17,load
1780594088.4101522,3.800875500004622,3977,0.047607,0.048584,1.05249,2.603053,3.068702,-0.854962,1.054686,4.113852,235,403,168,235,0,28.571,10,load
1780594088.4417489,3.832472099995357,4008,0.028564,0.053711,1.059082,2.496183,2.709924,-0.022901,1.060828,3.684446,235,403,168,235,0,28.571,10,load
1780594088.4729729,3.863696100001107,4040,0.036133,-0.046143,1.049316,2.854962,0.961832,-1.687023,1.050952,3.452821,236,405,169,236,0,28.571,9,load
1780594088.5042262,3.894949399997131,4072,0.065674,-0.17041,1.022949,1.717557,3.671756,-0.770992,1.039124,4.126284,236,406,170,236,1,16.0,36,load
1780594088.5352154,3.9259386000048835,4103,-0.029541,-0.123047,1.06958,1.374046,1.305344,0.648855,1.07704,2.003232,237,407,170,237,0,16.0,18,load
1780594088.5671678,3.9578910999989603,4134,0.092041,-0.151611,1.028076,0.389313,2.679389,0.29771,1.043263,2.723843,238,409,171,238,0,16.0,3,load
1780594088.5986865,3.9894097999931546,4166,0.074707,-0.019287,1.074219,2.496183,3.274809,0.839695,1.076986,4.202427,239,411,172,239,0,16.0,8,load
1780594088.629733,4.020456400001422,4197,0.039062,-0.000732,1.042969,4.343512,3.045802,-3.862595,1.0437,6.562214,240,413,173,240,0,16.0,11,load
1780594088.6604755,4.051198699991801,4228,0.044678,-0.11084,1.044922,0.412214,4.10687,-1.099237,1.051734,4.271372,240,414,174,240,1,16.0,28,load
1780594088.6907175,4.081440800000564,4258,0.027832,0.042236,1.079346,0.549618,1.389313,-1.977099,1.08053,2.478143,241,416,175,241,1,16.0,21,load
1780594088.7220166,4.112739899996086,4290,0.084961,0.060547,1.068115,2.480916,4.374046,-0.259542,1.073198,5.035333,242,417,175,242,0,16.0,12,load
1780594088.7528791,4.143602399999509,4320,0.036133,-0.011963,1.0354,2.290076,3.572519,-2.221374,1.0361,4.789764,243,419,176,243,0,16.0,14,load
1780594088.7836483,4.174371599990991,4351,0.026123,-0.085938,1.049561,2.29771,3.236641,-0.839695,1.053397,4.057143,243,420,177,243,1,25.09,34,load
1780594088.8149567,4.205679799997597,4382,0.063965,0.05542,1.068848,3.015267,2.358779,-0.007634,1.072193,3.82828,244,421,177,244,0,25.09,13,load
1780594088.8456657,4.236388999997871,4413,0.002197,-0.033203,1.062012,1.664122,0.48855,-3.832061,1.062533,4.206266,245,423,178,245,0,25.09,12,load
1780594088.878471,4.269194099993911,4444,0.060303,0.161865,1.083252,1.21374,3.984733,1.374046,1.096937,4.386258,245,424,179,245,1,25.09,30,load
1780594088.9071848,4.297908099993947,4475,0.005371,0.094727,1.07373,3.51145,0.969466,-3.412214,1.077914,4.991328,246,425,179,246,0,25.09,16,load
1780594088.9384828,4.329205899994122,4506,0.018066,0.087646,1.01416,1.610687,3.48855,-1.007634,1.018101,3.972356,247,427,180,247,0,25.09,6,load
1780594088.9702485,4.36097169999266,4537,0.072021,0.025879,1.087402,3.290076,2.061069,-2.916031,1.090092,4.855496,248,429,181,248,0,25.09,12,load
1780594089.0006037,4.39132690000406,4568,0.03833,0.023193,1.079102,-0.442748,3.244275,1.679389,1.080031,3.679904,248,430,182,248,1,25.09,30,load
1780594089.0319524,4.422675599998911,4599,-0.018555,-0.017822,1.049561,1.603053,4.038168,0.778626,1.049876,4.413937,249,431,182,249,0,25.09,15,load
1780594089.0636044,4.454327500003274,4631,0.049316,-0.011475,1.050781,2.793893,4.549618,-1.900763,1.052,5.667254,250,433,183,250,0,25.0,15,load
1780594089.095258,4.4859811999922385,4662,0.016357,-0.073486,1.048828,0.694656,4.312978,-0.160305,1.051527,4.371501,250,433,183,250,0,25.0,15,load
1780594089.1263986,4.517121700002463,4694,0.039062,0.003906,1.05127,2.603053,3.015267,-0.847328,1.052002,4.072553,251,435,184,251,0,25.0,17,load
1780594089.1576538,4.548376999999164,4725,0.035156,-0.006104,1.050781,1.641221,3.526718,0.038168,1.051387,3.89009,251,435,184,251,0,25.0,17,load
1780594089.1892822,4.58000549999997,4756,0.05127,-0.04126,1.048828,1.282443,3.664122,-0.053435,1.050891,3.882436,251,436,185,251,1,25.0,58,load
1780594089.2200782,4.610801499991794,4787,0.046143,-0.016602,1.053223,1.824428,3.366412,-1.862595,1.054364,4.257996,252,437,185,252,0,25.0,24,load
1780594089.2503555,4.641078799992101,4818,0.037598,-0.088867,1.049805,1.625954,3.274809,-0.51145,1.05423,3.69184,252,437,185,252,0,25.0,24,load
1780594089.2804165,4.67113970000355,4848,0.057373,0.048096,1.064453,1.816794,2.801527,-0.045802,1.067083,3.33937,252,438,186,252,1,25.0,70,load
1780594089.3116758,4.702399000001606,4879,0.026123,0.063965,1.062256,2.389313,3.526718,-1.526718,1.0645,4.525198,253,439,186,253,0,25.0,24,load
1780594089.343491,4.734214399999473,4910,0.041992,-0.03833,1.050049,0.21374,3.679389,-0.183206,1.051587,3.690143,253,439,186,253,0,10.753,24,load
1780594089.375162,4.765885100001469,4942,0.053223,-0.086426,1.061768,0.885496,3.167939,-0.687023,1.066608,3.360348,253,440,187,253,1,10.753,59,load
1780594089.4063573,4.797080599993933,4973,0.035156,-0.118896,1.042236,1.274809,3.053435,-1.129771,1.049585,3.496425,254,441,187,254,0,10.753,28,load
1780594089.4369075,4.827630700005102,5004,0.124756,-0.138672,1.068359,1.709924,4.580152,-1.740458,1.084521,5.189492,254,442,188,254,1,10.753,38,load
1780594089.467383,4.858106100000441,5035,0.056641,-0.000488,1.05835,0.801527,4.290076,1.396947,1.059864,4.58243,255,443,188,255,0,10.753,23,load
1780594089.499553,4.890276299993275,5066,0.036377,-0.059814,1.047852,0.870229,3.534351,-2.198473,1.050188,4.25232,256,445,189,256,0,10.753,15,load
1780594089.5289552,4.9196783999941545,5097,0.049072,-0.002441,1.054443,2.076336,3.664122,0.351145,1.055587,4.22614,256,445,189,256,0,10.753,15,load
1780594089.5611506,4.951873700003489,5128,0.011719,-0.010254,1.030273,-0.053435,3.709924,-0.465649,1.030391,3.739414,257,447,190,257,0,10.753,18,load
1780594089.5934772,4.984200399994734,5159,0.04834,-0.036621,1.052246,0.534351,4.282442,0.40458,1.053992,4.334574,257,447,190,257,0,10.753,18,load
1780594089.6237168,5.014440099999774,5191,0.061035,-0.025391,1.064697,0.824427,3.679389,-1.160305,1.066747,3.94511,257,448,191,257,1,14.235,50,load
1780594089.6556334,5.046356699996977,5222,0.040039,-0.018555,1.046631,0.259542,4.129771,-0.335878,1.047561,4.151528,258,449,191,258,0,14.235,26,load
1780594089.6858144,5.076537600005395,5253,0.068604,0.038086,1.074219,0.335878,4.091603,0.709924,1.077081,4.166296,258,449,191,258,0,14.235,26,load
1780594089.716066,5.106789199999184,5284,0.054443,0.015381,1.055908,1.29771,3.160305,-1.236641,1.057423,3.633299,259,451,192,259,0,14.235,16,load
1780594089.746414,5.137137199999415,5314,0.053223,-0.015137,1.054443,1.19084,3.076336,-0.251908,1.055894,3.308383,259,451,192,259,0,14.235,16,load
1780594089.779057,5.169780199998058,5345,0.049561,0.043945,1.059814,0.862595,3.473282,0.236641,1.061882,3.586608,259,451,192,259,0,14.235,16,load
1780594089.810252,5.200975100000505,5377,0.040527,-0.013184,1.046875,1.358779,3.038168,-1.801527,1.047742,3.784474,260,455,195,260,0,14.235,16,load
1780594089.8414657,5.232188900001347,5408,0.039062,-0.051025,1.041748,1.221374,3.152672,-0.389313,1.043728,3.40333,260,455,195,260,0,14.235,16,load
1780594089.8711424,5.261865499996929,5439,0.06665,0.007568,1.058594,0.725191,3.389313,-0.320611,1.060717,3.480824,260,455,195,260,0,14.235,16,load
1780594089.9029891,5.293712400001823,5470,0.025146,-0.070557,1.049316,1.229008,2.473282,-2.450382,1.051986,3.692148,261,457,196,261,0,14.337,17,load
1780594089.9341247,5.32484800000384,5501,0.051025,-0.002197,1.071777,2.427481,2.954198,-1.351145,1.072994,4.055311,261,457,196,261,0,14.337,17,load
1780594089.9708374,5.361560699995607,5532,0.034668,-0.023193,1.049316,0.587786,3.274809,-0.358779,1.050145,3.346429,261,458,197,261,1,14.337,63,load
1780594090.0222998,5.4130231000017375,5569,0.081787,-0.034424,1.050293,1.732824,4.244274,-0.465649,1.054035,4.607969,262,459,197,262,0,14.337,22,load
1780594090.0327022,5.423425500004669,5600,0.052246,-0.037598,1.048584,1.290076,4.259542,0.961832,1.050558,4.553364,262,459,197,262,0,14.337,22,load
1780594090.0642102,5.4549335000046995,5631,0.043701,0.054932,1.05127,2.816794,2.748092,-2.343511,1.05361,4.580216,263,461,198,263,0,14.337,16,load
1780594090.0962527,5.486975899999379,5663,0.043701,-0.026367,1.054688,0.496183,4.167938,0.076336,1.055922,4.198064,263,461,198,263,0,14.337,16,load
1780594090.1262693,5.516992499993648,5694,0.035889,0.082764,1.058594,3.40458,2.458015,-2.664122,1.06243,4.972982,264,463,199,264,0,14.337,18,load
1780594090.1572664,5.547989500002586,5724,0.067383,-0.066162,1.041016,-0.236641,4.343512,-0.770992,1.04529,4.417751,264,463,199,264,0,11.811,18,load
1780594090.18774,5.578463300000294,5755,0.067627,0.047607,1.0625,3.206107,2.564885,-2.114504,1.065714,4.61832,264,464,200,264,1,11.811,49,load
1780594090.2181416,5.608864699999685,5785,0.038574,-0.102051,1.049805,0.862595,3.931298,-1.015267,1.055458,4.150896,265,465,200,265,0,11.811,22,load
1780594090.2499056,5.640628900000593,5817,0.037354,-0.020996,1.044434,1.80916,3.045802,-0.748092,1.045312,3.62072,265,466,201,265,1,11.811,47,load
1780594090.2809114,5.671634700003779,5848,0.036377,0.066162,1.050049,1.877863,3.969466,-0.274809,1.05276,4.399834,266,467,201,266,0,11.811,19,load
1780594090.3128467,5.703569999997853,5879,0.062744,-0.071533,1.05127,1.122137,3.938931,-0.335878,1.055567,4.109402,266,467,201,266,0,11.811,19,load
1780594090.3433037,5.734026899997843,5911,0.014648,-0.018066,1.037598,1.21374,2.0,-3.167939,1.037858,3.938147,267,469,202,267,0,11.811,13,load
1780594090.3758137,5.766537000003154,5942,0.044189,-0.04126,1.070801,0.198473,3.977099,0.053435,1.072506,3.982407,267,469,202,267,0,11.811,13,load
1780594090.4065542,5.7972774999943795,5974,0.030273,-0.062988,1.056152,0.854962,2.419847,-2.549618,1.058462,3.61762,267,470,203,267,1,12.0,54,load
1780594090.438543,5.829266200002166,6005,0.039551,-0.035889,1.047119,-0.022901,3.022901,-0.251908,1.04848,3.033465,268,471,203,268,0,12.0,27,load
1780594090.4691856,5.859908900005394,6036,0.052246,-0.047363,1.062012,0.908397,3.603053,-0.931298,1.06435,3.83073,268,472,204,268,1,12.0,49,load
1780594090.499947,5.890670199994929,6067,0.031738,-0.078857,1.033936,2.068702,1.717557,-1.877863,1.037424,3.279619,269,473,204,269,0,12.0,21,load
1780594090.531375,5.922098099996219,6098,0.059326,-0.062012,1.049072,0.70229,3.656489,0.351145,1.052577,3.739843,269,473,204,269,0,12.0,21,load
1780594090.563352,5.954075300003751,6130,0.033203,0.0271,1.068115,3.083969,1.526718,-3.564885,1.068975,4.95481,270,475,205,270,0,12.0,21,load
1780594090.5936773,5.984400500004995,6161,0.029785,0.074707,1.037354,1.717557,3.267176,-0.801527,1.040467,3.777153,270,475,205,270,0,12.0,21,load
1780594090.6253138,6.016036999993958,6192,0.050781,0.067871,1.065186,2.740458,3.396947,-1.328244,1.068553,4.562192,270,476,206,270,1,12.0,56,load
1780594090.6554422,6.0461654999962775,6223,0.037598,-0.019531,1.043213,0.335878,1.984733,-2.10687,1.044073,2.913912,271,477,206,271,0,12.0,21,load
1780594090.6865802,6.077303400001256,6254,0.039307,-0.023193,1.037842,0.328244,4.10687,0.396947,1.038845,4.139045,271,477,206,271,0,14.286,21,load
1780594090.7174706,6.108193799998844,6285,0.027588,-0.020264,1.054688,1.900763,1.59542,-3.259542,1.055243,4.096691,272,479,207,272,0,14.286,18,load
1780594090.749217,6.139940299995942,6316,0.023438,-0.068115,1.04541,2.312977,2.534351,-0.381679,1.047889,3.452315,272,479,207,272,0,14.286,18,load
1780594090.7804968,6.171220100004575,6348,0.041016,0.071289,1.046875,3.221374,2.832061,-0.984733,1.050101,4.400854,272,480,208,272,1,14.286,53,load
1780594090.813022,6.203745099992375,6379,0.056641,0.037109,1.084228,0.748092,4.129771,-0.40458,1.086341,4.216436,273,481,208,273,0,14.286,23,load
1780594090.8437183,6.234441399996285,6411,0.041504,-0.084961,1.053711,0.946565,3.236641,-0.160305,1.057945,3.376023,273,482,209,273,1,14.286,50,load
1780594090.8739445,6.2646678000019165,6442,0.009766,-0.035645,1.035156,1.114504,2.206107,-2.580153,1.035816,3.572984,274,483,209,274,0,14.286,20,load
1780594090.904936,6.29565939999884,6472,0.06665,-0.063965,1.051025,0.908397,4.08397,0.038168,1.055077,4.183952,274,483,209,274,0,14.286,20,load
1780594090.936574,6.327297199997702,6503,0.015381,-0.097412,1.045898,2.839695,1.641221,-3.412214,1.050538,4.732936,275,485,210,275,0,14.286,20,load
1780594090.967838,6.358561300003203,6534,0.013428,-0.04541,1.043457,0.435114,3.244275,-1.068702,1.044531,3.443366,275,485,210,275,0,14.286,20,load
1780594090.997487,6.38821019999159,6565,0.02002,-0.058594,1.039062,2.198473,3.274809,-1.305344,1.040906,4.154706,275,486,211,275,1,14.286,52,load
1780594091.03026,6.42098339999211,6596,0.057861,0.046875,1.080078,1.305344,4.282442,-0.389313,1.082642,4.493862,276,487,211,276,0,14.286,21,load
1780594091.0705104,6.461233599999105,6627,0.033447,-0.022949,1.049072,0.305344,3.801527,-0.076336,1.049856,3.814534,276,488,212,276,1,14.286,49,load
1780594091.0910068,6.481730100000277,6658,0.057129,-0.072021,1.049072,0.603053,3.847328,-0.633588,1.053092,3.945509,277,489,212,277,0,14.286,19,load
1780594091.1223323,6.513055599993095,6689,0.050537,-0.079834,1.070801,0.946565,3.137405,0.152672,1.074961,3.280641,277,489,212,277,0,14.286,19,load
1780594091.1519985,6.5427216999960365,6720,0.051758,-0.038818,1.0625,1.099237,2.908397,-1.206107,1.064468,3.334934,278,491,213,278,0,14.286,13,load
1780594091.184525,6.575248199995258,6751,0.048096,0.066162,1.057617,1.198473,3.587786,0.137405,1.060776,3.785159,278,491,213,278,0,14.286,13,load
1780594091.214918,6.605641200003447,6782,0.025879,-0.104492,1.045654,2.961832,1.80916,-3.419847,1.051181,4.87246,279,493,214,279,0,14.286,19,load
1780594091.2460575,6.636780699991505,6813,0.018311,-0.038574,1.034912,0.59542,3.374046,-0.534351,1.035793,3.467599,279,493,214,279,0,14.337,19,load
1780594091.2780051,6.668728299991926,6845,0.03418,0.081055,1.051514,2.824427,3.015267,-2.343511,1.055187,4.749871,279,494,215,279,1,14.337,51,load
1780594091.3088713,6.699594399993657,6876,0.042236,-0.079102,1.049316,0.221374,4.08397,-0.366412,1.053141,4.106346,280,495,215,280,0,14.337,23,load
1780594091.33909,6.729813400001149,6907,0.052979,0.004395,1.054443,1.885496,3.145038,0.167939,1.055783,3.670772,280,496,216,280,1,14.337,47,load
1780594091.370883,6.761606200001552,6938,0.068115,0.002441,1.063477,1.412214,3.030534,-1.320611,1.065658,3.594788,281,497,216,281,0,14.337,18,load
1780594091.4030461,6.793769399999292,6969,0.05127,0.041748,1.063477,2.19084,3.778626,-0.51145,1.06553,4.397656,281,498,217,281,1,14.337,50,load
1780594091.4337294,6.824452699991525,7001,0.011475,-0.066895,1.036377,1.618321,2.557252,-1.412214,1.038597,3.339588,282,499,217,282,0,14.337,18,load
1780594091.4658265,6.856549799995264,7032,0.027588,-0.050537,1.059326,0.687023,3.129771,-0.351145,1.06089,3.223472,282,499,217,282,0,14.337,18,load
1780594091.4974184,6.888141599993105,7064,0.050293,-0.039307,1.054443,1.725191,2.679389,-1.08397,1.056374,3.366066,283,501,218,283,0,15.936,12,load
1780594091.529294,6.920017199998256,7096,0.061768,-0.051025,1.042725,0.183206,4.145038,0.641221,1.045798,4.198342,283,501,218,283,0,15.936,12,load
1780594091.5602987,6.951021799992304,7127,0.075928,0.00415,1.068848,2.618321,3.068702,-1.068702,1.071549,4.173088,284,503,219,284,0,15.936,16,load
1780594091.591714,6.982437200000277,7158,0.038574,-0.091553,1.048584,1.366412,3.969466,-0.961832,1.05328,4.306839,284,503,219,284,0,15.936,16,load
1780594091.6225975,7.013320800004294,7189,0.024902,-0.057373,1.051514,2.717557,2.534351,-2.305344,1.053372,4.372947,284,504,220,284,1,15.936,51,load
1780594091.653867,7.044590199991944,7220,0.050293,-0.071533,1.062744,1.061069,1.931298,-0.534351,1.066335,2.267445,285,505,220,285,0,15.936,25,load
1780594091.684222,7.0749451000010595,7251,0.028564,-0.09668,1.066406,2.305344,2.854962,-1.877863,1.071161,4.122109,285,506,221,285,1,15.936,51,load
1780594091.7142565,7.104979700001422,7282,0.028564,0.004395,1.040283,2.793893,2.053435,-2.89313,1.040684,4.51582,286,507,221,286,0,15.936,21,load
1780594091.7472732,7.137996399993426,7313,0.029541,-0.076904,1.072266,0.946565,3.290076,0.480916,1.075426,3.457147,286,507,221,286,0,15.936,21,load
1780594091.7774355,7.1681586999911815,7344,0.049805,-0.064941,1.054199,0.801527,3.778626,-0.29771,1.057371,3.874157,286,508,222,286,1,10.714,61,load
1780594091.8083112,7.1990344999940135,7375,0.028076,0.033203,1.047852,2.961832,2.183206,-1.854962,1.048753,4.120646,287,509,222,287,0,10.714,22,load
1780594091.8398268,7.230549999992945,7406,0.052002,-0.002441,1.076172,0.480916,4.198474,0.091603,1.07743,4.22692,287,509,222,287,0,10.714,22,load
1780594091.8706903,7.261413500003982,7437,0.02832,-0.080811,1.056641,1.549618,3.396947,-0.78626,1.060105,3.815595,287,510,223,287,1,10.714,67,load
1780594091.903331,7.294054199999664,7469,0.031494,-0.016113,1.050293,1.442748,1.610687,-0.526718,1.050889,2.225593,288,511,223,288,0,10.714,27,load
1780594091.9341826,7.32490589999361,7501,0.025879,-0.02124,1.060303,1.145038,1.862595,-1.503817,1.060831,2.653646,288,511,223,288,0,10.714,27,load
1780594091.966572,7.357295299996622,7533,0.04541,0.037354,1.053955,3.450382,1.198473,-3.061069,1.055594,4.76567,289,513,224,289,0,10.714,11,load
1780594091.9970882,7.387811399996281,7564,-0.029785,-0.141602,1.035156,0.633588,1.282443,-4.885496,1.045221,5.090596,289,514,225,289,1,10.714,37,load
1780594092.0300665,7.42078980000224,7596,0.034912,-0.037842,1.056885,1.618321,2.465649,-2.312977,1.058138,3.748099,290,516,226,290,1,15.873,22,load
1780594092.0606468,7.451369999995222,7627,0.092041,-0.026367,1.047363,1.51145,1.954198,-0.526718,1.05173,2.526026,293,520,227,293,1,15.873,17,load
1780594092.0911164,7.4818397000053665,7658,0.039307,-0.0271,1.057373,2.435115,3.541985,-0.610687,1.05845,4.341472,295,523,228,295,0,15.873,8,load
1780594092.1219177,7.5126409999938915,7689,0.042236,-0.015381,1.058838,0.908397,3.351145,-0.40458,1.059792,3.495575,296,525,229,296,0,15.873,8,load
1780594092.1538603,7.544583499999135,7720,0.041504,-0.018066,1.044189,1.557252,3.045802,-0.465649,1.04517,3.452357,297,527,230,297,0,15.873,7,load
1780594092.1834383,7.574161600001389,7751,0.06665,-0.03125,1.059326,2.114504,3.801527,-0.916031,1.061881,4.44543,300,531,231,300,0,15.873,6,load
1780594092.2151031,7.605826400002115,7781,0.045898,-0.020996,1.062012,1.061069,3.671756,-0.687023,1.06321,3.883254,301,533,232,301,0,15.873,7,load
1780594092.2457693,7.636492599995108,7813,0.061035,-0.006104,1.060303,1.931298,3.244275,-0.992366,1.062076,3.903847,302,536,234,302,1,15.873,16,load
1780594092.2778087,7.668531899995287,7844,0.030762,-0.025635,1.060547,1.587786,2.755725,-1.091603,1.061303,3.362541,305,541,236,305,0,15.873,0,load
1780594092.3084462,7.6991694000025745,7876,0.036133,-0.029297,1.050537,1.671756,2.80916,-1.022901,1.051566,3.42527,306,543,237,306,0,57.143,7,load
1780594092.340622,7.731345099993632,7907,0.054443,-0.037598,1.05127,1.763359,3.427481,-1.358779,1.05335,4.086972,307,546,239,307,1,57.143,16,load
1780594092.3726876,7.763410700004897,7939,0.056152,-0.017578,1.064697,1.10687,3.78626,-0.687023,1.066322,4.004114,309,549,240,309,0,57.143,7,load
1780594092.404648,7.795371400003205,7971,0.033447,-0.035889,1.051514,1.900763,2.854962,-1.038168,1.052658,3.583504,310,552,242,310,1,57.143,16,load
1780594092.4351914,7.82591460000549,8002,0.03418,0.000732,1.067139,1.061069,3.175573,-1.465649,1.067686,3.654895,312,555,243,312,0,57.143,6,load
1780594092.4656224,7.856345599997439,8033,0.031982,-0.026367,1.04541,1.557252,3.091603,-1.015267,1.046232,3.607466,314,559,245,314,0,57.143,0,load
1780594092.4982703,7.888993400003528,8064,0.054199,-0.036621,1.05127,1.89313,3.763359,-0.870229,1.053302,4.30164,316,562,246,316,1,57.143,15,load
1780594092.5287354,7.9194586999947205,8095,0.049072,-0.022461,1.053955,0.80916,3.694656,-0.541985,1.055336,3.82086,319,567,248,319,0,57.143,1,load
1780594092.5597548,7.9504780999996,8126,0.050049,-0.029053,1.060059,1.885496,3.274809,-0.862595,1.061637,3.876021,320,570,250,320,1,56.0,16,load
1780594092.589163,7.979886200002511,8157,0.037598,-0.012939,1.049805,1.480916,2.48855,-1.10687,1.050557,3.100186,322,573,251,322,0,56.0,7,load
1780594092.6214998,8.012222899997141,8188,0.034912,-0.029053,1.062744,1.351145,3.21374,-1.015267,1.063714,3.631045,323,575,252,323,0,56.0,6,load
1780594092.6524456,8.043168799995328,8219,0.052002,-0.031006,1.052978,2.145038,2.931298,-1.183206,1.054718,3.820166,324,578,254,324,1,56.0,16,load
1780594092.6827712,8.073494399999618,8250,0.057617,0.000732,1.062988,1.580153,3.114504,-1.320611,1.064549,3.733769,329,585,256,329,0,56.0,0,load
1780594092.7136655,8.104388599997037,8280,0.038574,-0.024414,1.057373,1.465649,3.045802,-1.152672,1.058358,3.57123,331,589,258,331,0,56.0,1,load
1780594092.74384,8.1345633000019,8311,0.050293,-0.03833,1.052734,2.10687,3.137405,-0.938931,1.054632,3.894073,334,593,259,334,0,56.0,7,load
1780594092.7750628,8.165786099998513,8342,0.045654,-0.017578,1.05957,1.198473,3.229008,-0.89313,1.060699,3.558161,335,595,260,335,0,56.0,6,load
1780594092.8064148,8.19713810000394,8373,0.046875,-0.003906,1.053223,1.519084,2.946565,-0.900763,1.054272,3.435293,336,598,262,336,1,56.0,17,load
1780594092.8373766,8.228099799991469,8404,0.022217,-0.025391,1.041748,1.48855,2.854962,-1.122137,1.042294,3.40966,339,603,264,339,0,68.345,1,load
1780594092.8696527,8.260375900004874,8436,0.043945,-0.031738,1.057861,1.603053,2.664122,-0.793893,1.059249,3.208986,341,607,266,341,0,68.345,1,load
1780594092.9006712,8.2913944000029,8467,0.038574,-0.02832,1.047607,2.152672,3.320611,-1.08397,1.0487,4.103101,344,612,268,344,1,68.345,13,load
1780594092.9314845,8.322207699995488,8498,0.036133,-0.019775,1.05249,0.717557,3.068702,-1.557252,1.053296,3.515232,346,615,269,346,0,68.345,6,load
1780594092.9623644,8.353087600000435,8529,0.052979,-0.040527,1.061279,2.022901,3.022901,-1.114504,1.063373,3.804231,347,618,271,347,1,68.345,16,load
1780594093.005626,8.396349100003135,8561,0.029053,-0.020996,1.0625,1.793893,2.656489,-1.167939,1.063104,3.411608,349,621,272,349,0,68.345,6,load
1780594093.0258605,8.416583800004446,8592,0.034912,-0.031982,1.053223,1.671756,3.137405,-0.80916,1.054286,3.645932,350,623,273,350,0,68.345,6,load
1780594093.0557487,8.446471899995231,8623,0.054199,-0.018555,1.054688,2.641221,3.412214,-0.938931,1.056242,4.415976,353,628,275,353,1,68.345,13,load
1780594093.086795,8.477518400002737,8654,0.053955,-0.004395,1.05249,1.450382,2.648855,-0.847328,1.053881,3.13656,358,635,277,358,0,76.0,0,load
1780594093.1193774,8.510100700004841,8685,0.042236,-0.019043,1.064453,0.679389,3.396947,-1.572519,1.065461,3.804423,359,638,279,359,1,76.0,16,load
1780594093.1495914,8.540314600002603,8716,0.060059,-0.038818,1.05835,3.114504,2.992366,-0.503817,1.060763,4.348358,361,641,280,361,0,76.0,6,load
1780594093.1797261,8.570449299993925,8747,0.061523,0.003174,1.050537,0.244275,3.687023,-0.78626,1.052342,3.777832,362,643,281,362,0,76.0,6,load
1780594093.2104135,8.601136700002826,8778,0.047607,-0.065186,1.056641,1.70229,2.793893,-1.465649,1.059719,3.584935,363,646,283,363,1,76.0,17,load
1780594093.2402413,8.63096460000088,8808,0.031006,-0.025146,1.050049,2.229008,2.900763,0.0,1.050807,3.658265,368,653,285,368,0,76.0,1,load
1780594093.272554,8.663277200001176,8839,0.041992,-0.008789,1.04834,-0.221374,3.335878,-1.534351,1.049217,3.678494,369,655,286,369,0,76.0,6,load
1780594093.3014827,8.692205999992439,8869,0.063232,-0.031006,1.05957,3.10687,3.0,-0.572519,1.061908,4.356652,371,658,287,371,1,76.0,16,load
1780594093.3320148,8.722738099997514,8900,0.053955,0.004883,1.048584,1.167939,2.824427,-0.687023,1.049983,3.132646,373,661,288,373,0,76.0,6,load
1780594093.3639324,8.75465560000157,8930,0.042725,-0.039795,1.056641,0.587786,2.526718,-1.725191,1.058253,3.115458,374,663,289,374,0,57.971,6,load
1780594093.3938732,8.784596500001498,8961,0.061768,-0.041016,1.064697,3.824427,3.40458,-0.145038,1.067276,5.122348,377,667,290,377,0,57.971,7,load
1780594093.4251552,8.81587849999778,8992,0.046387,0.027588,1.062744,0.183206,3.160305,-1.061069,1.064114,3.338706,381,673,292,381,0,57.971,0,load
1780594093.4565065,8.847229799997876,9023,0.053223,-0.041016,1.05249,2.206107,2.931298,-0.572519,1.054633,3.713111,383,678,295,383,1,57.971,14,load
1780594093.4878104,8.878533700000844,9054,0.03833,-0.014648,1.049072,1.839695,2.862595,-0.412214,1.049874,3.427659,387,683,296,387,0,57.971,6,load
1780594093.5188146,8.909537899991847,9085,0.030029,-0.029053,1.050537,0.030534,2.633588,-1.687023,1.051368,3.127741,388,685,297,388,0,57.971,6,load
1780594093.5495927,8.94031599999289,9116,0.046143,-0.027344,1.052002,3.984733,3.885496,-0.534351,1.053368,5.591128,391,689,298,391,0,57.971,6,load
1780594093.5808623,8.971585399995092,9148,0.033691,-0.012451,1.037842,-0.167939,3.305344,-1.244275,1.038463,3.535777,392,691,299,392,0,57.971,6,load
1780594093.611948,9.002671199996257,9179,0.046875,-0.057373,1.048584,2.709924,2.580153,-0.80916,1.051198,3.828266,394,696,302,394,1,57.971,13,load
1780594093.6421773,9.032900499994867,9210,0.03125,0.001709,1.04834,1.59542,2.748092,-0.557252,1.048807,3.226128,400,703,303,400,0,92.857,1,load
1780594093.6724954,9.063218600000255,9240,0.060303,0.001953,1.060303,-0.244275,3.51145,-1.908397,1.062018,4.00399,402,707,305,402,0,92.857,0,load
1780594093.7043903,9.095113599993056,9271,0.049072,-0.026855,1.049316,3.793893,3.305344,-0.679389,1.050806,5.07745,403,710,307,403,1,92.857,16,load
1780594093.7356632,9.126386399992043,9303,0.041016,0.004639,1.046875,-0.114504,3.068702,-1.282443,1.047688,3.327868,405,713,308,405,0,92.857,6,load
1780594093.7685373,9.159260600004927,9334,0.041992,-0.045654,1.062012,2.427481,2.465649,-1.435114,1.063822,3.745883,406,716,310,406,1,92.857,17,load
1780594093.7999797,9.190702899999451,9366,0.029053,-0.010498,1.05127,2.099237,2.732824,-0.70229,1.051723,3.516864,412,723,311,412,0,92.857,0,load
1780594093.8353825,9.226105699999607,9398,0.035645,-0.023193,1.055908,0.465649,2.641221,-1.358779,1.056764,3.006519,414,727,313,414,0,92.857,0,load
1780594093.8623378,9.253060999995796,9429,0.048096,-0.030518,1.050293,3.564885,4.045802,-0.671756,1.051836,5.433984,418,733,315,418,0,92.857,6,load
1780594093.8926694,9.283392700002878,9460,0.050537,-0.012695,1.045166,-0.19084,2.801527,-1.320611,1.046464,3.10306,419,735,316,419,0,76.0,6,load
1780594093.9242005,9.314923700003419,9491,0.050781,-0.041992,1.058594,2.244275,2.534351,-1.076336,1.060643,3.552211,420,738,318,420,1,76.0,17,load
1780594093.9547594,9.345482499993523,9522,0.039551,-0.024658,1.046143,2.267176,2.717557,-0.664122,1.04718,3.60087,422,741,319,422,0,76.0,6,load
1780594093.9855123,9.376235399991856,9553,0.040771,0.00708,1.067383,-0.099237,3.396947,-1.175572,1.068185,3.595979,424,745,321,424,0,76.0,1,load
1780594094.016176,9.40689929999644,9583,0.054443,-0.07959,1.053955,2.717557,3.290076,-0.480916,1.058357,4.294298,426,750,324,426,1,76.0,13,load
1780594094.0469623,9.437685400000191,9614,0.049561,0.022217,1.048828,1.030534,3.465649,-0.541985,1.050234,3.656018,431,757,326,431,0,76.0,0,load
1780594094.0780275,9.46875079999154,9645,0.04834,-0.053955,1.053223,0.931298,2.396947,-1.557252,1.055711,3.006277,432,759,327,432,0,76.0,6,load
1780594094.1093886,9.500111699991976,9676,0.046387,-0.033936,1.063721,3.167939,3.694656,-0.030534,1.065272,4.866955,435,763,328,435,0,76.0,7,load
1780594094.140526,9.531249199993908,9708,0.054443,-0.002686,1.077148,0.221374,3.969466,-1.458015,1.078527,4.234557,436,765,329,436,0,76.0,6,load
1780594094.1717284,9.562451599995256,9739,0.061523,-0.082275,1.054443,2.969466,2.992366,-0.541985,1.059436,4.25038,437,768,331,437,1,64.516,16,load
1780594094.203071,9.59379440000339,9770,0.044678,0.007568,1.046387,1.427481,2.351145,-0.961832,1.047367,2.913882,442,775,333,442,0,64.516,0,load
1780594094.2342405,9.624963800000842,9801,0.028076,-0.056396,1.049561,0.816794,3.030534,-1.381679,1.05145,3.429334,443,777,334,443,0,64.516,6,load
1780594094.2644408,9.65516409999691,9832,0.061523,-0.047363,1.058106,2.961832,3.70229,-0.290076,1.06095,4.75011,446,781,335,446,0,64.516,6,load
1780594094.2956269,9.686350000003586,9862,0.043945,-0.013672,1.043457,0.175573,2.870229,-1.251908,1.044472,3.13629,447,783,336,447,0,64.516,6,load
1780594094.3278508,9.718573999998625,9894,0.037598,-0.047363,1.044189,2.740458,2.625954,-0.580153,1.045939,3.839573,448,786,338,448,1,64.516,17,load
1780594094.3583648,9.749087999996846,9925,0.03418,0.004395,1.04541,1.19084,2.992366,-0.885496,1.045978,3.340129,452,791,339,452,0,64.516,0,load
1780594094.3901384,9.780861699997331,9956,0.039062,-0.026611,1.057861,0.534351,2.931298,-1.290076,1.058917,3.246896,454,795,341,454,0,64.516,1,load
1780594094.4205549,9.811278099994524,9987,0.048828,-0.016602,1.052246,3.549618,3.526718,-0.335878,1.053509,5.015012,457,800,343,457,0,64.516,13,load
1780594094.4509566,9.841679699995439,10018,0.040039,-0.005127,1.043213,-0.427481,3.038168,-1.40458,1.043994,3.374322,461,805,344,461,0,86.022,6,load
1780594094.4833863,9.874109600001248,10049,0.040283,-0.046143,1.055176,2.625954,2.664122,-0.78626,1.056952,3.822484,462,808,346,462,1,86.022,16,load
1780594094.5147762,9.905499400003464,10081,0.035889,-0.001953,1.051514,2.450382,2.450382,-0.603053,1.052128,3.517444,472,819,347,472,0,86.022,0,load
1780594094.5464578,9.937180900000385,10112,0.052002,-0.036621,1.048828,0.496183,3.29771,-1.389313,1.050755,3.612655,473,821,348,473,0,86.022,6,load
1780594094.5770648,9.96778799999447,10143,0.052002,-0.033447,1.046143,3.854962,3.679389,-0.610687,1.047968,5.363914,476,826,350,476,1,86.022,13,load
1780594094.6085413,9.999264400001266,10174,0.038818,0.01416,1.044922,0.099237,3.053435,-1.366412,1.045738,3.346699,481,833,352,481,0,86.022,1,load
1780594094.6382625,10.028985700002522,10205,0.04541,-0.049561,1.062988,2.236641,2.694656,-1.549618,1.065111,3.829498,483,838,355,483,1,86.022,13,load
1780594094.6695774,10.060300500001176,10236,0.020508,-0.011963,1.055176,2.045802,2.641221,-0.740458,1.055443,3.421934,485,841,356,485,0,86.022,6,load
1780594094.6998599,10.090583199998946,10267,0.046143,-0.015137,1.051514,0.305344,3.603053,-1.160305,1.052634,3.79757,486,843,357,486,0,86.022,6,load
1780594094.7320619,10.12278520000109,10298,0.056152,-0.045166,1.054443,3.51145,3.305344,-0.580153,1.056903,4.857176,487,846,359,487,1,92.857,16,load
1780594094.7626355,10.153358600000502,10330,0.029297,0.004395,1.041016,0.122137,2.916031,-1.587786,1.041437,3.322532,492,853,361,492,0,92.857,0,load
1780594094.7949169,10.185639999996056,10361,0.043213,-0.03833,1.051514,2.435115,2.740458,-0.977099,1.053099,3.794024,494,858,364,494,1,92.857,13,load
1780594094.8260841,10.21680729999207,10393,0.029053,0.002441,1.050049,1.465649,2.366412,-0.717557,1.050453,2.87453,497,862,365,497,0,92.857,3,load
1780594094.8583398,10.249062899994897,10424,0.034668,-0.033936,1.060791,0.732824,2.938931,-0.977099,1.0619,3.18262,498,864,366,498,0,92.857,6,load
1780594094.8893704,10.280093599998509,10456,0.048828,-0.020264,1.058594,3.145038,3.969466,-0.580153,1.059913,5.0975,501,868,367,501,0,92.857,6,load
1780594094.9202514,10.310974499996519,10487,0.042725,-0.000488,1.044189,0.374046,3.137405,-1.145038,1.045063,3.360704,502,870,368,502,0,92.857,6,load
1780594094.9599483,10.35067159999744,10518,0.05249,-0.030762,1.062988,3.267176,2.709924,-0.748092,1.064728,4.310193,504,875,371,504,1,92.857,14,load
1780594094.9838822,10.374605299992254,10550,0.035889,-0.017578,1.047607,1.480916,2.396947,-0.977099,1.048369,2.982145,510,882,372,510,0,91.27,0,load
1780594095.0138605,10.40458370000124,10581,0.034424,-0.03833,1.054932,0.549618,2.59542,-0.977099,1.056189,2.827191,512,886,374,512,0,91.27,0,load
1780594095.0450087,10.435731899997336,10612,0.045654,-0.023438,1.050293,3.450382,3.824427,-0.435114,1.051546,5.169208,515,890,375,515,0,91.27,6,load
1780594095.0773878,10.46811109999544,10643,0.044434,-0.01123,1.057861,0.328244,3.412214,-1.274809,1.058854,3.657333,516,892,376,516,0,91.27,6,load
1780594095.1084094,10.49913270000252,10675,0.036621,-0.040039,1.053223,3.091603,2.480916,-0.908397,1.054619,4.066711,517,895,378,517,1,91.27,17,load
1780594095.1392891,10.530012300005183,10706,0.040771,-0.005127,1.051758,1.137405,2.763359,-0.816794,1.05256,3.097901,521,900,379,521,0,91.27,0,load
1780594095.1700418,10.560765100002754,10737,0.037354,-0.036377,1.048584,0.732824,2.778626,-1.0,1.049879,3.042662,523,904,381,523,0,91.27,0,load
1780594095.1998034,10.590526600004523,10767,0.056885,-0.045654,1.055908,2.89313,3.480916,-0.931298,1.058424,4.62107,525,909,384,525,1,91.27,13,load
1780594095.2311645,10.621887599991169,10798,0.031738,-0.003418,1.047363,0.412214,3.305344,-1.366412,1.04785,3.600319,527,912,385,527,0,91.27,6,load
1780594095.262879,10.653602099991986,10829,0.052246,-0.05957,1.056396,2.152672,2.755725,-0.931298,1.059364,3.618747,528,915,387,528,1,64.516,16,load
1780594095.294495,10.685218400001759,10861,0.037354,-0.016846,1.044434,1.755725,2.465649,-0.694656,1.045237,3.105566,530,918,388,530,0,64.516,6,load
1780594095.3239515,10.714674599992577,10892,0.041992,-0.006592,1.070068,0.274809,3.40458,-1.175572,1.070912,3.612292,531,920,389,531,0,64.516,6,load
1780594095.3552113,10.745934599995962,10922,0.054199,-0.049805,1.047607,2.862595,3.343511,-0.969466,1.05019,4.507037,533,925,392,533,1,64.516,13,load
1780594095.3861988,10.776922100005322,10953,0.041016,0.014404,1.046143,0.541985,3.381679,-0.954198,1.047045,3.555277,537,930,393,537,0,64.516,6,load
1780594095.4177547,10.808477800004766,10984,0.025635,-0.056641,1.061768,1.603053,2.21374,-1.160305,1.063586,2.969299,538,932,394,538,0,64.516,6,load
1780594095.4488237,10.839546899995185,11015,0.037598,-0.016357,1.050781,2.343511,3.137405,-0.465649,1.051581,3.943626,541,936,395,541,0,64.516,7,load
1780594095.4806135,10.87133680000261,11047,0.046387,-0.018555,1.063477,0.618321,3.847328,-1.183206,1.064649,4.072374,542,938,396,542,0,64.516,6,load
1780594095.5109086,10.901631799992174,11078,0.061768,-0.070801,1.05249,2.732824,2.89313,-0.946565,1.056676,4.090784,543,941,398,543,1,64.516,16,load
1780594095.5422778,10.933000999997603,11109,0.047363,0.012695,1.050049,0.816794,3.442748,-0.625954,1.051193,3.593256,548,948,400,548,0,71.429,1,load
1780594095.5726376,10.963360699999612,11140,0.030273,-0.04834,1.063232,1.641221,2.59542,-1.236641,1.064761,3.310452,550,952,402,550,0,71.429,0,load
1780594095.6039653,10.99468839999463,11171,0.052734,-0.027588,1.052002,2.687023,3.259542,-0.114504,1.053684,4.225851,554,958,404,554,0,71.429,6,load
1780594095.6340804,11.024803699998301,11202,0.053711,-0.006592,1.068115,0.267176,3.381679,-1.068702,1.069485,3.55658,555,960,405,555,0,71.429,6,load
1780594095.6711607,11.061883899994427,11238,0.050293,-0.030273,1.062256,2.656489,3.015267,-0.328244,1.063876,4.031936,557,964,407,557,0,71.429,7,load
1780594095.7023191,11.093042299995432,11269,0.043457,0.009521,1.069336,0.312977,3.366412,-1.152672,1.070261,3.572022,558,966,408,558,0,71.429,6,load
1780594095.7332876,11.124010799991083,11300,0.033203,-0.028564,1.050049,2.961832,3.015267,-0.854962,1.050962,4.31222,560,971,411,560,1,71.429,13,load
1780594095.7642858,11.155009099995368,11330,0.041748,0.01001,1.051758,1.068702,3.022901,-0.564886,1.052634,3.255634,566,978,412,566,0,71.429,0,load
1780594095.7958875,11.186610799995833,11362,0.032715,-0.04834,1.053467,1.19084,2.526718,-0.824427,1.055083,2.912401,568,982,414,568,0,79.051,1,load
1780594095.8276198,11.21834300000046,11394,0.062012,-0.042969,1.060547,2.557252,3.335878,-0.236641,1.063227,4.209943,571,986,415,571,0,79.051,7,load
1780594095.8577795,11.24850279999373,11425,0.053223,-0.001465,1.059814,0.259542,3.572519,-0.679389,1.061151,3.645795,572,988,416,572,0,79.051,6,load
1780594095.8900857,11.2808090000035,11456,0.034668,-0.050293,1.05835,2.839695,3.015267,-1.267176,1.060111,4.331448,573,991,418,573,1,79.051,16,load
1780594095.9209836,11.311706699998467,11488,0.055908,0.015381,1.051025,1.221374,2.290076,-0.801527,1.052624,2.716367,576,996,420,576,0,79.051,1,load
1780594095.952594,11.343317299993942,11519,0.029297,-0.040039,1.061523,1.717557,2.572519,-1.022901,1.062682,3.257942,578,1000,422,578,0,79.051,0,load
1780594095.9840484,11.374771599992528,11551,0.045898,-0.020264,1.05127,1.969466,2.70229,-0.374046,1.052466,3.364681,582,1006,424,582,0,79.051,6,load
1780594096.0167959,11.40751900000032,11582,0.058105,-0.016357,1.063232,0.137405,3.870229,-1.076336,1.064944,4.019459,583,1008,425,583,0,79.051,6,load
1780594096.0467358,11.437458899992635,11613,0.050293,-0.071289,1.04834,2.755725,3.099237,-0.839695,1.051964,4.231356,584,1011,427,584,1,63.745,16,load
1780594096.0765383,11.467261500001769,11644,0.053711,0.006592,1.045654,0.70229,3.40458,-0.961832,1.047054,3.606868,586,1014,428,586,0,63.745,6,load
1780594096.108353,11.499076199994306,11674,0.034912,-0.03833,1.050049,1.076336,2.549618,-0.755725,1.051328,2.868828,588,1018,430,588,0,63.745,0,load
1780594096.1392484,11.529971700001624,11705,0.063232,-0.01416,1.060791,2.549618,3.854962,-0.519084,1.062768,4.650885,592,1024,432,592,0,63.745,7,load
1780594096.1705885,11.561311700002989,11737,0.043701,-0.000732,1.061035,0.374046,3.549618,-1.412214,1.061935,3.838496,596,1030,434,596,0,63.745,1,load
1780594096.2018726,11.592595699999947,11768,0.038818,-0.041016,1.050049,2.419847,3.083969,-1.038168,1.051566,4.05516,597,1033,436,597,1,63.745,16,load
1780594096.232607,11.623330200003693,11800,0.044922,0.003906,1.049316,1.435114,2.167939,-1.435114,1.050285,2.969692,599,1036,437,599,0,63.745,6,load
1780594096.2637422,11.654465400002664,11831,0.039307,-0.057373,1.051758,1.427481,2.59542,-1.145038,1.054055,3.175692,600,1038,438,600,0,63.745,6,load
1780594096.2956977,11.68642080000427,11862,0.051758,-0.012207,1.054443,2.320611,3.473282,0.083969,1.055783,4.178035,603,1042,439,603,0,63.745,7,load
1780594096.3257492,11.716472400003113,11893,0.049072,0.011475,1.060059,0.465649,3.70229,-1.21374,1.061256,3.923894,607,1048,441,607,0,82.143,0,load
1780594096.3580232,11.748746400000528,11924,0.032715,-0.032959,1.053223,2.465649,3.007634,-1.068702,1.054246,4.033288,609,1053,444,609,1,82.143,13,load
1780594096.387946,11.778669199993601,11955,0.035645,0.00415,1.047363,1.267176,2.480916,-0.832061,1.047978,2.907405,613,1058,445,613,0,82.143,6,load
1780594096.421096,11.811819199996535,11986,0.036377,-0.046143,1.053467,1.053435,2.633588,-0.877863,1.055104,2.969201,614,1060,446,614,0,82.143,6,load
1780594096.4508314,11.841554600003292,12017,0.048096,-0.021484,1.057129,2.89313,3.694656,-0.442748,1.05844,4.713461,617,1064,447,617,0,82.143,7,load
1780594096.4823518,11.873074899995117,12048,0.040771,-0.020264,1.050537,0.610687,3.282443,-0.931298,1.051523,3.466221,618,1066,448,618,0,82.143,6,load
1780594096.5130627,11.903785899994546,12079,0.056885,-0.011719,1.061279,2.755725,2.877863,-0.832061,1.062867,4.070434,620,1071,451,620,1,82.143,13,load
1780594096.5440016,11.9347248999984,12111,0.029297,0.005127,1.041016,1.442748,3.152672,-0.938931,1.04144,3.591998,625,1078,453,625,0,82.143,0,load
1780594096.5754092,11.966132400004426,12142,0.040527,-0.051758,1.053223,1.305344,2.496183,-1.099237,1.055272,3.023768,627,1082,455,627,0,82.143,0,load
1780594096.6062953,11.997018599999137,12173,0.060791,-0.01709,1.056396,2.740458,3.305344,-0.740458,1.058282,4.357027,630,1086,456,630,0,82.143,5,load
1780594096.637112,12.0278352000023,12204,0.045166,-0.024414,1.052734,0.335878,3.137405,-1.160305,1.053986,3.361909,631,1088,457,631,0,82.143,6,load
1780594096.6688807,12.059603999994579,12235,0.044922,-0.014893,1.057861,2.755725,2.938931,-0.748092,1.058919,4.09768,632,1091,459,632,1,82.143,16,load
1780594096.700166,12.090889099999913,12266,0.02832,-0.012451,1.057129,1.564886,2.206107,-1.015267,1.057581,2.889038,636,1096,460,636,0,82.143,0,load
1780594096.7310348,12.1217578999931,12297,0.0354,-0.040527,1.062256,0.610687,3.030534,-0.587786,1.063618,3.146835,638,1100,462,638,0,82.143,0,load
1780594096.7612069,12.151929999992717,12328,0.044434,-0.015869,1.054688,3.015267,3.870229,-0.763359,1.055742,4.965202,641,1105,464,641,1,82.143,13,load
1780594096.7919173,12.182640600003651,12359,0.033691,-0.000244,1.037598,0.236641,3.160305,-1.175572,1.038144,3.380162,643,1108,465,643,0,82.143,6,load
1780594096.8246942,12.215417300001718,12390,0.043945,-0.019775,1.060547,3.053435,2.48855,-0.969466,1.061641,4.056626,644,1111,467,644,1,82.143,16,load
1780594096.8555093,12.246232599994983,12422,0.028809,0.005615,1.049072,1.374046,2.343511,-0.725191,1.049483,2.811752,652,1120,468,652,0,82.143,0,load
1780594096.8872302,12.277953500000876,12453,0.050293,-0.036133,1.049072,0.839695,3.061069,-0.679389,1.050898,3.246044,654,1124,470,654,0,85.714,1,load
1780594096.917634,12.308357200003229,12484,0.053711,-0.012695,1.059814,3.320611,3.381679,-0.450382,1.061251,4.760783,657,1129,472,657,1,85.714,13,load
1780594096.94773,12.338453399992432,12515,0.040771,-0.004395,1.040283,0.122137,3.198473,-1.496183,1.041091,3.53323,661,1134,473,661,0,85.714,7,load
1780594096.980244,12.370967199996812,12546,0.041992,-0.022949,1.056885,3.053435,2.618321,-1.145038,1.057968,4.182126,662,1137,475,662,1,85.714,16,load
1780594097.012393,12.403116300003603,12579,0.027832,0.007324,1.054443,1.48855,2.839695,-0.954198,1.054836,3.345167,672,1148,476,672,0,85.714,1,load
1780594097.043495,12.434218099995633,12610,0.048096,-0.039307,1.057373,1.030534,2.732824,-0.618321,1.059196,2.985406,673,1150,477,673,0,85.714,6,load
1780594097.0748026,12.465525799998431,12641,0.052246,-0.046875,1.054688,2.427481,3.412214,-0.366412,1.057021,4.203584,676,1154,478,676,0,85.714,6,load
1780594097.1063273,12.497050499994657,12673,0.047363,0.002197,1.059814,0.480916,3.763359,-0.801527,1.060874,3.877705,680,1160,480,680,0,85.714,0,load
1780594097.137589,12.528312199996435,12704,0.036865,-0.044189,1.046387,2.793893,2.587786,-0.984733,1.047968,3.933468,682,1165,483,682,1,111.554,13,load
1780594097.1689117,12.559634999997797,12735,0.035645,-0.005859,1.052246,1.290076,3.099237,-1.129771,1.052866,3.542026,684,1168,484,684,0,111.554,6,load
1780594097.1984177,12.58914100000402,12765,0.033691,-0.042725,1.047852,0.801527,2.900763,-0.969466,1.049263,3.161762,685,1170,485,685,0,111.554,6,load
1780594097.2303076,12.62103070000012,12796,0.056152,-0.02002,1.056152,2.946565,3.938931,-0.725191,1.057833,4.972256,688,1174,486,688,0,111.554,6,load
1780594097.262273,12.652996199991321,12828,0.035645,0.013428,1.054688,0.587786,3.977099,-0.854962,1.055375,4.110203,689,1176,487,689,0,111.554,6,load
1780594097.2937973,12.684520599999814,12860,0.039551,-0.048584,1.050293,2.526718,2.564885,-1.007634,1.05216,3.738752,691,1181,490,691,1,111.554,13,load
1780594097.3247917,12.715514800001984,12891,0.03418,-0.001953,1.049316,1.305344,2.587786,-1.435114,1.049875,3.23421,696,1188,492,696,0,111.554,0,load
1780594097.3562016,12.746924899998703,12922,0.047363,-0.039062,1.05542,1.603053,2.641221,-0.946565,1.057204,3.23138,698,1192,494,698,0,111.554,0,load
1780594097.387831,12.77855429999181,12954,0.029053,-0.013672,1.045166,2.053435,2.885496,-0.580153,1.045659,3.588769,701,1196,495,701,0,76.0,6,load
1780594097.4186594,12.809382699997514,12985,0.054932,-0.019531,1.070557,0.450382,3.694656,-0.908397,1.072143,3.831255,702,1198,496,702,0,76.0,6,load
1780594097.4496603,12.84038349999173,13016,0.045898,-0.054932,1.056396,2.534351,2.847328,-1.21374,1.058819,4.000422,703,1201,498,703,1,76.0,17,load
1780594097.4804215,12.871144699995057,13047,0.044678,-0.000732,1.052734,1.19084,2.633588,-1.114504,1.053682,3.097742,706,1206,500,706,0,76.0,1,load
1780594097.5116477,12.902371000003768,13078,0.042969,-0.051514,1.05957,1.656489,2.717557,-0.801527,1.061692,3.281999,708,1210,502,708,0,76.0,0,load
1780594097.5431068,12.933830099995248,13109,0.057861,-0.038086,1.055664,2.633588,3.259542,-0.290076,1.057934,4.20054,712,1216,504,712,0,76.0,7,load
1780594097.5744927,12.96521589999611,13140,0.052246,0.018066,1.061768,0.305344,3.610687,-1.229008,1.063206,3.826324,715,1220,505,715,0,76.0,6,load
1780594097.6048834,12.9956067000021,13171,0.040527,-0.055176,1.052978,2.854962,3.030534,-0.961832,1.055202,4.27318,716,1223,507,716,1,76.0,16,load
1780594097.6348555,13.025578799992218,13202,0.035889,0.0,1.053223,1.419847,2.122137,-1.022901,1.053834,2.750592,718,1226,508,718,0,76.0,5,load
1780594097.6659486,13.056671900005313,13232,0.031494,-0.036621,1.054199,0.938931,2.633588,-1.129771,1.055305,3.015586,719,1228,509,719,0,64.748,6,load
1780594097.6989882,13.089711499997065,13264,0.05835,-0.014648,1.053467,2.320611,3.908397,-0.633588,1.055183,4.589361,723,1234,511,723,0,64.748,6,load
1780594097.7283094,13.119032599992352,13296,0.050537,0.007813,1.064209,0.312977,3.862595,-1.122137,1.065437,4.03445,727,1240,513,727,0,64.748,1,load
1780594097.760248,13.15097109999624,13326,0.041748,-0.021729,1.052978,2.89313,2.793893,-0.847328,1.05403,4.110232,729,1245,516,729,1,64.748,13,load
1780594097.7902699,13.180993100002524,13357,0.055664,-0.001709,1.047607,1.610687,2.717557,-0.961832,1.049087,3.302204,731,1248,517,731,0,64.748,6,load
1780594097.8218217,13.212545000002137,13388,0.034424,-0.031494,1.054199,1.145038,2.717557,-0.671756,1.055231,3.024481,732,1250,518,732,0,64.748,5,load
1780594097.8533251,13.244048299995484,13419,0.043213,-0.020508,1.049561,2.961832,3.847328,-0.51145,1.05065,4.882209,735,1254,519,735,0,64.748,6,load
1780594097.8955505,13.286273699995945,13451,0.05835,-0.014893,1.056396,0.435114,3.572519,-1.236641,1.058112,3.805456,737,1258,521,737,0,64.748,0,load
1780594097.9160569,13.306780099999742,13482,0.039307,-0.016602,1.061035,3.183206,2.877863,-0.664122,1.061893,4.342344,739,1263,524,739,1,80.0,13,load
1780594097.9458222,13.336545500002103,13513,0.05249,-0.009277,1.046143,1.259542,2.839695,-0.793893,1.0475,3.206334,744,1270,526,744,0,80.0,0,load
1780594097.9770334,13.367756599996937,13544,0.041748,-0.041504,1.053711,1.061069,2.885496,-0.732824,1.055354,3.160536,745,1272,527,745,0,80.0,6,load
1780594098.0092614,13.399984699994093,13575,0.048096,-0.018311,1.042725,2.419847,3.824427,-0.29771,1.043994,4.535475,748,1276,528,748,0,80.0,6,load
1780594098.0393255,13.430048700000043,13606,0.05957,-0.005859,1.0625,0.40458,3.427481,-0.816794,1.064185,3.546613,749,1278,529,749,0,80.0,6,load
1780594098.0699468,13.46066989999963,13636,0.043457,-0.043945,1.06543,2.687023,3.122137,-1.328244,1.067221,4.328056,750,1281,531,750,1,80.0,17,load
1780594098.1006238,13.491347000002861,13667,0.035889,-0.01709,1.040772,1.824428,2.740458,-0.938931,1.04153,3.423483,755,1288,533,755,0,80.0,0,load
1780594098.1321807,13.52290389999689,13698,0.050537,-0.02124,1.063965,0.656489,3.442748,-0.870229,1.065376,3.611204,757,1292,535,757,0,80.0,0,load
1780594098.1617198,13.552442999993218,13729,0.053955,-0.06543,1.052246,2.717557,2.992366,-0.770992,1.055658,4.11507,759,1297,538,759,1,80.0,14,load
1780594098.19351,13.58423340000445,13759,0.035645,0.016602,1.043945,1.175572,2.450382,-1.419847,1.044686,3.066318,761,1300,539,761,0,79.422,6,load
1780594098.2245214,13.615244600005099,13791,0.054199,-0.038818,1.057617,1.763359,2.671756,-1.167939,1.059716,3.407608,762,1302,540,762,0,79.422,6,load
1780594098.2559977,13.646720799995819,13822,0.040527,-0.021484,1.047119,1.91603,3.198473,-0.778626,1.048123,3.808892,765,1306,541,765,0,79.422,6,load
1780594098.2866552,13.677378299995326,13853,0.046631,-0.010254,1.065674,0.519084,3.320611,-0.854962,1.066743,3.467977,767,1310,543,767,0,79.422,0,load
1780594098.3180678,13.708791099998052,13884,0.037598,-0.041748,1.052002,2.916031,2.824427,-0.755725,1.053501,4.129376,769,1315,546,769,1,79.422,13,load
1780594098.3487709,13.739494099994772,13915,0.052734,0.010254,1.04541,1.053435,3.419847,-1.305344,1.04679,3.809068,774,1322,548,774,0,79.422,0,load
1780594098.3801675,13.77089079999132,13946,0.036133,-0.042236,1.054688,1.870229,2.587786,-0.671756,1.056151,3.262767,775,1324,549,775,0,79.422,6,load
1780594098.410965,13.801688099993044,13977,0.055176,-0.029053,1.063965,2.435115,3.465649,-0.366412,1.06579,4.251442,778,1328,550,778,0,79.422,7,load
1780594098.4429502,13.833673500004807,14009,0.054688,-0.01001,1.065918,0.832061,3.534351,-0.633588,1.067367,3.685838,779,1330,551,779,0,72.0,6,load
1780594098.4739225,13.86464580000029,14040,0.051025,-0.063965,1.047852,2.496183,3.160305,-0.572519,1.051041,4.067706,780,1333,553,780,1,72.0,16,load
1780594098.5060499,13.896773000000394,14072,0.046631,-0.009521,1.048828,0.633588,3.091603,-0.977099,1.049907,3.30366,785,1340,555,785,0,72.0,1,load
1780594098.5352967,13.92601989999821,14102,0.040039,-0.038086,1.059814,2.045802,2.679389,-1.045802,1.061254,3.529608,787,1344,557,787,0,72.0,0,load
1780594098.568165,13.958888199995272,14133,0.052979,-0.028809,1.060791,1.954198,3.557252,-0.732824,1.062504,4.124314,790,1348,558,790,0,72.0,6,load
1780594098.5958598,13.986583099991549,14164,0.050537,-0.001709,1.059814,0.435114,3.549618,-0.89313,1.06102,3.686027,791,1350,559,791,0,72.0,5,load
1780594098.6283052,14.019028399998206,14194,0.038086,-0.033447,1.047363,2.916031,2.763359,-0.664122,1.048589,4.07191,792,1353,561,792,1,72.0,17,load
1780594098.6591437,14.049866999994265,14225,0.04126,-0.001221,1.051025,1.687023,2.259542,-1.053435,1.051836,3.0102,796,1358,562,796,0,72.0,0,load
1780594098.6892316,14.079954899993027,14256,0.043213,-0.041504,1.057373,1.183206,2.503817,-0.580153,1.059069,2.829426,798,1362,564,798,0,72.0,1,load
1780594098.721035,14.111758300001384,14287,0.045166,-0.013916,1.045654,2.763359,3.824427,-0.473282,1.046722,4.741982,802,1368,566,802,0,79.137,6,load
1780594098.7513819,14.142104999991716,14319,0.049072,-0.025879,1.045166,0.351145,3.29771,-0.908397,1.046637,3.438514,803,1370,567,803,0,79.137,6,load
1780594098.7837296,14.174452799998107,14349,0.046875,-0.038818,1.057373,2.862595,2.549618,-1.160305,1.059123,4.005161,804,1373,569,804,1,79.137,16,load
1780594098.8148904,14.205613500002073,14381,0.035889,-0.021484,1.041016,1.801527,2.587786,-0.648855,1.041856,3.219184,814,1384,570,814,0,79.137,0,load
1780594098.8470597,14.237783000004129,14412,0.032959,-0.038574,1.06543,1.381679,3.198473,-0.763359,1.066637,3.566789,815,1386,571,815,0,79.137,6,load
1780594098.8852842,14.276007299995399,14443,0.04834,-0.009277,1.051514,2.709924,3.732824,-0.519084,1.052665,4.641886,818,1391,573,818,1,79.137,13,load
1780594098.9067802,14.297503499998129,14474,0.041504,-0.024902,1.053223,0.320611,3.40458,-1.015267,1.054334,3.567173,823,1398,575,823,0,79.137,0,load
1780594098.9387236,14.329446799994912,14505,0.046143,-0.034668,1.05835,2.862595,2.732824,-0.916031,1.059922,4.062252,825,1403,578,825,1,79.137,13,load
1780594098.9696143,14.360337499994785,14536,0.033691,-0.023193,1.034912,1.854962,2.557252,-1.137405,1.03572,3.357694,831,1410,579,831,0,79.137,0,load
1780594099.0004456,14.391168799993466,14567,0.046631,-0.020264,1.070068,0.366412,2.992366,-0.854962,1.071276,3.133604,832,1412,580,832,0,107.143,6,load
1780594099.0310552,14.421778499992797,14598,0.044434,-0.00708,1.052978,2.969466,3.137405,-1.282443,1.053939,4.506184,833,1415,582,833,1,107.143,16,load
1780594099.062173,14.452896100003272,14629,0.037109,-0.014648,1.043701,0.526718,2.954198,-1.320611,1.044463,3.278526,836,1420,584,836,0,107.143,0,load
1780594099.093824,14.484547100000782,14660,0.045654,-0.047607,1.061523,2.091603,2.694656,-1.221374,1.063571,3.623221,838,1425,587,838,1,107.143,13,load
1780594099.1250339,14.515757200002554,14691,0.029541,-0.032715,1.047852,1.290076,2.740458,-1.328244,1.048778,3.307361,843,1432,589,843,0,107.143,0,load
1780594099.1570852,14.547808300005272,14723,0.04541,-0.010254,1.063965,0.618321,3.396947,-0.755725,1.064983,3.5345,844,1434,590,844,0,107.143,6,load
1780594099.1892579,14.579981100003351,14754,0.044434,-0.023926,1.047363,3.160305,3.320611,-1.068702,1.048578,4.707028,846,1437,591,846,1,107.143,16,load
1780594099.2197952,14.610518500005128,14786,0.046143,0.000977,1.042969,1.534351,3.305344,-0.770992,1.043989,3.724776,848,1440,592,848,0,107.143,6,load
1780594099.249903,14.640626199994585,14817,0.053467,-0.0354,1.062256,2.587786,2.80916,-0.679389,1.06419,3.87938,849,1443,594,849,1,68.0,17,load
1780594099.281709,14.672432299994398,14848,0.024414,-0.009766,1.046387,1.59542,2.656489,-1.076336,1.046717,3.280365,854,1450,596,854,0,68.0,1,load
1780594099.3121462,14.70286930000293,14879,0.034424,-0.03833,1.051514,0.221374,2.862595,-1.167939,1.052775,3.099603,856,1454,598,856,0,68.0,1,load
1780594099.342778,14.733501199996681,14910,0.053955,0.00293,1.050293,2.305344,3.251908,-1.160305,1.051682,4.151605,857,1457,600,857,1,68.0,16,load
1780594099.374875,14.76559830000042,14941,0.047119,-0.023193,1.061279,1.022901,3.526718,-1.007634,1.062578,3.807806,859,1460,601,859,0,68.0,6,load
1780594099.4062467,14.796969799994258,14972,0.04541,-0.022949,1.057861,1.145038,3.351145,-0.427481,1.059084,3.567075,860,1463,603,860,1,68.0,16,load
1780594099.4367049,14.827428100004909,15003,0.035645,-0.009521,1.044922,1.366412,3.145038,-0.48855,1.045573,3.463673,862,1466,604,862,0,68.0,6,load
1780594099.4679573,14.858680599994841,15034,0.04248,-0.030762,1.06543,1.29771,3.343511,-0.480916,1.06672,3.618618,864,1470,606,864,0,68.0,0,load
1780594099.4987683,14.889491499998257,15065,0.04126,-0.00708,1.046875,1.603053,3.251908,-0.778626,1.047712,3.708227,865,1473,608,865,1,68.0,16,load
1780594099.5293128,14.92003599999589,15096,0.054932,-0.023926,1.065186,2.59542,3.030534,-2.0,1.066869,4.463221,867,1476,609,867,0,64.516,7,load
1780594099.5603874,14.951110699999845,15126,0.04248,-0.014893,1.069824,1.236641,2.870229,-0.687023,1.070771,3.199921,868,1478,610,868,0,64.516,7,load
1780594099.5909355,14.981658699995023,15157,0.07251,-0.057373,1.040283,2.732824,4.343512,-1.610687,1.044384,5.378544,869,1480,611,869,0,64.516,7,load
1780594099.6210237,15.011746799995308,15188,0.064941,-0.053955,1.055664,-0.007634,3.748092,3.091603,1.059035,4.858628,870,1483,613,870,1,64.516,18,load
1780594099.6529918,15.043714999992517,15219,0.075684,-0.034668,1.072266,2.473282,0.740458,-0.152672,1.075492,2.586254,872,1486,614,872,0,64.516,8,load
1780594099.6842616,15.074984899998526,15251,0.052734,0.008545,1.046387,1.458015,5.114504,-3.625954,1.04775,6.436731,874,1490,616,874,0,64.516,0,load
1780594099.714896,15.10561929999676,15281,0.059814,-0.047852,1.035889,-0.931298,3.938931,2.175573,1.038717,4.595173,875,1492,617,875,0,64.516,8,load
1780594099.7458172,15.136540499996045,15312,0.109863,-0.052734,1.053711,1.396947,6.114504,0.229008,1.060734,6.27623,876,1495,619,876,1,64.516,18,load
1780594099.7798712,15.170594499999424,15343,0.064209,-0.031006,1.082275,2.442748,3.061069,-1.526718,1.084622,4.203336,877,1497,620,877,1,64.516,17,load
1780594099.8076932,15.198416400002316,15374,0.049561,0.003662,1.032471,2.374046,2.473282,-2.007634,1.033666,3.972885,879,1500,621,879,0,43.165,9,load
1780594099.8392527,15.229976000002353,15405,0.031006,-0.002686,1.03833,1.381679,3.167939,-0.740458,1.038796,3.534566,881,1504,623,881,0,43.165,0,load
1780594099.8700068,15.26072999999451,15436,0.088623,-0.009521,1.054199,1.068702,3.641221,0.030534,1.057961,3.794937,882,1506,624,882,0,43.165,9,load
1780594099.901625,15.292348100003437,15467,0.012695,0.011475,1.065186,2.206107,2.198473,-2.251908,1.065323,3.843342,883,1508,625,883,0,43.165,9,load
1780594099.932464,15.32318700000178,15499,0.025635,0.000977,1.061279,1.351145,3.21374,-1.183206,1.061589,3.681534,884,1510,626,884,0,43.165,9,load
1780594099.9635065,15.354229799995665,15530,0.042725,-0.122559,1.041016,2.770992,4.59542,-1.396947,1.049076,5.545064,885,1512,627,885,0,43.165,10,load
1780594099.9935367,15.384259999991627,15560,0.012207,-0.021484,1.060303,1.671756,2.694656,-2.687023,1.060591,4.156444,886,1514,628,886,0,43.165,10,load
1780594100.0248992,15.415622500004247,15591,0.072998,-0.169678,1.062744,1.167939,3.396947,-0.732824,1.078677,3.66611,886,1515,629,886,1,43.165,26,load
1780594100.0543334,15.44505670000217,15622,0.062744,0.095459,1.0625,0.839695,3.541985,0.0,1.068623,3.640157,887,1516,629,887,0,43.165,14,load
1780594100.0865161,15.477239300002111,15652,0.006836,0.039551,1.054199,2.396947,4.053436,-0.251908,1.054963,4.71584,888,1518,630,888,0,32.374,7,load
1780594100.1169322,15.507655299996259,15683,0.031738,-0.058838,1.053223,1.549618,3.251908,-1.015267,1.055342,3.742592,888,1519,631,888,1,32.374,32,load
1780594100.1483233,15.539046499994583,15714,0.043457,-0.066406,1.052246,0.885496,4.122138,0.022901,1.055235,4.216236,889,1520,631,889,0,32.374,23,load
1780594100.1784809,15.569204100000206,15745,0.074951,0.054199,1.063477,2.763359,3.396947,-1.519084,1.067491,4.634978,890,1522,632,890,0,32.374,16,load
1780594100.2100077,15.600730799997109,15776,0.039062,-0.067871,1.059082,0.198473,3.396947,-0.129771,1.061973,3.405214,890,1522,632,890,0,32.374,16,load
1780594100.2419777,15.632700899994234,15808,0.045898,-0.090332,1.055908,0.48855,3.419847,-1.755725,1.060758,3.875127,891,1524,633,891,0,32.374,14,load
1780594100.2739162,15.664639399998123,15840,0.052002,-0.059082,1.064453,0.847328,2.534351,-1.015267,1.067359,2.858613,891,1524,633,891,0,32.374,14,load
1780594100.304686,15.695409299994935,15871,0.033691,-0.095947,1.059326,0.175573,3.885496,-1.274809,1.064196,4.093048,892,1526,634,892,0,32.374,13,load
1780594100.335796,15.726519299991196,15902,0.095215,-0.062744,1.040283,0.656489,4.27481,-0.709924,1.046514,4.382803,892,1526,634,892,0,16.0,13,load
1780594100.3667078,15.757431099991663,15933,0.11499,0.024658,1.079346,2.206107,4.801526,-0.358779,1.085734,5.296252,893,1528,635,893,0,16.0,12,load
1780594100.397095,15.787818199998583,15964,0.055664,0.007813,1.049316,2.458015,3.832061,-1.175572,1.050821,4.701968,893,1529,636,893,1,16.0,39,load
1780594100.4286852,15.819408299998031,15995,0.034912,-0.033447,1.042236,2.198473,3.541985,-0.40458,1.043357,4.188392,894,1530,636,894,0,16.0,16,load
1780594100.4597244,15.85044769999513,16026,0.057861,0.026855,1.064209,1.954198,3.969466,0.625954,1.066119,4.468486,894,1531,637,894,1,16.0,37,load
1780594100.490754,15.881477100003394,16057,0.049805,0.033691,1.064209,1.908397,3.343511,-0.083969,1.065906,3.850727,895,1532,637,895,0,16.0,20,load
1780594100.5216455,15.912368699995568,16088,0.041992,0.062256,1.056396,2.557252,3.519084,-1.824428,1.059062,4.717205,896,1534,638,896,0,16.0,18,load
1780594100.5522265,15.942949699994642,16119,0.036377,-0.117188,1.052002,0.732824,3.717557,-0.900763,1.059134,3.894694,896,1534,638,896,0,16.0,18,load
1780594100.5838456,15.974568799996632,16150,0.055664,0.065186,1.065674,2.603053,3.274809,-0.145038,1.069116,4.185845,896,1535,639,896,1,16.0,54,load
1780594100.6147666,16.005489799994393,16181,0.053467,0.032959,1.060547,2.244275,3.610687,-0.832061,1.062405,4.331992,897,1536,639,897,0,17.921,24,load
1780594100.6460917,16.03681499999948,16212,0.039551,0.02124,1.047119,0.541985,3.717557,-0.618321,1.048081,3.807401,897,1536,639,897,0,17.921,24,load
1780594100.677966,16.068689399995492,16244,0.024658,-0.120117,1.043945,2.374046,2.938931,0.274809,1.051122,3.787998,897,1539,642,897,1,17.921,0,load
1780594100.7094026,16.10012590000406,16276,0.046631,-0.017334,1.057617,2.068702,3.206107,-1.244275,1.058787,4.013336,898,1540,642,898,0,17.921,31,load
1780594100.7416053,16.13232859999698,16307,0.034424,0.009766,1.057129,0.381679,3.267176,-2.099237,1.057734,3.902168,898,1540,642,898,0,17.921,31,load
1780594100.7715776,16.162300900003174,16338,0.037842,0.018555,1.066894,1.305344,2.900763,-0.053435,1.067727,3.181384,898,1540,642,898,0,17.921,31,load
1780594100.8042076,16.19493080000393,16369,0.039062,-0.11499,1.052002,3.038168,2.526718,-1.656489,1.058988,4.284708,898,1541,643,898,1,17.921,85,load
1780594100.8335946,16.224317899992457,16400,0.047852,-0.11792,1.060547,2.603053,3.0,-1.534351,1.068155,4.257948,899,1542,643,899,0,17.921,32,load
1780594100.8650682,16.255791499992483,16430,0.050781,-0.040039,1.05249,1.358779,3.381679,-1.442748,1.054475,3.919637,899,1542,643,899,0,17.921,32,load
1780594100.8971171,16.28784029999224,16461,0.038818,-0.095215,1.045654,2.19084,2.923664,-0.389313,1.050698,3.67412,899,1542,643,899,0,7.143,32,load
1780594100.9345233,16.325246499996865,16493,0.046387,0.036133,1.049805,3.053435,2.625954,-2.343511,1.05145,4.659522,899,1543,644,899,1,7.143,81,load
1780594100.9578624,16.34858570000506,16524,0.062988,0.070312,1.054932,1.198473,4.358778,-1.206107,1.059147,4.678673,900,1544,644,900,0,7.143,31,load
1780594100.989757,16.380480399995577,16555,0.051514,0.038818,1.059082,1.51145,2.717557,-0.236641,1.061044,3.118589,900,1544,644,900,0,7.143,31,load
1780594101.0212157,16.41193879999628,16587,0.039307,-0.056641,1.046631,0.351145,3.625954,-1.465649,1.048899,3.9267,900,1545,645,900,1,7.143,63,load
1780594101.0526936,16.443416800000705,16618,0.039795,-0.009521,1.060791,0.671756,2.908397,-0.59542,1.06158,3.043773,901,1546,645,901,0,7.143,31,load
1780594101.082624,16.47334709999268,16649,0.046631,0.008789,1.052246,2.648855,3.198473,-1.122137,1.053316,4.301843,901,1546,645,901,0,7.143,31,load
1780594101.1138837,16.504606999995303,16680,0.044678,-0.022461,1.057373,1.877863,2.496183,-2.29771,1.058555,3.877728,901,1547,646,901,1,7.143,70,load
1780594101.1447985,16.5355217000033,16711,0.035156,0.007324,1.056152,2.229008,2.824427,-2.343511,1.056763,4.293939,902,1548,646,902,0,12.0,28,load
1780594101.1762722,16.56699550000485,16742,0.035156,0.021729,1.053711,1.51145,3.412214,-0.633588,1.054521,3.785382,902,1548,646,902,0,12.0,28,load
1780594101.2074845,16.598207599992747,16773,0.03833,0.040771,1.057617,0.984733,3.312977,-1.587786,1.059097,3.803496,902,1549,647,902,1,12.0,72,load
1780594101.2387574,16.629480499992496,16804,0.033936,-0.072266,1.053223,0.557252,3.236641,-0.763359,1.056244,3.371808,903,1550,647,903,0,12.0,26,load
1780594101.2752082,16.665931499999715,16836,0.047363,-0.001709,1.061279,1.78626,2.89313,-0.641221,1.062337,3.460071,903,1550,647,903,0,12.0,26,load
1780594101.3056412,16.69636449999234,16872,0.044189,-0.118896,1.063232,3.083969,2.908397,-0.824427,1.070772,4.318486,903,1551,648,903,1,12.0,79,load
1780594101.3364425,16.727165699994657,16903,0.04541,-0.010254,1.064209,-0.221374,2.946565,-0.80916,1.065227,3.063656,903,1551,648,903,1,12.0,79,load
1780594101.3668098,16.75753309999709,16934,0.044678,0.000488,1.05957,3.496183,2.877863,-0.740458,1.060512,4.588428,904,1552,648,904,0,12.0,41,load
1780594101.398211,16.78893419999804,16964,0.04126,-0.04126,1.060059,2.587786,2.900763,-0.221374,1.061663,3.893594,904,1552,648,904,0,7.905,41,load
1780594101.4288228,16.819545899998047,16995,0.035156,-0.041504,1.051758,3.267176,2.885496,-0.496183,1.053163,4.387109,904,1552,648,904,0,7.905,41,load
1780594101.460557,16.851280200004112,17026,0.042725,-0.011719,1.057617,1.351145,3.053435,-1.022901,1.058545,3.492189,904,1552,648,904,0,7.905,41,load
1780594101.4920914,16.8828147000022,17058,0.042236,-0.060059,1.055908,1.862595,3.0,-0.221374,1.058458,3.538116,904,1552,648,904,0,7.905,41,load
1780594101.524442,16.915165099999285,17089,0.040771,-0.00708,1.05249,0.923664,3.335878,-0.916031,1.053303,3.580551,904,1557,653,904,1,7.905,0,load
1780594101.5543518,16.945074999995995,17120,0.041748,-0.028809,1.057373,1.167939,3.343511,-1.167939,1.058589,3.72924,904,1557,653,904,1,7.905,0,load
1780594101.585902,16.976625199997216,17151,0.054932,-0.051758,1.056885,3.007634,2.832061,-0.335878,1.059576,4.144785,905,1558,653,905,0,7.905,70,load
1780594101.6167133,17.007436500003678,17183,0.047607,-0.020752,1.050293,0.778626,3.427481,-0.603053,1.051576,3.566168,905,1558,653,905,0,7.905,70,load
1780594101.648214,17.0389373999933,17214,0.040527,0.006104,1.05957,1.221374,3.045802,-1.236641,1.060363,3.506842,905,1558,653,905,0,4.0,70,load
1780594101.6776807,17.068404000005103,17244,0.047119,-0.000732,1.061279,1.664122,3.198473,-0.374046,1.062325,3.624837,905,1558,653,905,0,4.0,70,load
1780594101.7091436,17.099866799995652,17275,0.036621,-0.015137,1.052246,1.122137,3.083969,-0.435114,1.052992,3.310496,905,1558,653,905,0,4.0,70,load
1780594101.7412846,17.132007799998973,17306,0.039551,-0.033447,1.05249,1.59542,2.992366,-1.152672,1.053764,3.581658,905,1558,653,905,0,4.0,70,load
1780594101.7713287,17.162051999999676,17337,0.038574,-0.020996,1.052246,1.335878,2.961832,0.022901,1.053162,3.249237,905,1559,654,905,1,4.0,191,load
1780594101.8020952,17.19281839999894,17368,0.040771,-0.018799,1.056396,0.89313,3.51145,-1.114504,1.05735,3.790789,905,1559,654,905,1,4.0,191,load
1780594101.8473146,17.238037799994345,17398,0.042236,-0.026123,1.061523,0.862595,3.198473,-0.656489,1.062684,3.37717,905,1559,654,905,1,4.0,191,load
1780594101.8632298,17.25395299999218,17429,0.034424,-0.065186,1.04834,2.603053,2.709924,-1.366412,1.050928,3.998332,906,1560,654,906,0,4.0,84,load
1780594101.895145,17.285868099992513,17460,0.046387,-0.02124,1.059326,0.854962,3.366412,-1.450382,1.060554,3.763947,906,1560,654,906,0,4.0,84,load
1780594101.92686,17.31758339999942,17491,0.042969,-0.04834,1.053955,0.549618,3.137405,-1.167939,1.055938,3.392561,906,1560,654,906,0,3.61,84,load
1780594101.9573197,17.34804300000542,17523,0.047852,-0.003174,1.057373,0.732824,3.465649,-0.442748,1.05846,3.569843,906,1560,654,906,0,3.61,84,load
1780594101.9877346,17.37845770000422,17553,0.031006,-0.03418,1.056396,3.053435,2.992366,-1.122137,1.057404,4.420058,906,1560,654,906,0,3.61,84,load
1780594102.0201893,17.410912599996664,17585,0.036133,-0.014648,1.057373,1.503817,2.732824,-0.648855,1.058092,3.186033,906,1563,657,906,1,3.61,8,load
1780594102.050935,17.44165819999762,17617,0.040771,-0.002441,1.061523,3.229008,2.923664,-1.137405,1.062309,4.501999,906,1563,657,906,1,3.61,8,load
1780594102.0828052,17.473528300004546,17648,0.064453,0.054443,1.05957,1.496183,3.603053,-1.587786,1.062924,4.21208,907,1564,657,907,0,3.61,43,load
1780594102.1133964,17.504119599994738,17679,0.044434,-0.081787,1.050781,1.824428,2.450382,-1.80916,1.054896,3.550488,907,1564,657,907,0,3.61,43,load
1780594102.144331,17.535054299994954,17711,0.030762,-0.074219,1.052978,2.221374,2.80916,-3.358779,1.056039,4.909916,908,1566,658,908,0,3.61,14,load
1780594102.176273,17.56699629999639,17742,0.057373,0.013184,1.058594,1.114504,3.198473,0.328244,1.060229,3.402954,908,1567,659,908,1,7.968,38,load
1780594102.2081907,17.598913800000446,17774,0.022705,0.062988,1.054688,3.557252,1.961832,-1.343511,1.056811,4.278767,909,1568,659,909,0,7.968,12,load
1780594102.2394652,17.630188399998588,17805,-0.014893,0.013428,1.055908,0.381679,1.984733,-1.725191,1.056099,2.657278,910,1570,660,910,0,7.968,7,load
1780594102.269826,17.66054919999442,17836,0.02124,-0.067627,1.059326,1.48855,2.10687,-1.137405,1.061695,2.819286,911,1572,661,911,0,7.968,9,load
1780594102.300238,17.690961100001005,17867,0.048584,0.008301,1.060547,0.167939,3.603053,-0.045802,1.061692,3.607256,912,1574,662,912,0,7.968,8,load
1780594102.3316283,17.722351599994,17898,0.018555,-0.049561,1.036133,1.251908,1.900763,-0.847328,1.037483,2.428609,914,1578,664,914,0,7.968,1,load
1780594102.3622181,17.752941400001873,17929,0.075195,-0.042969,1.05542,1.572519,2.70229,-0.580153,1.058967,3.1799,915,1581,666,915,1,7.968,17,load
1780594102.3935878,17.784310999995796,17960,0.054199,-0.022949,1.054443,1.862595,2.770992,-1.770992,1.056085,3.779428,917,1584,667,917,0,7.968,8,load
1780594102.4245462,17.815269500002614,17991,0.0625,-0.025391,1.060303,1.458015,3.419847,-0.824427,1.062447,3.807998,918,1586,668,918,0,7.968,8,load
1780594102.4546678,17.84539099999529,18021,0.045654,-0.028076,1.055176,2.175573,2.778626,-1.450382,1.056536,3.815427,920,1591,671,920,1,43.011,13,load
1780594102.4871237,17.87784699999611,18052,0.025879,-0.018066,1.05542,1.587786,3.282443,-1.755725,1.055892,4.046982,923,1596,673,923,0,43.011,0,load
1780594102.5175095,17.90823279999313,18084,0.03833,-0.024658,1.062256,1.450382,2.717557,-0.687023,1.063233,3.156062,924,1598,674,924,0,43.011,7,load
1780594102.5490637,17.939786999995704,18115,-0.016846,-0.028564,1.048584,2.435115,2.221374,-1.08397,1.049108,3.469766,925,1601,676,925,1,43.011,15,load
1780594102.5803165,17.971039800002472,18146,0.05249,-0.019775,1.064941,1.206107,3.061069,-0.80916,1.066418,3.388152,927,1604,677,927,0,43.011,7,load
1780594102.6121657,18.002888999995776,18177,0.040283,-0.028564,1.042725,1.877863,3.137405,-1.282443,1.043893,3.874834,929,1609,680,929,1,43.011,13,load
1780594102.6414585,18.03218179999385,18208,0.055176,-0.007568,1.058594,1.412214,3.526718,-1.152672,1.060058,3.96998,931,1612,681,931,0,43.011,7,load
1780594102.674048,18.06477119999181,18239,0.052246,-0.014893,1.061768,0.755725,3.21374,-1.007634,1.063156,3.451749,933,1616,683,933,0,43.011,0,load
1780594102.7029989,18.093722099991282,18270,0.045654,-0.035645,1.05127,1.419847,3.0,-1.076336,1.052864,3.489193,934,1619,685,934,1,43.011,16,load
1780594102.7342615,18.124984699999914,18300,0.030762,-0.02417,1.054932,1.656489,2.587786,-1.358779,1.055657,3.359594,936,1622,686,936,0,57.348,7,load
1780594102.7651234,18.155846499998006,18331,0.040771,-0.025635,1.049561,1.10687,2.885496,-0.938931,1.050665,3.229991,937,1624,687,937,0,57.348,7,load
1780594102.796204,18.186927400005516,18362,0.050537,-0.019043,1.056396,1.748092,3.51145,-1.282443,1.057776,4.126835,938,1627,689,938,1,57.348,15,load
1780594102.8279197,18.218642899999395,18393,0.043457,-0.032715,1.053223,1.48855,3.618321,-0.954198,1.054626,4.027222,942,1632,690,942,0,57.348,6,load
1780594102.858192,18.248915200005285,18424,0.039062,-0.025391,1.054688,1.51145,3.305344,-1.21374,1.055716,3.831833,944,1637,693,944,1,57.348,13,load
1780594102.8895676,18.280290900002,18455,0.042969,-0.011963,1.053955,1.519084,3.198473,-1.061069,1.054898,3.696446,946,1640,694,946,0,57.348,6,load
1780594102.9190953,18.30981839999731,18486,0.049805,-0.03125,1.059082,1.351145,2.854962,-1.175572,1.060713,3.370218,947,1642,695,947,0,57.348,7,load
1780594102.9526277,18.343350800001645,18517,0.039795,-0.042725,1.05127,1.923664,2.740458,-1.19084,1.05289,3.553687,948,1645,697,948,1,57.348,16,load
1780594102.9816399,18.372363000002224,18548,0.02832,-0.020996,1.052002,1.587786,3.175573,-0.946565,1.052592,3.674413,951,1650,699,951,0,57.348,1,load
1780594103.0140088,18.40473189999466,18579,0.050781,-0.034912,1.0625,1.938931,2.969466,-1.793893,1.064286,3.974322,952,1652,700,952,0,57.348,6,load
1780594103.0443666,18.435089899998275,18610,0.073975,-0.037842,1.057373,2.251908,2.847328,-1.061069,1.060633,3.782094,956,1658,702,956,0,57.348,6,load
1780594103.0772634,18.46798649999255,18642,0.050049,-0.011475,1.062012,1.465649,3.114504,-0.900763,1.063252,3.558038,957,1660,703,957,0,57.348,6,load
1780594103.106741,18.497464100000798,18673,0.029297,-0.039551,1.052978,2.175573,2.610687,-1.122137,1.054128,3.578826,958,1663,705,958,1,57.348,16,load
1780594103.1379583,18.528681399999186,18704,0.047607,-0.019043,1.055176,1.480916,2.312977,-0.641221,1.056421,2.820308,960,1666,706,960,0,57.348,6,load
1780594103.1703453,18.561068499999237,18735,0.038086,-0.028809,1.055908,1.580153,2.549618,-0.549618,1.056988,3.049511,961,1668,707,961,0,57.348,6,load
1780594103.2021267,18.592849900000147,18767,0.061768,-0.040527,1.055908,1.954198,3.603053,-0.656489,1.058489,4.151128,965,1674,709,965,0,57.348,7,load
1780594103.2333786,18.624101900000824,18799,0.044434,-0.025391,1.057373,1.053435,3.519084,-0.59542,1.058611,3.721317,969,1680,711,969,0,57.348,0,load
1780594103.2643814,18.655104599994957,18830,0.039062,-0.04126,1.050049,1.40458,2.740458,-0.938931,1.051585,3.219402,970,1683,713,970,1,71.713,16,load
1780594103.294525,18.68524809999508,18861,0.048828,-0.001709,1.052246,1.343511,3.007634,-1.137405,1.05338,3.484906,972,1686,714,972,0,71.713,6,load
1780594103.3258388,18.716562100002193,18892,0.04248,-0.044189,1.053711,1.633588,2.51145,-1.259542,1.055492,3.24999,973,1688,715,973,0,71.713,6,load
1780594103.357834,18.748557300001266,18923,0.044922,-0.015625,1.058838,1.938931,3.48855,-0.648855,1.059906,4.043568,976,1692,716,976,0,71.713,6,load
1780594103.3900824,18.780805599992163,18955,0.050293,-0.019775,1.065918,0.70229,3.801527,-0.984733,1.067287,3.9893,980,1698,718,980,0,71.713,0,load
1780594103.4206743,18.811397500001476,18986,0.035889,-0.0271,1.052734,-1.725191,1.717557,-1.679389,1.053694,2.957471,982,1703,721,982,1,71.713,13,load
1780594103.4522674,18.842990699995426,19017,0.023682,-0.026367,1.025391,0.381679,3.381679,-8.793893,1.026003,9.429421,986,1708,722,986,0,71.713,6,load
1780594103.4832706,18.873993899993366,19049,0.030518,0.087891,1.022217,2.984733,3.549618,-3.717557,1.026442,5.943791,987,1710,723,987,0,71.713,5,load
1780594103.514924,18.905647199993837,19080,0.042725,-0.049561,1.058106,2.885496,2.877863,-0.21374,1.060127,4.080915,990,1714,724,990,0,80.0,7,load
1780594103.5457168,18.93643990000419,19112,0.064453,0.008057,1.067627,0.160305,3.954198,-1.137405,1.069601,4.117654,991,1716,725,991,0,80.0,6,load
1780594103.5769722,18.967695400002412,19142,0.045654,-0.068359,1.049561,1.923664,2.801527,-0.687023,1.052775,3.467137,993,1721,728,993,1,80.0,13,load
1780594103.6053584,18.996081599994795,19173,0.041016,-0.007813,1.05542,2.29771,2.29771,-0.396947,1.056245,3.273608,998,1728,730,998,0,80.0,1,load
1780594103.6362693,19.026992600003723,19202,0.040771,0.010742,1.067383,-0.061069,3.183206,-1.267176,1.068215,3.426699,999,1730,731,999,0,80.0,6,load
1780594103.6675425,19.058265799991204,19233,0.063477,-0.031982,1.060791,3.221374,3.007634,-0.473282,1.06317,4.432506,1000,1733,733,1000,1,80.0,16,load
1780594103.697777,19.088500199999544,19264,0.041504,0.002441,1.04834,1.068702,2.793893,-0.732824,1.049164,3.079772,1002,1736,734,1002,0,80.0,6,load
1780594103.7280133,19.118736499993247,19294,0.046631,-0.04248,1.061523,0.931298,2.656489,-1.572519,1.063396,3.224448,1003,1738,735,1003,0,80.0,6,load
1780594103.7587326,19.14945589999843,19325,0.063477,-0.037598,1.059082,3.519084,3.290076,-0.19084,1.061648,4.821304,1007,1744,737,1007,0,80.0,7,load
1780594103.7899606,19.180683800004772,19356,0.045654,0.01416,1.054932,-0.358779,3.854962,-1.221374,1.056014,4.059706,1011,1750,739,1011,0,76.087,0,load
1780594103.8228178,19.213541100005386,19387,0.032959,-0.069092,1.051025,2.480916,2.519084,-0.801527,1.053809,3.625352,1012,1753,741,1012,1,76.087,16,load
1780594103.8526485,19.243371799995657,19418,0.047607,-0.007813,1.045654,1.832061,2.389313,-0.687023,1.046767,3.088246,1014,1756,742,1014,0,76.087,6,load
1780594103.8839116,19.274634799992782,19449,0.035645,-0.032471,1.053223,0.442748,2.793893,-1.503817,1.054326,3.203643,1015,1758,743,1015,0,76.087,6,load
1780594103.914393,19.305116100003943,19480,0.048584,-0.018311,1.056152,3.854962,3.78626,-0.145038,1.057428,5.405324,1018,1762,744,1018,0,76.087,6,load
1780594103.945218,19.33594129999983,19511,0.041748,0.003662,1.050781,0.160305,3.267176,-0.938931,1.051617,3.403194,1020,1766,746,1020,0,76.087,1,load
1780594103.9761915,19.36691470000369,19542,0.050049,-0.038818,1.051514,2.557252,2.480916,-0.480916,1.05342,3.595242,1022,1771,749,1022,1,76.087,14,load
1780594104.0232399,19.41396309999982,19574,0.03833,-0.011475,1.046631,1.992366,2.061069,-0.923664,1.047395,3.011758,1027,1778,751,1027,0,76.087,1,load
1780594104.0394526,19.430175699992105,19605,0.039795,-0.031494,1.056396,0.51145,2.847328,-1.618321,1.057615,3.314788,1028,1780,752,1028,0,76.087,6,load
1780594104.0706906,19.461413900004118,19636,0.05957,-0.022949,1.057861,3.862595,3.847328,-0.145038,1.059786,5.453678,1031,1784,753,1031,0,71.429,7,load
1780594104.1026745,19.49339780000446,19668,0.053467,0.02124,1.068848,0.076336,3.503817,-1.038168,1.070395,3.655182,1032,1786,754,1032,0,71.429,6,load
1780594104.1345625,19.525285800002166,19699,0.03833,-0.063477,1.049316,2.549618,2.648855,-0.885496,1.051933,3.781678,1033,1789,756,1033,1,71.429,16,load
1780594104.1645737,19.55529679999745,19730,0.035156,-0.010742,1.052002,1.847328,2.916031,-0.633588,1.052644,3.5096,1038,1796,758,1038,0,71.429,1,load
1780594104.196746,19.587469299993245,19761,0.040039,-0.032227,1.060059,0.564886,2.755725,-1.633588,1.061304,3.252957,1040,1800,760,1040,0,71.429,0,load
1780594104.2267318,19.61745510000037,19792,0.053467,-0.025391,1.055664,3.312977,3.503817,-0.29771,1.057322,4.831271,1044,1806,762,1044,0,71.429,6,load
1780594104.2579713,19.648694399991655,19823,0.053223,-0.001953,1.042969,0.274809,3.206107,-1.259542,1.044328,3.455588,1045,1808,763,1045,0,71.429,5,load
1780594104.2887032,19.679426400005468,19854,0.041504,-0.044922,1.062012,2.442748,2.870229,-0.51145,1.063771,3.803527,1046,1811,765,1046,1,71.429,16,load
1780594104.3202796,19.71100280000246,19886,0.040527,-0.01123,1.046875,1.778626,2.923664,-0.580153,1.047719,3.471008,1048,1814,766,1048,0,68.0,6,load
1780594104.3511016,19.74182490000385,19917,0.03125,-0.024658,1.056641,0.534351,2.473282,-1.320611,1.05739,2.854237,1050,1818,768,1050,0,68.0,1,load
1780594104.381269,19.77199209999526,19947,0.050537,-0.019531,1.05249,3.755725,3.969466,0.183206,1.053884,5.467695,1053,1823,770,1053,0,68.0,13,load
1780594104.4116683,19.802391599994735,19978,0.04126,0.00293,1.047607,-0.076336,3.10687,-1.137405,1.048424,3.309404,1058,1830,772,1058,0,68.0,0,load
1780594104.443745,19.834468100001686,20009,0.053467,-0.048096,1.056152,2.152672,2.671756,-1.19084,1.058598,3.631856,1059,1833,774,1059,1,68.0,16,load
1780594104.4743912,19.865114400003222,20041,0.035889,-0.0271,1.049072,2.175573,2.70229,-0.78626,1.050036,3.557203,1069,1844,775,1069,0,68.0,0,load
1780594104.506677,19.897400100002415,20072,0.0354,-0.025391,1.056152,0.618321,2.954198,-1.442748,1.05705,3.345315,1070,1846,776,1070,0,68.0,6,load
1780594104.5371366,19.927859899995383,20103,0.052979,-0.017822,1.053955,3.70229,3.671756,-0.290076,1.055436,5.222345,1073,1850,777,1073,0,68.0,6,load
1780594104.568113,19.958836399993743,20134,0.039062,-0.012695,1.048096,0.167939,3.40458,-0.984733,1.0489,3.548108,1077,1856,779,1077,0,68.0,0,load
1780594104.5994616,19.9901847000001,20165,0.038818,-0.041504,1.059326,2.465649,2.526718,-0.832061,1.060849,3.627127,1079,1861,782,1079,1,111.111,14,load
1780594104.6322498,20.022972999999183,20197,0.038086,-0.002686,1.055908,1.877863,1.870229,-0.59542,1.056598,2.716367,1083,1866,783,1083,0,111.111,6,load
1780594104.6628847,20.053608000001987,20228,0.043701,-0.034424,1.051758,0.977099,2.618321,-1.229008,1.053228,3.052996,1084,1868,784,1084,0,111.111,6,load
1780594104.6934326,20.084155899996404,20260,0.04541,-0.036621,1.059814,2.870229,4.0,-0.206107,1.061419,4.927544,1087,1872,785,1087,0,111.111,6,load
1780594104.7247357,20.11545899999328,20291,0.050049,0.007813,1.053223,-0.19084,3.473282,-1.480916,1.05444,3.780638,1088,1874,786,1088,0,111.111,6,load
1780594104.7564993,20.147222400002647,20321,0.044189,-0.028564,1.059814,2.541985,2.725191,-0.671756,1.06112,3.786768,1090,1879,789,1090,1,111.111,13,load
1780594104.7875376,20.17826069999137,20353,0.041992,0.004639,1.053467,1.709924,2.618321,-0.458015,1.054314,3.160573,1095,1886,791,1095,0,111.111,1,load
1780594104.8197231,20.210446299999603,20384,0.048096,-0.039795,1.048584,1.08397,2.900763,-1.358779,1.05044,3.381671,1096,1888,792,1096,0,111.111,6,load
1780594104.8499157,20.240638899995247,20415,0.059082,-0.020264,1.051025,3.206107,3.900763,-0.083969,1.05288,5.049963,1099,1892,793,1099,0,80.0,7,load
1780594104.8812652,20.27198839999619,20447,0.041748,0.018555,1.053711,-0.137405,3.70229,-1.435114,1.054701,3.973082,1100,1894,794,1100,0,80.0,5,load
1780594104.9106607,20.30138390000502,20477,0.037354,-0.051025,1.062256,2.59542,2.450382,-0.145038,1.064136,3.57234,1101,1897,796,1101,1,80.0,16,load
1780594104.9423542,20.333077399991453,20508,0.04541,0.001465,1.055908,1.580153,2.076336,-0.664122,1.056885,2.692417,1104,1902,798,1104,0,80.0,1,load
1780594104.9733036,20.3640269000025,20539,0.042725,-0.031982,1.051514,0.274809,2.938931,-1.175572,1.052867,3.177233,1106,1906,800,1106,0,80.0,1,load
1780594105.0046082,20.395331499996246,20570,0.047363,-0.02832,1.052002,3.503817,3.244275,0.030534,1.053448,4.775247,1109,1911,802,1109,1,80.0,13,load
1780594105.0356307,20.426353999995627,20601,0.046387,-0.011475,1.045654,0.21374,3.358779,-1.221374,1.046746,3.58034,1111,1914,803,1111,0,80.0,6,load
1780594105.0668514,20.457574700005352,20632,0.039307,-0.062256,1.047607,2.48855,2.687023,-1.152672,1.050191,3.839482,1112,1917,805,1112,1,80.0,17,load
1780594105.096863,20.487586200004444,20663,0.032471,-0.00415,1.054199,2.068702,2.419847,-0.755725,1.054707,3.27205,1114,1920,806,1114,0,80.0,6,load
1780594105.1276174,20.518340599999647,20693,0.059814,-0.002197,1.07251,0.030534,3.793893,-1.335878,1.074179,4.022328,1115,1922,807,1115,0,57.554,6,load
1780594105.15862,20.54934339999454,20724,0.05957,-0.087646,1.056152,2.923664,3.236641,-0.183206,1.061456,4.365458,1117,1927,810,1117,1,57.554,13,load
1780594105.1895025,20.58022570000321,20755,0.053955,0.003418,1.03833,0.709924,2.946565,-0.916031,1.039736,3.166283,1122,1934,812,1122,0,57.554,0,load
1780594105.2216504,20.612373600000865,20786,0.032715,-0.044434,1.053467,1.007634,2.946565,-1.496183,1.054911,3.454871,1123,1936,813,1123,0,57.554,6,load
1780594105.2524614,20.643184699991252,20818,0.031982,-0.006104,1.057373,2.480916,2.763359,-0.587786,1.057874,3.759866,1126,1940,814,1126,0,57.554,6,load
1780594105.2839534,20.674676599999657,20849,0.053711,-0.005615,1.060059,0.320611,3.580153,-1.343511,1.061433,3.837357,1127,1942,815,1127,0,57.554,6,load
1780594105.3150582,20.705781399999978,20880,0.041992,-0.033691,1.058106,3.351145,3.351145,-0.343511,1.059474,4.751668,1128,1945,817,1128,1,57.554,16,load
1780594105.3456438,20.736366900004214,20912,0.043945,-0.005371,1.041504,0.099237,2.847328,-1.320611,1.042444,3.140245,1131,1950,819,1131,0,57.554,0,load
1780594105.377759,20.76848230000178,20943,0.052002,-0.052979,1.057861,2.19084,2.687023,-1.061069,1.060463,3.625705,1133,1955,822,1133,1,72.0,13,load
1780594105.4102538,20.80097699999169,20976,0.026611,-0.00293,1.050537,1.496183,2.732824,-0.748092,1.050878,3.204143,1145,1968,823,1145,0,72.0,1,load
1780594105.4410498,20.831773099998827,21007,0.031006,-0.032227,1.054443,1.061069,2.664122,-1.236641,1.055391,3.12293,1146,1970,824,1146,0,72.0,6,load
1780594105.4730282,20.863751500000944,21038,0.048828,-0.028076,1.057861,3.343511,2.946565,-0.40458,1.05936,4.47493,1149,1974,825,1149,0,72.0,6,load
1780594105.5026228,20.89334609999787,21069,0.05249,0.003418,1.049805,0.015267,3.473282,-1.076336,1.051122,3.636265,1150,1976,826,1150,0,72.0,6,load
1780594105.534445,20.9251682000031,21100,0.038574,-0.052979,1.050781,2.534351,2.572519,-0.526718,1.052823,3.649414,1152,1981,829,1152,1,72.0,13,load
1780594105.565422,20.956145200005267,21131,0.053467,-0.01123,1.054199,1.732824,2.793893,-0.725191,1.055614,3.366663,1157,1988,831,1157,0,72.0,1,load
1780594105.5965588,20.98728210000263,21162,0.030518,-0.030762,1.064209,0.625954,2.519084,-1.099237,1.065091,2.818852,1159,1992,833,1159,0,72.0,0,load
1780594105.627977,21.01870020000206,21193,0.040771,-0.019287,1.050781,3.603053,3.603053,-0.145038,1.051749,5.097551,1162,1996,834,1162,0,116.0,6,load
1780594105.6597106,21.050433900003554,21225,0.056152,0.003662,1.060791,0.21374,3.557252,-1.412214,1.062282,3.833285,1163,1998,835,1163,0,116.0,6,load
1780594105.6901987,21.08092179999221,21256,0.044434,-0.050781,1.054932,2.534351,2.557252,-0.610687,1.057087,3.651768,1164,2001,837,1164,1,116.0,16,load
1780594105.7206154,21.11133849999169,21287,0.042725,0.003174,1.049072,1.633588,2.610687,-0.862595,1.049947,3.198182,1167,2006,839,1167,0,116.0,1,load
1780594105.7530127,21.143735799996648,21318,0.043701,-0.044434,1.05835,1.076336,2.435115,-1.076336,1.060183,2.871721,1169,2010,841,1169,0,116.0,0,load
1780594105.7845957,21.175318900001002,21349,0.053955,-0.015625,1.045654,3.145038,3.763359,-0.198473,1.047162,4.908516,1173,2016,843,1173,0,116.0,6,load
1780594105.8292887,21.220012000005227,21380,0.038574,-0.016846,1.042969,0.221374,3.801527,-1.435114,1.043818,4.069418,1174,2018,844,1174,0,116.0,5,load
1780594105.8450875,21.23581070000364,21411,0.042236,-0.027832,1.060547,2.610687,2.549618,-0.717557,1.061752,3.719022,1175,2021,846,1175,1,116.0,16,load
1780594105.8776038,21.268326999997953,21443,0.034668,-0.000244,1.052246,2.083969,2.10687,-0.70229,1.052817,3.045495,1185,2032,847,1185,0,92.0,0,load
1780594105.9086854,21.29940859999624,21474,0.036865,-0.063965,1.051758,0.694656,2.580153,-1.419847,1.054346,3.025839,1186,2034,848,1186,0,92.0,6,load
1780594105.9398425,21.330565700001898,21505,0.05835,-0.016113,1.061035,3.061069,3.732824,-0.496183,1.06276,4.852867,1190,2040,850,1190,0,92.0,6,load
1780594105.970282,21.361005200000363,21536,0.056152,-0.005371,1.053223,0.503817,3.664122,-1.564886,1.054732,4.016029,1194,2046,852,1194,0,92.0,0,load
1780594106.0017958,21.39251890000014,21567,0.035645,-0.055176,1.046631,2.80916,2.824427,-0.694656,1.04869,4.043676,1195,2049,854,1195,1,92.0,17,load
1780594106.031721,21.42244429999846,21598,0.043213,-0.013184,1.059814,1.51145,2.40458,-0.687023,1.060777,2.922069,1202,2057,855,1202,0,92.0,1,load
1780594106.064319,21.455042100002174,21629,0.032715,-0.033936,1.049316,0.793893,2.748092,-1.244275,1.050375,3.119374,1203,2059,856,1203,0,92.0,6,load
1780594106.0942798,21.485003099995083,21660,0.037109,-0.018066,1.059082,3.320611,3.343511,-0.358779,1.059886,4.725912,1206,2063,857,1206,0,92.0,7,load
1780594106.1252565,21.515979699994205,21691,0.049316,0.00708,1.050781,0.183206,3.709924,-1.022901,1.051962,3.852716,1207,2065,858,1207,0,92.0,6,load
1780594106.1561542,21.54687730000296,21722,0.041992,-0.04834,1.058594,2.908397,2.59542,-0.40458,1.060528,3.919013,1209,2070,861,1209,1,86.022,14,load
1780594106.1870525,21.577775700003258,21753,0.018555,0.004883,1.042236,1.610687,2.312977,-0.435114,1.042413,2.851929,1213,2075,862,1213,0,86.022,6,load
1780594106.2181504,21.608873699995456,21784,0.02417,-0.043213,1.050293,0.732824,2.862595,-0.946565,1.051459,3.102816,1214,2077,863,1214,0,86.022,6,load
1780594106.24935,21.640073300004588,21815,0.049805,-0.015869,1.055664,3.076336,3.427481,-0.183206,1.056957,4.609234,1216,2080,864,1216,0,86.022,15,load
1780594106.2805638,21.67128710000543,21846,0.04126,-0.027344,1.048096,0.022901,3.122137,-0.725191,1.049264,3.205334,1218,2083,865,1218,0,86.022,6,load
1780594106.3114595,21.702182699998957,21877,0.041016,-0.039062,1.059082,2.236641,2.908397,-0.664122,1.060596,3.728592,1219,2086,867,1219,1,86.022,16,load
1780594106.3439488,21.734672099992167,21908,0.039307,-0.015869,1.043213,1.465649,2.78626,-0.458015,1.044074,3.181375,1223,2091,868,1223,0,86.022,0,load
1780594106.3745632,21.76528639999742,21940,0.017334,-0.039795,1.05127,0.877863,2.877863,-0.908397,1.052165,3.142916,1225,2095,870,1225,0,86.022,1,load
1780594106.4045389,21.79526220000116,21971,0.049805,-0.00415,1.062744,2.610687,3.549618,-0.519084,1.063919,4.43677,1228,2100,872,1228,1,86.022,13,load
1780594106.435724,21.826447200000985,22001,0.046387,-0.022705,1.041992,0.625954,3.183206,-0.435114,1.043271,3.273216,1230,2103,873,1230,0,75.269,6,load
1780594106.4663618,21.857084999996005,22032,0.048828,-0.048828,1.046631,2.152672,3.175573,-0.740458,1.048906,3.907241,1231,2106,875,1231,1,75.269,16,load
1780594106.4971068,21.88782999999239,22063,0.056396,-0.018311,1.059814,2.122137,2.641221,-1.541985,1.061472,3.722531,1233,2109,876,1233,0,75.269,6,load
1780594106.5286815,21.91940469999099,22094,0.060059,-0.029785,1.056396,1.48855,2.633588,-0.870229,1.058522,3.147835,1235,2113,878,1235,0,75.269,1,load
1780594106.5590658,21.949788999991142,22125,0.076172,-0.047363,1.057617,1.259542,3.526718,0.007634,1.061414,3.744896,1237,2118,881,1237,1,75.269,13,load
1780594106.589377,21.980100100001437,22156,0.065918,-0.002197,1.061523,1.625954,3.282443,-0.473282,1.06357,3.693529,1241,2123,882,1241,0,75.269,7,load
1780594106.621563,22.012286199998925,22187,0.034912,-0.035889,1.066406,2.129771,1.984733,-1.396947,1.067581,3.229017,1242,2125,883,1242,0,75.269,6,load
1780594106.6515496,22.04227269999683,22218,0.037354,-0.004395,1.061523,1.748092,3.229008,-1.0,1.062189,3.805564,1245,2129,884,1245,0,75.269,7,load
1780594106.683929,22.074652199997217,22249,0.054688,-0.017578,1.067627,1.366412,2.412214,-0.610687,1.069171,2.838802,1246,2131,885,1246,0,75.269,6,load
1780594106.7147577,22.105480800004443,22280,0.046631,-0.017822,1.062012,1.251908,2.961832,0.030534,1.063184,3.215689,1247,2134,887,1247,1,60.932,16,load
1780594106.7464447,22.13716800000111,22311,0.030029,-0.033447,1.045166,2.091603,3.007634,-1.290076,1.046132,3.883936,1249,2137,888,1249,0,60.932,6,load
1780594106.7759304,22.166653599997517,22342,0.021973,-0.011719,1.062012,1.717557,3.175573,-1.351145,1.062304,3.854849,1250,2139,889,1250,0,60.932,6,load
1780594106.807627,22.198350299993763,22373,0.036133,-0.046387,1.052734,1.977099,2.801527,-1.610687,1.054375,3.788375,1251,2142,891,1251,1,60.932,16,load
1780594106.8380158,22.228738999998313,22404,0.028564,-0.012939,1.054443,2.374046,2.687023,-2.183206,1.05491,4.197925,1253,2145,892,1253,0,60.932,6,load
1780594106.8757026,22.266425800000434,22435,0.037842,-0.023926,1.060791,1.48855,2.709924,-1.053435,1.061735,3.266373,1254,2147,893,1254,0,60.932,7,load
1780594106.9066608,22.297384099991177,22472,0.046875,-0.016113,1.057129,1.961832,2.793893,-1.687023,1.05829,3.807974,1259,2153,894,1259,0,60.932,7,load
1780594106.9373708,22.328094099997543,22503,0.045654,-0.02832,1.054199,1.618321,2.48855,-0.824427,1.055567,3.080831,1261,2157,896,1261,0,60.932,0,load
1780594106.968782,22.359505200001877,22534,0.042969,-0.012451,1.044434,1.633588,3.221374,-1.977099,1.045391,4.117618,1264,2161,897,1264,0,66.929,7,load
1780594106.998851,22.389574300003005,22565,0.029541,-0.021973,1.058838,1.068702,2.832061,-0.862595,1.059478,3.147502,1265,2163,898,1265,0,66.929,6,load
1780594107.0301204,22.420843700005207,22596,0.040771,-0.016113,1.05835,1.725191,2.816794,-0.51145,1.059257,3.342483,1266,2166,900,1266,1,66.929,16,load
1780594107.0616586,22.452381900002365,22627,0.043213,-0.023682,1.057373,1.145038,2.633588,-1.48855,1.058521,3.234606,1269,2171,902,1269,0,66.929,1,load
1780594107.0922976,22.48302089999197,22658,0.054932,-0.025879,1.074219,0.862595,3.427481,-0.664122,1.075934,3.596214,1270,2173,903,1270,0,66.929,7,load
1780594107.1229098,22.513633099995786,22689,0.050537,-0.022461,1.060547,1.526718,2.664122,-1.152672,1.061988,3.279797,1272,2178,906,1272,1,66.929,12,load
1780594107.1556726,22.546395700002904,22720,0.053223,-0.020752,1.061035,1.725191,3.022901,-0.961832,1.062572,3.611002,1274,2181,907,1274,0,66.929,7,load
1780594107.1853473,22.576070499999332,22751,0.039062,-0.029785,1.064209,0.709924,2.870229,-0.465649,1.065342,2.993165,1275,2183,908,1275,0,66.929,6,load
1780594107.2162225,22.606945799998357,22782,0.051025,-0.034424,1.046875,2.519084,3.282443,-3.40458,1.048683,5.3583,1278,2187,909,1278,0,66.929,7,load
1780594107.2469234,22.63764669999364,22812,0.057129,-0.037842,1.058594,1.389313,2.954198,-2.167939,1.060809,3.918857,1279,2189,910,1279,0,53.957,7,load
1780594107.2787695,22.66949279999244,22843,0.064453,-0.023926,1.051758,1.396947,3.847328,-0.351145,1.054002,4.108126,1280,2191,911,1280,1,53.957,5,load
1780594107.3091667,22.699890000003506,22875,0.05127,-0.012695,1.051025,1.007634,3.618321,-0.755725,1.052352,3.831278,1283,2195,912,1283,0,53.957,6,load
1780594107.341259,22.731982199999038,22906,0.040527,-0.011719,1.057861,1.221374,3.358779,-0.458015,1.058702,3.603183,1284,2197,913,1284,0,53.957,7,load
1780594107.3716214,22.762344699993264,22937,0.043945,-0.01709,1.055664,1.435114,3.305344,-0.244275,1.056717,3.61172,1285,2200,915,1285,1,53.957,16,load
1780594107.4035535,22.794276699991315,22968,0.04248,-0.02832,1.05127,1.961832,2.770992,-1.78626,1.052509,3.836392,1289,2205,916,1289,0,53.957,0,load
1780594107.4333997,22.824122799996985,22999,0.052246,-0.028809,1.060303,1.389313,3.335878,-0.687023,1.06198,3.678352,1290,2207,917,1290,0,53.957,7,load
1780594107.4628458,22.85356899999897,23029,0.045166,-0.024658,1.055664,1.10687,2.59542,-0.931298,1.056918,2.97131,1292,2212,920,1292,1,53.957,13,load
1780594107.4942784,22.885001699993154,23060,0.065674,-0.003662,1.062256,1.587786,3.442748,0.78626,1.06429,3.871922,1294,2215,921,1294,0,53.957,7,load
1780594107.5247192,22.915442500001518,23091,0.039795,-0.030029,1.051025,1.725191,3.244275,-1.29771,1.052207,3.896878,1295,2217,922,1295,0,57.348,7,load
1780594107.5568905,22.947613700001966,23122,0.054932,-0.01001,1.060791,1.656489,3.389313,-0.442748,1.062259,3.798345,1296,2220,924,1296,1,57.348,17,load
1780594107.5873985,22.978121799998917,23153,0.062256,-0.019043,1.061523,1.519084,3.580153,-0.618321,1.063518,3.937948,1300,2225,925,1300,0,57.348,7,load
1780594107.6181548,23.008878099994035,23184,0.05127,-0.019287,1.045898,1.221374,4.763358,-0.770992,1.047332,4.977526,1302,2229,927,1302,0,57.348,1,load
1780594107.649578,23.040301400003955,23215,0.068359,-0.033447,1.047852,1.824428,3.519084,-0.59542,1.050612,4.008368,1304,2232,928,1304,1,57.348,16,load
1780594107.6807957,23.071518900003866,23246,0.076904,0.007813,1.065186,1.251908,3.931298,-1.572519,1.067987,4.415336,1306,2235,929,1306,0,57.348,7,load
1780594107.710511,23.10123420000309,23277,0.040283,-0.018311,1.047607,1.045802,3.923664,0.022901,1.048542,4.06071,1308,2239,931,1308,0,57.348,0,load
1780594107.7404134,23.13113670000166,23307,-0.039551,-0.003418,1.076904,2.038168,0.473282,-1.732824,1.077636,2.716764,1309,2242,933,1309,1,57.348,17,load
1780594107.7711208,23.16184410000278,23338,0.017822,-0.008301,1.051514,1.977099,2.29771,-1.793893,1.051697,3.522278,1311,2245,934,1311,0,57.348,8,load
1780594107.8019183,23.192641400004504,23368,0.05835,-0.010254,1.050781,1.641221,4.282442,-1.206107,1.05245,4.742111,1312,2247,935,1312,0,61.372,7,load
1780594107.8357031,23.226426299996092,23399,0.07666,-0.0271,1.061035,2.229008,2.122137,-1.557252,1.064146,3.449199,1313,2249,936,1313,0,61.372,7,load
1780594107.8659317,23.256655000004685,23430,0.045898,-0.032715,1.053955,1.145038,3.091603,1.099237,1.055461,3.475262,1314,2251,937,1314,0,61.372,6,load
1780594107.8970537,23.287777000005008,23462,0.045166,-0.010742,1.074707,1.137405,2.709924,-0.366412,1.075709,2.961694,1315,2254,939,1315,1,61.372,20,load
1780594107.9302845,23.3210076999967,23494,0.040527,0.009277,1.041016,1.725191,2.244275,-1.259542,1.041846,3.098306,1316,2256,940,1316,1,61.372,18,load
1780594107.9676483,23.35837139999785,23525,0.037354,-0.025391,1.057373,3.099237,2.183206,-3.251908,1.058337,4.994654,1317,2258,941,1317,1,61.372,15,load
1780594107.9917436,23.382466700000805,23557,0.06958,-0.009033,1.064941,1.748092,4.038168,-0.10687,1.06725,4.401596,1319,2261,942,1319,0,61.372,9,load
1780594108.0238528,23.41457609999634,23588,0.014648,-0.017578,1.062988,2.366412,3.061069,-2.801527,1.063235,4.776882,1320,2263,943,1320,0,61.372,9,load
1780594108.0543356,23.44505890000437,23619,0.067871,-0.047119,1.064209,1.458015,3.877863,0.19084,1.067412,4.147294,1321,2265,944,1321,0,35.857,8,load
1780594108.0853603,23.47608350000519,23650,0.044189,-0.030273,1.062988,1.21374,3.335878,-0.526718,1.064337,3.588688,1322,2267,945,1322,0,35.857,8,load
1780594108.1151822,23.50590540000121,23681,0.004639,-0.019531,1.061035,1.694656,1.022901,-1.91603,1.061225,2.754879,1323,2269,946,1323,0,35.857,6,load
1780594108.1468425,23.537565699996776,23712,0.029785,-0.026611,1.062988,2.458015,2.70229,-2.671756,1.063738,4.525758,1324,2272,948,1324,1,35.857,17,load
1780594108.1774862,23.568209399993066,23743,0.049316,-0.016113,1.040039,1.335878,2.870229,-1.160305,1.041332,3.371808,1326,2275,949,1326,0,35.857,8,load
1780594108.2091837,23.599906999996165,23774,0.049316,-0.021973,1.054199,1.496183,3.160305,-1.076336,1.055581,3.658496,1327,2277,950,1327,0,35.857,7,load
1780594108.2398093,23.63053249999939,23805,0.053223,-0.010986,1.055664,1.358779,3.923664,-1.21374,1.057062,4.326036,1330,2282,952,1330,1,35.857,13,load
1780594108.2712016,23.6619248999923,23836,0.060547,-0.0271,1.059326,0.992366,3.519084,-1.099237,1.061401,3.817992,1333,2287,954,1333,0,35.857,1,load
1780594108.3025649,23.693288099995698,23867,0.053955,-0.026367,1.051514,1.450382,3.267176,-1.351145,1.053227,3.82147,1334,2289,955,1334,0,35.857,6,load
1780594108.3334982,23.724221399999806,23898,0.047119,-0.01001,1.056641,1.21374,3.687023,-0.862595,1.057738,3.976352,1337,2293,956,1337,0,57.348,7,load
1780594108.3633173,23.75404040000285,23929,0.03418,-0.004395,1.0625,1.022901,3.610687,-0.877863,1.063059,3.854092,1338,2295,957,1338,0,57.348,7,load
1780594108.394272,23.78499539999757,23959,0.051514,-0.010498,1.055908,1.633588,2.801527,-0.80916,1.057216,3.34244,1339,2298,959,1339,1,57.348,16,load
1780594108.4263,23.817023299998255,23991,0.039062,-0.022949,1.056396,1.694656,2.671756,-1.351145,1.057367,3.44031,1343,2303,960,1343,0,57.348,7,load
1780594108.456597,23.847320300003048,24022,0.048828,-0.026123,1.057373,1.534351,3.381679,-1.053435,1.058822,3.860015,1344,2305,961,1344,0,57.348,6,load
1780594108.4885156,23.879238900000928,24053,0.04248,-0.038818,1.045654,1.396947,3.755725,-0.977099,1.047236,4.124518,1346,2308,962,1346,1,57.348,15,load
1780594108.5181687,23.908891999992193,24084,0.040283,-0.015137,1.059082,1.694656,3.221374,-0.748092,1.059956,3.716013,1348,2311,963,1348,0,57.348,7,load
1780594108.5515573,23.942280599992955,24115,0.059082,-0.01416,1.060547,1.938931,2.534351,-1.08397,1.062286,3.370071,1349,2314,965,1349,1,57.348,16,load
1780594108.5830207,23.973743800001102,24148,0.036865,0.001709,1.062256,1.267176,2.862595,-1.290076,1.062897,3.385924,1360,2326,966,1360,0,92.0,0,load
1780594108.6133745,24.004097800003365,24179,0.05249,-0.019775,1.054199,1.366412,2.931298,-1.045802,1.05569,3.399013,1361,2328,967,1361,0,92.0,6,load
1780594108.6437445,24.03446779999649,24210,0.057373,-0.03833,1.057861,1.580153,3.847328,-0.70229,1.060109,4.21806,1364,2332,968,1364,0,92.0,7,load
1780594108.676914,24.067637100000866,24241,0.041992,-0.025635,1.057617,1.251908,3.496183,-1.450382,1.058761,3.98675,1367,2336,969,1367,0,92.0,6,load
1780594108.7056687,24.096391999992193,24272,0.059814,-0.03418,1.055908,2.183206,3.29771,-1.038168,1.058153,4.088896,1368,2339,971,1368,1,92.0,16,load
1780594108.7368402,24.127563499991084,24303,0.034668,-0.002686,1.048584,0.625954,3.259542,-1.450382,1.04916,3.62216,1370,2342,972,1370,0,92.0,7,load
1780594108.7688718,24.15959510000539,24334,0.040771,-0.044434,1.058594,1.351145,3.48855,-0.183206,1.06031,3.745549,1372,2346,974,1372,0,92.0,1,load
1780594108.7992454,24.189968599996064,24364,0.062256,-0.032715,1.047852,1.351145,3.175573,-0.656489,1.050209,3.512952,1373,2349,976,1373,1,92.0,15,load
1780594108.8300114,24.220734499991522,24395,0.031006,-0.010254,1.07373,1.549618,2.557252,-1.358779,1.074227,3.284377,1375,2352,977,1375,0,92.0,7,load
1780594108.8602815,24.251004699995974,24426,0.048096,-0.022461,1.060791,1.320611,2.984733,-1.08397,1.062118,3.439133,1376,2354,978,1376,0,57.554,7,load
1780594108.8921766,24.28289980000409,24457,0.045898,-0.017334,1.060791,2.312977,3.160305,-0.78626,1.061925,3.994446,1377,2357,980,1377,1,57.554,16,load
1780594108.92169,24.312413199993898,24488,0.043945,-0.008301,1.051025,0.877863,3.374046,-0.832061,1.051976,3.584293,1379,2360,981,1379,0,57.554,6,load
1780594108.9540217,24.344744999994873,24519,0.056396,-0.022461,1.053711,1.870229,3.221374,-1.038168,1.055458,3.866885,1381,2364,983,1381,0,57.554,1,load
1780594108.9853363,24.376059499991243,24550,0.069092,-0.022949,1.065918,1.740458,3.885496,-0.725191,1.068401,4.318816,1384,2368,984,1384,0,57.554,7,load
1780594109.016485,24.407208100004937,24581,0.024902,-0.022217,1.058594,0.885496,2.89313,-0.442748,1.05912,3.057831,1387,2372,985,1387,0,57.554,7,load
1780594109.0479693,24.43869249999989,24613,0.031982,-0.017578,1.058838,1.351145,2.641221,-1.358779,1.059467,3.263116,1388,2375,987,1388,1,57.554,17,load
1780594109.080019,24.470742199991946,24644,0.032471,-0.014648,1.054932,1.610687,2.580153,-1.236641,1.055533,3.28341,1390,2378,988,1390,0,57.554,7,load
1780594109.110993,24.501716099999612,24676,0.0354,-0.030029,1.065186,1.694656,2.916031,-1.748092,1.066197,3.798805,1394,2384,990,1394,0,72.0,0,load
1780594109.1426039,24.53332699999737,24707,0.029785,-0.040283,1.045654,1.40458,3.503817,-0.687023,1.046854,3.836871,1395,2386,991,1395,0,72.0,7,load
1780594109.1735933,24.564316599993617,24738,0.05249,-0.012451,1.054688,1.396947,3.969466,-1.396947,1.056066,4.433912,1396,2389,993,1396,1,72.0,17,load
1780594109.2041647,24.594887999992352,24769,0.029297,-0.032959,1.050293,2.076336,1.908397,-1.946565,1.051218,3.426699,1400,2394,994,1400,0,72.0,7,load
1780594109.2356927,24.626415899998392,24800,0.059326,-0.03833,1.057129,2.160305,3.992366,-1.122137,1.059486,4.676013,1403,2398,995,1403,0,72.0,8,load
1780594109.265979,24.65670229999523,24831,0.047119,-0.042725,1.076416,0.78626,2.763359,-0.160305,1.078294,2.877508,1404,2400,996,1404,0,72.0,7,load
1780594109.2961936,24.68691679999756,24862,0.064697,-0.034912,1.070801,1.80916,3.122137,-0.465649,1.073321,3.638356,1406,2404,998,1406,0,72.0,0,load
1780594109.3276954,24.718418499993277,24893,0.062012,-0.009277,1.047119,1.648855,3.870229,0.236641,1.048995,4.213478,1407,2406,999,1407,0,72.0,5,load
1780594109.35907,24.749793399998453,24924,0.035156,0.02124,1.047363,1.870229,3.656489,-0.465649,1.048168,4.13334,1408,2408,1000,1408,0,72.0,4,load
1780594109.3903632,24.781086499991943,24955,0.070801,-0.032227,1.060791,-0.167939,4.198474,0.534351,1.063639,4.235672,1409,2410,1001,1409,0,53.763,5,load
1780594109.4213831,24.81210629999987,24986,0.042969,0.094971,1.058594,1.061069,3.251908,-0.671756,1.063714,3.485976,1410,2412,1002,1410,0,53.763,8,load
1780594109.4522717,24.842994899998303,25017,0.043457,0.090088,1.07373,1.435114,2.603053,-2.633588,1.078379,3.9713,1411,2414,1003,1411,0,53.763,10,load
1780594109.4836948,24.87441809999291,25048,0.05249,-0.073486,1.064697,-0.068702,2.969466,-1.305344,1.06852,3.244436,1412,2416,1004,1412,0,53.763,10,load
1780594109.5157542,24.906477399999858,25080,0.117188,-0.161621,1.029053,2.832061,5.435114,0.160305,1.048238,6.130802,1412,2417,1005,1412,1,53.763,27,load
1780594109.5460415,24.936764800004312,25111,0.025635,0.016846,1.051514,3.641221,3.366412,-1.022901,1.051961,5.063354,1413,2419,1006,1413,1,53.763,18,load
1780594109.5794427,24.970165899998392,25143,0.053467,-0.092285,1.061035,0.793893,4.251908,0.687023,1.066382,4.37961,1414,2420,1006,1414,0,53.763,13,load
1780594109.60893,24.999653399994713,25174,0.015869,0.040039,1.047852,2.29771,3.267176,-0.679389,1.048736,4.051602,1415,2422,1007,1415,0,53.763,1,load
1780594109.6398163,25.030539600003976,25205,0.023926,0.000977,1.057617,2.221374,2.625954,-0.648855,1.057888,3.500164,1416,2424,1008,1416,0,28.0,8,load
1780594109.6714795,25.062202699991758,25236,0.063477,-0.144775,1.033936,2.10687,3.938931,-1.679389,1.04595,4.772256,1417,2426,1009,1417,0,28.0,11,load
1780594109.702021,25.092743999994127,25267,0.018311,-0.085938,1.055176,0.709924,2.435115,-2.396947,1.058828,3.489861,1417,2427,1010,1417,1,28.0,28,load
