host_epoch_s,host_elapsed_s,time_ms,ax,ay,az,gx,gy,gz,acc_mag,gyro_mag,pulse_count,edge_count,rise_count,fall_count,state,pulse_rate_hz,last_edge_dt_ms,label
1780599113.5664494,0.02601640000648331,250,0.053467,-0.031982,1.054688,1.419847,3.10687,-1.022901,1.056526,3.565801,18,30,12,18,0,72.0,1,damping
1780599113.5973973,0.05696430000534747,281,0.054199,-0.043213,1.057373,1.610687,3.053435,-0.740458,1.059643,3.53073,19,33,14,19,1,72.0,16,damping
1780599113.6281219,0.08768900000723079,312,0.029053,-0.025391,1.042236,1.763359,2.549618,-1.396947,1.04295,3.400213,21,36,15,21,0,72.0,6,damping
1780599113.6583374,0.11790440000186209,343,0.048584,-0.035889,1.06665,1.778626,2.679389,-0.755725,1.068359,3.303598,22,38,16,22,0,72.0,6,damping
1780599113.6896021,0.14916919999814127,374,0.035156,-0.029541,1.052734,1.78626,2.48855,-0.969466,1.053735,3.213015,24,43,19,24,1,72.0,13,damping
1780599113.7205567,0.18012390000512823,405,0.056641,-0.015381,1.052246,1.351145,2.496183,-1.022901,1.053882,3.017093,27,48,21,27,0,72.0,1,damping
1780599113.7513804,0.2109474000026239,436,0.031494,-0.033447,1.066162,1.885496,2.587786,-1.206107,1.067151,3.421466,28,50,22,28,0,72.0,7,damping
1780599113.783301,0.24286820000270382,467,0.035156,-0.036377,1.050293,2.687023,2.885496,-1.21374,1.051511,4.125451,29,53,24,29,1,72.0,16,damping
1780599113.819383,0.2789500000071712,498,0.034912,-0.0271,1.050537,2.221374,3.305344,-1.0,1.051466,4.106068,31,56,25,31,0,72.0,6,damping
1780599113.8441975,0.3037647000019206,528,0.02002,-0.032471,1.058594,1.40458,2.496183,-1.21374,1.059281,3.110778,33,60,27,33,0,53.957,1,damping
1780599113.8756166,0.33518360000743996,559,0.051514,-0.026611,1.05542,1.870229,2.80916,-0.862595,1.057011,3.483276,34,63,29,34,1,53.957,16,damping
1780599113.906684,0.36625089999870397,590,0.055664,-0.012207,1.061768,0.603053,3.381679,-0.816794,1.063296,3.530804,38,68,30,38,0,53.957,7,damping
1780599113.9378188,0.39738589999615215,621,0.048828,-0.024902,1.05835,1.923664,3.145038,-0.671756,1.059768,3.7474,39,70,31,39,0,53.957,7,damping
1780599113.9674225,0.42698960000416264,652,0.057861,-0.027588,1.058594,2.091603,3.618321,-0.625954,1.060533,4.225976,41,73,32,41,1,53.957,14,damping
1780599113.9989817,0.4585488000011537,683,0.054688,-0.037598,1.052978,1.351145,3.305344,-0.847328,1.055068,3.669994,44,78,34,44,0,53.957,1,damping
1780599114.0307755,0.49034250000840984,714,0.051758,-0.052734,1.049805,1.587786,3.946565,-0.564886,1.052402,4.291333,45,80,35,45,0,53.957,6,damping
1780599114.0610285,0.5205954999983078,745,0.067627,-0.033203,1.066162,1.335878,3.167939,-0.977099,1.068821,3.574231,50,86,36,50,0,53.957,7,damping
1780599114.093146,0.5527130999980727,777,0.034912,-0.029297,1.067383,1.80916,2.954198,-1.076336,1.068355,3.627513,51,88,37,51,0,53.957,6,damping
1780599114.123934,0.5835012000025017,808,0.039307,-0.026855,1.053223,2.419847,2.610687,-1.305344,1.054298,3.791473,52,91,39,52,1,67.857,16,damping
1780599114.1554642,0.6150312000099802,839,0.028809,-0.01001,1.057617,1.862595,2.496183,-1.099237,1.058057,3.302804,55,96,41,55,0,67.857,1,damping
1780599114.1863413,0.6459084000089206,870,0.037354,-0.01709,1.057617,1.519084,2.160305,-1.48855,1.058415,3.031553,56,98,42,56,0,67.857,7,damping
1780599114.2175438,0.6771107999957167,901,0.056152,-0.039551,1.052246,1.419847,2.984733,-0.984733,1.054485,3.448811,58,103,45,58,1,67.857,14,damping
1780599114.247972,0.7075391999969725,932,0.059082,-0.031982,1.05127,1.51145,2.977099,-0.832061,1.053414,3.440919,60,106,46,60,0,67.857,6,damping
1780599114.2800314,0.7395985000039218,963,0.06665,-0.04126,1.057617,1.389313,2.732824,-0.770992,1.060518,3.161163,61,108,47,61,0,67.857,7,damping
1780599114.3100731,0.7696402000001399,994,0.060303,-0.031982,1.063232,1.167939,3.496183,-1.0,1.065421,3.819343,63,111,48,63,1,67.857,15,damping
1780599114.3417547,0.8013216999970609,1025,0.051025,-0.027344,1.041748,1.717557,3.061069,-1.045802,1.043355,3.662492,67,116,49,67,0,67.857,7,damping
1780599114.3724797,0.8320467000012286,1056,0.056152,-0.026855,1.060791,1.503817,3.328244,-0.992366,1.062616,3.784636,69,120,51,69,0,67.857,0,damping
1780599114.4034061,0.8629730999964522,1087,0.060791,-0.032227,1.057861,1.664122,3.610687,-0.847328,1.060096,4.065013,72,124,52,72,0,71.685,7,damping
1780599114.4346178,0.8941848999966169,1118,0.048096,-0.026855,1.049072,1.351145,3.526718,-0.984733,1.050517,3.902952,73,126,53,73,0,71.685,7,damping
1780599114.4653225,0.92488950000552,1149,0.037109,-0.041016,1.055176,1.687023,3.824427,-0.847328,1.056624,4.265004,74,129,55,74,1,71.685,16,damping
1780599114.4974227,0.9569898000045214,1180,0.043457,-0.0271,1.064697,1.625954,2.946565,-0.748092,1.065928,3.447552,78,134,56,78,0,71.685,7,damping
1780599114.5264122,0.9859792000061134,1211,0.024902,-0.03125,1.057861,1.045802,3.312977,-1.038168,1.058616,3.625922,80,138,58,80,0,71.685,0,damping
1780599114.5560043,1.0155712999985553,1241,0.049561,-0.022949,1.049316,1.29771,2.534351,-1.091603,1.050737,3.049358,81,141,60,81,1,71.685,16,damping
1780599114.5905147,1.0500818000000436,1272,0.025146,-0.02124,1.049805,1.48855,2.679389,-1.030534,1.050321,3.233714,83,144,61,83,0,71.685,7,damping
1780599114.6188107,1.0783778000040911,1303,0.050537,-0.029785,1.065186,1.877863,2.824427,-1.0,1.0668,3.536065,84,146,62,84,0,71.685,7,damping
1780599114.6490486,1.108615600009216,1333,0.027588,-0.017578,1.060303,1.480916,2.916031,-1.412214,1.060807,3.5624,86,151,65,86,1,71.685,14,damping
1780599114.6798403,1.1394072999974014,1363,0.057617,-0.034912,1.05957,1.526718,2.877863,-0.740458,1.06171,3.340844,90,157,67,90,0,65.217,2,damping
1780599114.7109404,1.1705074000055902,1394,0.044678,-0.039062,1.064209,1.664122,3.229008,-0.564886,1.065862,3.67626,92,160,68,92,0,65.217,7,damping
1780599114.7407887,1.2003556999989087,1425,0.038818,-0.029785,1.055176,2.068702,2.687023,-1.08397,1.05631,3.560142,93,163,70,93,1,65.217,16,damping
1780599114.7719333,1.2315004999982193,1456,0.04126,-0.013916,1.057129,2.045802,2.603053,-1.137405,1.058025,3.500697,95,166,71,95,0,65.217,7,damping
1780599114.8032877,1.2628548000066075,1487,0.036377,-0.027588,1.055664,1.78626,2.374046,-1.160305,1.056651,3.189534,97,170,73,97,0,65.217,0,damping
1780599114.8338115,1.2933787000074517,1518,0.05542,-0.034912,1.053711,1.320611,2.816794,-1.305344,1.055745,3.373761,98,173,75,98,1,65.217,16,damping
1780599114.865748,1.3253151000099024,1549,0.054199,-0.014648,1.060059,1.435114,3.290076,-0.862595,1.061544,3.691643,102,178,76,102,0,65.217,7,damping
1780599114.8960025,1.3555696999974316,1580,0.024902,-0.0354,1.061279,1.969466,3.435115,-1.145038,1.062161,4.121883,103,180,77,103,0,65.217,7,damping
1780599114.9289281,1.388495100007276,1611,0.049072,-0.044922,1.061768,1.89313,3.251908,-1.175572,1.06385,3.942184,105,183,78,105,1,65.217,15,damping
1780599114.9592035,1.418770600008429,1642,0.053711,-0.038818,1.062012,1.335878,3.526718,-0.969466,1.064077,3.893863,108,188,80,108,0,64.516,0,damping
1780599114.9904122,1.4499792999995407,1673,0.04126,-0.01001,1.063965,1.229008,3.419847,-1.145038,1.064812,3.810109,109,190,81,109,0,64.516,6,damping
1780599115.020745,1.4803119999996852,1704,0.05835,-0.029541,1.060303,1.572519,3.946565,-0.648855,1.062318,4.297581,112,196,84,112,0,64.516,8,damping
1780599115.0517242,1.5112913000048138,1736,0.05835,-0.015869,1.064697,1.656489,3.381679,-0.656489,1.066413,3.822393,113,198,85,113,0,64.516,7,damping
1780599115.084265,1.5438320999965072,1767,0.051514,-0.014404,1.054932,1.305344,2.801527,-1.068702,1.056287,3.27026,114,201,87,114,1,64.516,16,damping
1780599115.1155198,1.575086900003953,1798,0.032959,-0.026367,1.057373,2.137405,2.778626,-1.290076,1.058215,3.735446,118,206,88,118,0,64.516,0,damping
1780599115.1449,1.6044670999981463,1829,0.023682,-0.03125,1.059082,1.969466,3.10687,-0.687023,1.059808,3.742117,119,208,89,119,0,64.516,7,damping
1780599115.1751637,1.6347308999975212,1859,0.019531,-0.021729,1.042725,2.152672,2.40458,-1.030534,1.043134,3.38792,121,213,92,121,1,64.516,13,damping
1780599115.2066603,1.6662272999965353,1890,0.016602,-0.00293,1.051514,1.656489,2.641221,-1.053435,1.051649,3.290856,123,216,93,123,0,64.516,7,damping
1780599115.2378454,1.6974125999986427,1921,0.05249,-0.017822,1.061035,1.40458,2.679389,-0.954198,1.062482,3.172139,124,218,94,124,0,57.348,7,damping
1780599115.268178,1.7277449999965029,1952,0.038086,-0.023193,1.047852,1.259542,2.908397,-0.923664,1.0488,3.301268,125,221,96,125,1,57.348,16,damping
1780599115.2992966,1.7588636000000406,1983,0.035889,-0.00708,1.057861,1.229008,2.625954,-0.938931,1.058494,3.04757,129,226,97,129,0,57.348,7,damping
1780599115.3306143,1.7901813000062248,2014,0.038086,-0.032471,1.058106,1.526718,2.618321,-0.870229,1.059288,3.153374,131,230,99,131,0,57.348,0,damping
1780599115.3622782,1.821845200000098,2045,0.021729,0.010254,0.946777,2.015267,3.374046,-0.977099,0.947082,4.049718,133,233,100,133,1,57.348,15,damping
1780599115.3922303,1.8517972999979975,2076,0.058594,-0.034424,1.079834,2.160305,2.816794,-1.053435,1.08197,3.702833,135,236,101,135,0,57.348,7,damping
1780599115.4228375,1.8824045000073966,2107,0.052246,-0.006104,0.969727,1.801527,3.076336,-0.877863,0.971152,3.67151,136,238,102,136,0,57.348,7,damping
1780599115.4532163,1.9127834000100847,2137,0.028076,-0.034668,1.04126,1.931298,2.954198,-1.290076,1.042215,3.757858,139,243,104,139,1,57.348,14,damping
1780599115.4849443,1.9445112999965204,2168,0.046143,-0.030273,1.050049,1.59542,3.290076,-0.709924,1.051498,3.724776,142,248,106,142,0,57.348,0,damping
1780599115.5156367,1.9752038000005996,2199,0.023682,-0.030273,1.04834,1.183206,3.580153,-0.648855,1.049044,3.826027,143,250,107,143,0,68.345,6,damping
1780599115.5475433,2.0071103000082076,2230,0.048096,-0.033447,1.052734,1.78626,3.381679,-0.824427,1.054363,3.912309,146,254,108,146,0,68.345,7,damping
1780599115.5788403,2.0384074000030523,2262,0.056152,-0.034424,1.054443,0.709924,3.465649,-0.48855,1.056498,3.57119,147,256,109,147,0,68.345,7,damping
1780599115.609611,2.069178200006718,2293,0.018799,-0.033447,1.051514,0.992366,2.900763,-0.732824,1.052213,3.152182,149,261,112,149,1,68.345,14,damping
1780599115.6413288,2.1008958000020357,2325,0.020264,-0.013672,1.053955,1.343511,2.503817,-0.870229,1.054238,2.97177,159,273,114,159,0,68.345,0,damping
1780599115.672528,2.1320951000088826,2356,0.047363,-0.036865,1.056396,1.832061,2.167939,-0.954198,1.0581,2.994478,160,275,115,160,0,68.345,7,damping
1780599115.712559,2.172126000004937,2387,0.061523,-0.016357,1.066406,2.70229,3.091603,-1.122137,1.068305,4.256709,161,278,117,161,1,68.345,16,damping
1780599115.7353473,2.194914300009259,2418,0.052734,-0.005371,1.051758,1.610687,2.618321,-0.992366,1.053093,3.23028,163,281,118,163,0,68.345,7,damping
1780599115.765208,2.2247750000096858,2449,0.043701,-0.029785,1.054932,1.687023,3.312977,-0.824427,1.056256,3.808089,165,285,120,165,0,88.0,0,damping
1780599115.7963052,2.255872299996554,2480,0.036133,-0.037598,1.054199,2.541985,2.916031,-1.129771,1.055488,4.03005,167,288,121,167,1,88.0,14,damping
1780599115.8276227,2.2871897000004537,2511,0.049316,-0.030029,1.061279,1.816794,3.160305,-0.725191,1.062849,3.716742,171,293,122,171,0,88.0,7,damping
1780599115.8589041,2.3184712000074796,2542,0.0271,-0.028564,1.059326,1.48855,3.129771,-1.099237,1.060058,3.635872,172,295,123,172,1,88.0,6,damping
1780599115.8906035,2.350170600009733,2573,0.040527,-0.023926,1.05835,1.78626,3.358779,-0.717557,1.059395,3.871306,175,299,124,175,0,88.0,7,damping
1780599115.9203901,2.3799571999988984,2604,0.057373,-0.011475,1.06665,1.801527,3.328244,-0.664122,1.068254,3.842365,176,301,125,176,0,88.0,7,damping
1780599115.9512239,2.410791000002064,2635,0.044434,-0.009521,1.049805,1.641221,3.0,-1.236641,1.050788,3.636329,177,304,127,177,1,88.0,16,damping
1780599115.9806774,2.4402444000006653,2665,0.065674,-0.025635,1.057373,2.450382,3.389313,-0.961832,1.059721,4.291496,181,309,128,181,0,88.0,7,damping
1780599116.0120952,2.4716622999985702,2696,0.062256,-0.017578,1.059082,0.778626,3.167939,-0.854962,1.061056,3.372396,182,311,129,182,0,88.0,7,damping
1780599116.0433993,2.5029664000030607,2727,0.030518,-0.02832,1.052978,-0.282443,2.839695,-0.564886,1.053801,2.909078,183,314,131,183,1,64.748,16,damping
1780599116.074503,2.5340700000087963,2758,0.04126,-0.030029,1.058106,-0.366412,2.931298,-1.038168,1.059335,3.131223,187,319,132,187,0,64.748,0,damping
1780599116.1048832,2.5644502000068314,2789,0.046631,-0.023926,1.064209,1.687023,2.89313,-1.122137,1.065499,3.532059,189,323,134,189,0,64.748,0,damping
1780599116.136211,2.595778100003372,2820,0.032715,-0.0354,1.055908,2.610687,3.305344,-1.381679,1.057008,4.432834,191,328,137,191,1,64.748,13,damping
1780599116.1678581,2.6274253000010503,2851,0.053711,-0.010742,1.056152,3.816794,3.022901,-0.954198,1.057572,4.961486,193,331,138,193,0,64.748,7,damping
1780599116.1991878,2.658754800009774,2882,0.029053,-0.035889,1.059326,2.877863,2.984733,-0.89313,1.060332,4.241274,194,333,139,194,0,64.748,7,damping
1780599116.228526,2.6880932000058237,2913,0.048096,-0.007568,1.054932,2.366412,3.374046,-1.091603,1.056055,4.263296,195,336,141,195,1,64.748,15,damping
1780599116.260025,2.7195920000085607,2944,0.066895,-0.041016,1.058594,0.770992,3.267176,-0.992366,1.061498,3.500522,199,341,142,199,0,64.748,7,damping
1780599116.2917833,2.7513503000081982,2975,0.046631,-0.022949,1.058838,1.450382,3.114504,-1.053435,1.060113,3.593531,201,345,144,201,0,64.748,1,damping
1780599116.323935,2.7835021000064444,3006,0.039062,-0.019043,1.053467,2.290076,3.541985,-0.664122,1.054363,4.269797,204,349,145,204,0,75.269,7,damping
1780599116.354276,2.8138430999970296,3038,0.047119,-0.019043,1.061035,1.618321,2.458015,-1.244275,1.062252,3.195156,205,351,146,205,0,75.269,6,damping
1780599116.3862495,2.845816700006253,3069,0.049561,-0.019043,1.064941,1.458015,2.557252,-1.167939,1.066264,3.166927,206,354,148,206,1,75.269,16,damping
1780599116.417265,2.8768321000097785,3100,0.035156,-0.03125,1.055908,2.198473,2.770992,-0.755725,1.056955,3.617016,210,359,149,210,0,75.269,7,damping
1780599116.4473898,2.906956999999238,3131,0.046143,-0.028564,1.065918,1.923664,3.396947,-1.152672,1.067298,4.070428,212,363,151,212,0,75.269,0,damping
1780599116.4792402,2.9388072000001557,3162,0.020752,-0.024658,1.045898,2.251908,2.633588,-1.412214,1.046395,3.741821,213,366,153,213,1,75.269,16,damping
1780599116.508821,2.9683880000084173,3193,0.055908,-0.027588,1.05542,1.053435,3.198473,-1.022901,1.05726,3.519415,215,369,154,215,0,75.269,7,damping
1780599116.5412488,3.000815799998236,3224,0.022949,-0.041748,1.059082,1.343511,3.137405,-0.839695,1.060153,3.514743,216,371,155,216,0,75.269,7,damping
1780599116.5715795,3.031146599998465,3255,0.040527,-0.007568,1.054688,2.244275,3.259542,-1.022901,1.055493,4.087506,218,376,158,218,1,75.269,14,damping
1780599116.6025016,3.0620686000038404,3286,0.060303,-0.034424,1.057373,0.396947,3.59542,-0.816794,1.05965,3.708337,221,381,160,221,0,60.714,0,damping
1780599116.6325147,3.0920817000005627,3316,0.0271,-0.028564,1.057373,1.946565,2.984733,-0.89313,1.058106,3.673612,222,383,161,222,0,60.714,6,damping
1780599116.6641023,3.123669399996288,3347,0.048584,-0.011719,1.055664,1.236641,2.984733,-0.931298,1.056846,3.362325,224,386,162,224,1,60.714,15,damping
1780599116.6940136,3.153580600002897,3378,0.038086,-0.030029,1.059326,1.740458,2.916031,-1.030534,1.060436,3.548863,226,389,163,226,0,60.714,7,damping
1780599116.725952,3.1855190000060247,3409,0.030518,-0.017334,1.053955,2.664122,3.145038,-1.068702,1.054539,4.258044,228,393,165,228,0,60.714,0,damping
1780599116.7580051,3.21757210000942,3440,0.044434,-0.015625,1.052978,1.21374,3.396947,-1.10687,1.054031,3.773271,231,397,166,231,0,60.714,7,damping
1780599116.78842,3.247987099995953,3471,0.037354,-0.011963,1.050781,2.030534,2.938931,-1.145038,1.051513,3.7512,234,401,167,234,0,60.714,7,damping
1780599116.8220286,3.2815956999984337,3503,0.026611,-0.019287,1.052002,0.824427,3.40458,-0.763359,1.052515,3.585187,235,404,169,235,1,60.714,17,damping
1780599116.8507242,3.310291200003121,3534,0.025635,-0.031006,1.055176,2.129771,2.610687,-1.129771,1.055942,3.553589,237,407,170,237,0,60.714,7,damping
1780599116.8812602,3.3408273000095505,3565,0.052979,-0.023926,1.062012,2.236641,2.656489,-1.076336,1.063601,3.635656,239,411,172,239,0,64.516,0,damping
1780599116.912685,3.3722520000010263,3596,0.030762,-0.035645,1.034912,0.633588,2.954198,-1.099237,1.035982,3.215127,240,414,174,240,1,64.516,16,damping
1780599116.9451141,3.4046813000022667,3627,0.04248,-0.02832,1.050781,1.244275,2.931298,-1.145038,1.052021,3.384056,244,419,175,244,0,64.516,7,damping
1780599116.9733465,3.432913600001484,3658,0.038086,-0.037598,1.060303,1.10687,2.832061,-1.0,1.061652,3.200895,245,421,176,245,0,64.516,7,damping
1780599117.0044549,3.4640220000001136,3688,0.064697,-0.023438,1.048096,2.908397,2.48855,-0.977099,1.050352,3.95049,246,424,178,246,1,64.516,16,damping
1780599117.0349252,3.494492199999513,3719,0.045898,-0.011963,1.058594,2.778626,3.503817,-0.694656,1.059656,4.525488,249,429,180,249,0,64.516,0,damping
1780599117.0667324,3.526299500008463,3750,0.020508,-0.029541,1.047119,1.961832,3.221374,-0.80916,1.047736,3.857561,250,431,181,250,0,64.516,7,damping
1780599117.0971787,3.556745800000499,3781,0.032471,-0.010986,1.060791,0.832061,3.671756,-1.160305,1.061345,3.939597,252,436,184,252,1,64.516,13,damping
1780599117.1282206,3.5877877000020817,3812,0.041016,-0.008301,1.05957,0.885496,3.374046,-0.89313,1.060396,3.600829,254,439,185,254,0,64.516,7,damping
1780599117.159868,3.6194350000005215,3843,0.031006,-0.013672,1.051758,1.549618,2.801527,-1.145038,1.052304,3.400144,255,441,186,255,0,57.554,7,damping
1780599117.191499,3.651066100006574,3874,0.040283,-0.013916,1.056396,2.083969,2.961832,-0.877863,1.057256,3.726395,258,445,187,258,0,57.554,7,damping
1780599117.2230136,3.682580799999414,3906,0.040283,-0.011719,1.05127,1.343511,2.992366,-0.961832,1.052106,3.418245,261,449,188,261,0,57.554,6,damping
1780599117.2528327,3.712399700001697,3937,0.036133,-0.021484,1.035889,0.816794,2.778626,-0.541985,1.036741,2.946466,263,454,191,263,1,57.554,13,damping
1780599117.2841992,3.74376630000188,3968,0.037354,-0.017334,1.060059,1.290076,2.984733,-0.839695,1.060858,3.358276,265,457,192,265,0,57.554,7,damping
1780599117.3149636,3.774530599999707,3999,0.031738,-0.030518,1.067139,1.923664,3.343511,-0.862595,1.068047,3.952673,266,459,193,266,0,57.554,7,damping
1780599117.346894,3.8064610000001267,4030,0.020264,-0.0354,1.043701,2.244275,3.030534,-1.038168,1.044498,3.911355,267,462,195,267,1,57.554,16,damping
1780599117.3779347,3.837501700007124,4061,0.044434,-0.026611,1.064209,2.015267,3.419847,-0.709924,1.065469,4.032449,271,467,196,271,0,57.554,7,damping
1780599117.408766,3.8683331000065664,4092,0.020508,-0.034912,1.048096,1.961832,3.244275,-0.862595,1.048878,3.88821,273,471,198,273,0,57.554,1,damping
1780599117.4393878,3.89895489999617,4123,0.036621,-0.01001,1.05127,1.885496,3.519084,-0.900763,1.051955,4.092728,274,474,200,274,1,67.857,16,damping
1780599117.4711952,3.930762300005881,4154,0.052246,-0.030273,1.054199,1.236641,3.396947,-0.984733,1.055927,3.746762,276,477,201,276,0,67.857,6,damping
1780599117.502343,3.9619100999989314,4185,0.035889,-0.020264,1.061279,1.717557,3.351145,-1.129771,1.062079,3.931483,277,479,202,277,0,67.857,6,damping
1780599117.5328078,3.9923749000008684,4216,0.050537,-0.021973,1.062012,2.015267,2.900763,-0.732824,1.06344,3.60732,281,485,204,281,0,67.857,7,damping
1780599117.5629334,4.022500400009449,4247,0.026611,-0.022705,1.055664,1.366412,3.0,-0.732824,1.056244,3.376998,283,489,206,283,0,67.857,0,damping
1780599117.5937307,4.0532976999966195,4277,0.046875,-0.032471,1.065674,1.572519,3.244275,-0.740458,1.067198,3.680545,284,491,207,284,0,67.857,5,damping
1780599117.6248665,4.084433600000921,4308,0.053467,-0.022461,1.061523,1.305344,2.847328,-0.717557,1.063106,3.213423,287,495,208,287,0,67.857,7,damping
1780599117.6565046,4.116071800002828,4340,0.047852,-0.01416,1.058106,1.145038,3.381679,-0.587786,1.059282,3.618337,288,497,209,288,0,67.857,7,damping
1780599117.6885452,4.148112299997592,4371,0.053223,-0.014404,1.058838,1.419847,2.450382,-0.89313,1.060272,2.969515,290,502,212,290,1,67.857,14,damping
1780599117.718256,4.177823000005446,4402,0.030762,-0.016113,1.065918,1.80916,2.419847,-1.007634,1.066484,3.184972,294,507,213,294,0,71.685,0,damping
1780599117.7496617,4.209228799998527,4433,0.046143,-0.010742,1.066894,1.839695,2.687023,-0.80916,1.067946,3.355489,295,509,214,295,0,71.685,7,damping
1780599117.780994,4.240560999998706,4464,0.049316,-0.032227,1.054199,1.755725,3.534351,-1.114504,1.055844,4.100772,296,512,216,296,1,71.685,16,damping
1780599117.811395,4.270961900008842,4495,0.04834,-0.006592,1.05542,2.030534,3.236641,-0.671756,1.056547,3.879455,298,515,217,298,0,71.685,6,damping
1780599117.8420515,4.301618600002257,4526,0.048584,-0.033447,1.055176,1.89313,2.70229,-0.900763,1.056823,3.420188,300,519,219,300,0,71.685,0,damping
1780599117.8743842,4.333951300010085,4557,0.060547,-0.026367,1.058838,1.435114,3.389313,-0.748092,1.060895,3.75588,301,522,221,301,1,71.685,16,damping
1780599117.9055789,4.365145999996457,4588,0.03833,-0.030518,1.057617,0.824427,2.977099,-0.78626,1.058752,3.187633,303,525,222,303,0,71.685,7,damping
1780599117.9349065,4.394473599997582,4619,0.040771,0.002441,1.067383,2.007634,2.961832,-0.854962,1.068164,3.678859,304,527,223,304,0,71.685,6,damping
1780599117.9657583,4.425325500007602,4649,0.047119,-0.031738,1.048828,2.267176,2.938931,-1.038168,1.050366,3.854244,307,531,224,307,0,71.685,7,damping
1780599117.9967391,4.456306200008839,4680,0.027588,-0.028809,1.055664,1.160305,2.923664,-0.984733,1.056417,3.296031,309,535,226,309,0,53.957,1,damping
1780599118.0284648,4.4880318000068655,4711,0.034424,-0.035889,1.061523,1.427481,3.206107,-1.030534,1.062688,3.657708,310,538,228,310,1,53.957,16,damping
1780599118.0585282,4.5180953000090085,4742,0.020752,-0.02002,1.047607,1.839695,2.564885,-1.183206,1.048004,3.370918,312,541,229,312,0,53.957,6,damping
1780599118.0896227,4.5491897000028985,4773,0.032227,-0.005371,1.056152,1.671756,3.40458,-0.694656,1.056658,3.855967,313,543,230,313,0,53.957,6,damping
1780599118.1195233,4.579090300001553,4803,0.054443,-0.041016,1.049072,1.480916,3.030534,-0.748092,1.051284,3.454981,314,546,232,314,1,53.957,16,damping
1780599118.15089,4.610457100003259,4834,0.025879,-0.020264,1.044678,1.496183,2.290076,-1.229008,1.045195,2.998912,316,549,233,316,0,53.957,7,damping
1780599118.1813788,4.640945999999531,4865,0.05249,-0.034912,1.071045,1.061069,3.061069,-0.282443,1.072898,3.252043,317,551,234,317,0,53.957,6,damping
1780599118.2128005,4.672367499995744,4896,0.029053,-0.025391,1.043457,1.580153,2.59542,-1.091603,1.04417,3.228728,318,554,236,318,1,53.957,16,damping
1780599118.2441716,4.703738600001088,4927,0.03833,-0.024414,1.055908,1.977099,2.381679,-1.152672,1.056886,3.303024,320,557,237,320,0,53.957,7,damping
1780599118.2758532,4.735420299999532,4958,0.052002,-0.028076,1.060791,1.625954,2.824427,-0.679389,1.062436,3.329067,321,559,238,321,0,43.165,7,damping
1780599118.306234,4.765800900000613,4989,0.050293,-0.034912,1.05249,2.175573,2.572519,-1.274809,1.054269,3.602236,322,562,240,322,1,43.165,17,damping
1780599118.3366358,4.796202900004573,5020,0.043701,-0.019775,1.055908,1.526718,3.656489,-0.862595,1.056997,4.055225,324,565,241,324,0,43.165,7,damping
1780599118.3672132,4.826780200004578,5051,0.058594,-0.035645,1.061279,1.732824,3.358779,-0.961832,1.063493,3.899897,325,567,242,325,0,43.165,7,damping
1780599118.3980503,4.857617300003767,5082,0.050537,-0.035889,1.056641,1.923664,3.40458,-0.526718,1.058457,3.945767,327,570,243,327,1,43.165,15,damping
1780599118.4303613,4.8899283000064315,5113,0.040283,-0.037598,1.051514,0.977099,3.19084,-0.916031,1.052956,3.460534,329,573,244,329,0,43.165,6,damping
1780599118.4613,4.9208669000072405,5144,0.054688,-0.038086,1.057861,1.152672,3.419847,-0.961832,1.059958,3.734853,330,575,245,330,0,43.165,5,damping
1780599118.4927135,4.952280500001507,5175,0.03833,-0.028076,1.064453,1.656489,2.221374,-0.969466,1.065513,2.935698,333,579,246,333,0,43.165,7,damping
1780599118.522677,4.9822439999989,5207,0.054688,-0.018311,1.070557,1.198473,3.427481,-0.793893,1.072109,3.71675,334,581,247,334,0,43.165,7,damping
1780599118.5540235,5.013590600006864,5237,0.038574,-0.025391,1.048584,1.564886,2.732824,-0.977099,1.0496,3.297259,335,584,249,335,1,50.179,17,damping
1780599118.5842226,5.043789600007585,5268,0.030762,-0.025146,1.057861,1.801527,2.061069,-1.40458,1.058607,3.076743,337,587,250,337,0,50.179,6,damping
1780599118.616055,5.075622200005455,5299,0.026855,-0.026367,1.061523,1.793893,3.328244,-0.740458,1.06219,3.852732,338,589,251,338,0,50.179,7,damping
1780599118.6475332,5.1071002000098815,5330,0.027832,-0.026611,1.043701,1.541985,2.801527,-0.656489,1.044411,3.264544,339,592,253,339,1,50.179,16,damping
1780599118.6779442,5.137511200009612,5361,0.039795,-0.031006,1.052246,0.969466,3.48855,-0.671756,1.053455,3.68254,341,595,254,341,0,50.179,6,damping
1780599118.7082195,5.1677865000092424,5392,0.027344,-0.03418,1.053467,1.030534,2.946565,-0.641221,1.054376,3.186756,343,599,256,343,0,50.179,0,damping
1780599118.7411306,5.200697599997511,5423,0.030273,-0.017822,1.049805,1.351145,3.068702,-0.480916,1.050392,3.387301,344,602,258,344,1,50.179,16,damping
1780599118.771396,5.230963100009831,5454,0.046387,-0.008057,1.063721,1.229008,3.770992,-0.473282,1.064762,3.994351,346,605,259,346,0,50.179,6,damping
1780599118.8002117,5.2597787999984575,5484,0.043213,-0.023926,1.050537,2.21374,2.969466,-1.045802,1.051698,3.848646,347,607,260,347,0,50.179,6,damping
1780599118.84296,5.302526900006342,5515,0.058105,-0.034912,1.05957,2.312977,3.572519,-1.053435,1.061736,4.384345,350,612,262,350,1,53.957,13,damping
1780599118.8695862,5.329153400001815,5552,0.044434,-0.034424,1.053223,1.908397,2.885496,-1.038168,1.054721,3.611905,353,617,264,353,0,53.957,1,damping
1780599118.9000375,5.359604600002058,5583,0.051025,-0.023682,1.05249,1.740458,3.618321,-0.717557,1.053992,4.078766,355,620,265,355,1,53.957,16,damping
1780599118.9297273,5.389294399996288,5614,0.047607,-0.036621,1.054443,0.916031,3.251908,-0.847328,1.056153,3.4831,357,623,266,357,0,53.957,7,damping
1780599118.9609587,5.420525900000939,5644,0.054688,-0.039795,1.05835,1.992366,2.885496,-1.076336,1.060508,3.667985,358,625,267,358,0,53.957,7,damping
1780599118.9920194,5.451586399998632,5675,0.053711,-0.036133,1.060059,1.89313,3.480916,-0.877863,1.062033,4.058492,361,630,269,361,1,53.957,14,damping
1780599119.022277,5.481844199995976,5706,0.040283,-0.03418,1.05249,1.129771,3.335878,-1.045802,1.053815,3.673985,364,635,271,364,0,53.957,0,damping
1780599119.0544102,5.513977199996589,5737,0.050293,-0.032715,1.05957,1.572519,2.916031,-0.748092,1.061268,3.396423,365,637,272,365,0,53.957,6,damping
1780599119.085745,5.545312200003536,5768,0.04541,-0.02832,1.061523,1.641221,2.687023,-1.21374,1.062872,3.374443,368,641,273,368,0,71.146,7,damping
1780599119.117086,5.576652900010231,5800,0.061523,-0.026367,1.067383,1.458015,3.229008,-0.900763,1.06948,3.655636,369,643,274,369,0,71.146,6,damping
1780599119.14736,5.606927100001485,5831,0.033936,-0.034424,1.049072,1.625954,2.282443,-0.80916,1.050185,2.91685,371,648,277,371,1,71.146,13,damping
1780599119.1791284,5.638695500005269,5862,0.052979,-0.017822,1.050537,1.48855,3.099237,-1.061069,1.052023,3.598182,374,653,279,374,0,71.146,1,damping
1780599119.2092538,5.668820899998536,5893,0.050293,-0.027588,1.060059,1.80916,2.847328,-0.954198,1.06161,3.505829,375,655,280,375,0,71.146,6,damping
1780599119.2412055,5.700772500000312,5924,0.054688,-0.038574,1.054443,1.824428,2.801527,-0.687023,1.056565,3.413076,376,658,282,376,1,71.146,16,damping
1780599119.2712016,5.730768599998555,5955,0.05542,-0.005371,1.054443,1.259542,3.458015,-0.557252,1.055912,3.72221,378,661,283,378,0,71.146,7,damping
1780599119.3031015,5.762668700001086,5986,0.056396,-0.031738,1.056396,1.557252,2.938931,-0.862595,1.058377,3.436047,380,665,285,380,0,71.146,1,damping
1780599119.3344662,5.794033199999831,6017,0.057373,-0.036865,1.061035,1.748092,3.458015,-0.89313,1.063224,3.976352,382,668,286,382,1,71.146,15,damping
1780599119.3655427,5.825109800003702,6048,0.051758,-0.018066,1.059814,1.007634,2.908397,-1.244275,1.061231,3.319988,384,671,287,384,0,57.143,6,damping
1780599119.3963122,5.85587939999823,6079,0.046631,-0.041748,1.061279,1.282443,3.305344,-1.053435,1.063123,3.698605,385,673,288,385,0,57.143,6,damping
1780599119.4275987,5.887165799998911,6110,0.060059,-0.032471,1.056885,2.122137,2.343511,-1.152672,1.059088,3.36514,388,677,289,388,0,57.143,7,damping
1780599119.4593854,5.91895239999576,6142,0.032715,-0.011963,1.064209,1.969466,2.80916,-1.08397,1.064779,3.597939,390,681,291,390,0,57.143,0,damping
1780599119.4899285,5.949495599998045,6173,0.020508,-0.034668,1.043945,1.755725,2.740458,-1.030534,1.044722,3.413895,391,684,293,391,1,57.143,16,damping
1780599119.5211937,5.980760899998131,6204,0.047852,-0.019043,1.064209,1.954198,3.038168,-1.137405,1.065454,3.787221,393,687,294,393,0,57.143,6,damping
1780599119.5522108,6.011777899999288,6235,0.037842,-0.029541,1.058594,1.557252,3.10687,-0.694656,1.059682,3.544041,394,689,295,394,0,57.143,6,damping
1780599119.58365,6.043217200000072,6266,0.032715,-0.013672,1.060547,1.847328,3.198473,-0.954198,1.06114,3.814885,395,692,297,395,1,57.143,16,damping
1780599119.6146407,6.074207900004694,6297,0.039307,-0.013428,1.05542,0.625954,3.755725,-0.908397,1.056237,3.914394,397,695,298,397,0,57.143,6,damping
1780599119.644768,6.104335099997115,6328,0.053223,-0.026367,1.047852,1.496183,3.045802,-0.793893,1.049534,3.485074,398,697,299,398,0,50.0,6,damping
1780599119.6753213,6.134888500004308,6359,0.050537,-0.012451,1.055908,2.29771,3.335878,-0.763359,1.05719,4.121926,401,701,300,401,0,50.0,7,damping
1780599119.7061393,6.1657064000028186,6389,0.056641,-0.041748,1.058838,1.709924,3.015267,-0.877863,1.061173,3.575796,402,703,301,402,0,50.0,7,damping
1780599119.7375252,6.197092200003681,6420,0.025635,-0.012207,1.068604,2.083969,3.206107,-0.89313,1.068981,3.926796,403,705,302,403,0,50.0,7,damping
1780599119.7665138,6.226081000000704,6451,0.053711,-0.008301,1.064209,1.519084,3.679389,-0.648855,1.065596,4.033179,406,709,303,406,0,50.0,6,damping
1780599119.7968998,6.256466799997725,6481,0.056396,-0.035645,1.059326,1.351145,3.175573,-0.900763,1.061425,3.566683,407,711,304,407,0,50.0,7,damping
1780599119.8282557,6.2878228000045056,6512,0.039551,-0.04541,1.056396,1.824428,3.282443,-0.862595,1.058111,3.853186,408,713,305,408,1,50.0,6,damping
1780599119.8619757,6.321542699995916,6543,0.032471,-0.026123,1.059814,1.641221,2.877863,-0.984733,1.060633,3.456212,413,719,306,413,0,50.0,6,damping
1780599119.896797,6.356364000006579,6574,0.044434,-0.01001,1.061523,1.549618,3.19084,-0.832061,1.0625,3.643501,414,721,307,414,0,50.0,7,damping
1780599119.923208,6.382775100006256,6605,0.014648,-0.029297,1.041748,1.755725,2.251908,-1.229008,1.042263,3.108717,415,724,309,415,1,61.372,16,damping
1780599119.9531052,6.412672400008887,6636,0.02124,-0.007568,1.050537,1.549618,2.625954,-1.08397,1.050779,3.236038,418,729,311,418,0,61.372,1,damping
1780599119.9835567,6.443123799996101,6667,0.037842,-0.016357,1.066162,1.80916,2.167939,-0.877863,1.066959,2.956968,419,731,312,419,0,61.372,6,damping
1780599120.0150821,6.474649299998418,6698,0.033203,-0.019287,1.040527,1.335878,2.687023,-0.992366,1.041236,3.16061,421,736,315,421,1,61.372,13,damping
1780599120.045254,6.504821099995752,6729,0.033447,-0.011719,1.05249,0.740458,3.503817,-0.862595,1.053087,3.683623,423,739,316,423,0,61.372,6,damping
1780599120.077444,6.537011100008385,6760,0.048584,-0.0354,1.057129,1.381679,3.160305,-1.076336,1.058837,3.61318,424,741,317,424,0,61.372,6,damping
1780599120.1084752,6.568042200000491,6791,0.026611,-0.028564,1.059326,2.137405,2.946565,-1.053435,1.060045,3.789521,426,744,318,426,1,61.372,15,damping
1780599120.1406488,6.600215800004662,6823,0.027588,-0.024658,1.062988,1.412214,2.923664,-0.618321,1.063632,3.30522,430,749,319,430,0,61.372,7,damping
1780599120.1715071,6.6310743000067305,6854,0.03418,-0.041992,1.056641,1.328244,3.664122,-0.725191,1.058027,3.964332,432,754,322,432,1,61.372,14,damping
1780599120.2018235,6.661390499997651,6885,0.040039,-0.028076,1.050537,1.70229,2.877863,-0.992366,1.051675,3.48779,434,757,323,434,0,67.857,7,damping
1780599120.2330217,6.692588899997645,6916,0.04126,-0.013672,1.05542,1.938931,3.610687,-0.923664,1.056314,4.201152,435,759,324,435,0,67.857,7,damping
1780599120.2644627,6.724029700009851,6947,0.010986,-0.026855,1.046387,2.244275,2.900763,-0.709924,1.046789,3.735664,436,762,326,436,1,67.857,16,damping
1780599120.2941806,6.753747700000531,6978,0.011963,-0.008545,1.05127,1.755725,2.938931,-1.045802,1.051372,3.579607,440,767,327,440,0,67.857,6,damping
1780599120.3263633,6.785930400001234,7009,0.031494,-0.009033,1.059814,1.832061,2.824427,-0.946565,1.060321,3.497116,441,769,328,441,0,67.857,7,damping
1780599120.3566282,6.816195200008224,7040,0.039795,-0.022705,1.044189,1.580153,3.358779,-1.465649,1.045194,3.99079,442,772,330,442,1,67.857,16,damping
1780599120.3878934,6.84746050000831,7071,0.040771,-0.010986,1.055908,1.870229,3.221374,-0.847328,1.056752,3.820075,444,775,331,444,0,67.857,6,damping
1780599120.4189076,6.878474700002698,7102,0.032715,-0.030518,1.049561,2.618321,3.053435,-1.221374,1.050514,4.203668,445,777,332,445,0,67.857,6,damping
1780599120.449782,6.90934900000866,7133,0.039307,-0.019775,1.058838,2.160305,3.625954,-0.59542,1.059752,4.26251,448,782,334,448,1,67.857,13,damping
1780599120.4811063,6.9406733000068925,7164,0.018555,-0.033936,1.052002,2.099237,2.725191,-1.053435,1.052713,3.597664,450,785,335,450,0,57.348,7,damping
1780599120.5115075,6.971074700006284,7195,0.029541,-0.015625,1.051514,1.396947,3.343511,-0.687023,1.052044,3.688161,451,787,336,451,0,57.348,6,damping
1780599120.5455143,7.0050814999995055,7226,0.046631,-0.019775,1.05835,1.740458,3.229008,-0.549618,1.059561,3.709146,454,791,337,454,0,57.348,7,damping
1780599120.5736427,7.0332097000064095,7257,0.031982,-0.013428,1.05835,1.587786,3.007634,-0.587786,1.058918,3.451437,455,793,338,455,0,57.348,7,damping
1780599120.605334,7.0649011000059545,7288,0.043701,-0.009766,1.049072,1.274809,2.839695,-0.954198,1.050028,3.255687,456,796,340,456,1,57.348,17,damping
1780599120.6352336,7.094800799997756,7319,0.023193,-0.025879,1.052246,1.519084,2.80916,-1.183206,1.05282,3.405727,458,799,341,458,0,57.348,7,damping
1780599120.6673908,7.126958000008017,7350,0.054932,-0.028564,1.068604,1.80916,2.740458,-0.969466,1.070396,3.423892,459,801,342,459,0,57.348,7,damping
1780599120.6983674,7.157934400005615,7381,0.033447,-0.030029,1.052246,1.992366,2.793893,-0.946565,1.053206,3.559684,460,804,344,460,1,57.348,16,damping
1780599120.7300777,7.189644900005078,7412,0.037109,-0.030273,1.053711,1.312977,2.832061,-1.137405,1.054799,3.322374,462,807,345,462,0,57.348,6,damping
1780599120.758896,7.218463199998951,7443,0.040283,-0.037598,1.055664,1.740458,2.267176,-0.900763,1.057101,2.996774,463,809,346,463,0,46.595,7,damping
1780599120.7907765,7.250343499996234,7474,0.050537,-0.018311,1.058838,1.992366,3.007634,-1.19084,1.060201,3.799143,464,812,348,464,1,46.595,16,damping
1780599120.8217843,7.281351300000097,7505,0.04126,-0.032959,1.041504,0.900763,2.961832,-0.648855,1.042842,3.163042,467,817,350,467,0,46.595,0,damping
1780599120.853106,7.312673100008396,7536,0.055908,-0.018311,1.058838,1.610687,3.022901,-1.053435,1.060471,3.583569,468,819,351,468,0,46.595,6,damping
1780599120.8843672,7.343934400007129,7567,0.058105,-0.022949,1.058594,1.587786,3.061069,-0.59542,1.060436,3.49939,471,823,352,471,0,46.595,6,damping
1780599120.9161923,7.375759400005336,7599,0.049316,-0.022217,1.051514,1.51145,3.564885,-0.648855,1.052904,3.926054,472,825,353,472,0,46.595,6,damping
1780599120.9473512,7.406918399996357,7630,0.027344,-0.010986,1.04541,1.274809,2.839695,-0.793893,1.045825,3.212362,474,830,356,474,1,46.595,13,damping
1780599120.9794264,7.4389935000072,7661,0.020752,-0.018311,1.050781,1.206107,2.969466,-1.122137,1.051146,3.395823,477,835,358,477,0,46.595,1,damping
1780599121.0099165,7.469483699998818,7693,0.025146,-0.006104,1.064453,1.465649,2.48855,-1.068702,1.064768,3.07947,478,837,359,478,0,60.0,6,damping
1780599121.0416963,7.501263400001335,7724,0.060059,-0.026367,1.059082,2.229008,2.80916,-1.19084,1.061111,3.778618,479,840,361,479,1,60.0,17,damping
1780599121.071879,7.531445900007384,7755,0.059326,-0.007568,1.061768,1.389313,3.114504,-1.068702,1.063451,3.573856,481,843,362,481,0,60.0,6,damping
1780599121.1012728,7.560839800004032,7785,0.023193,-0.029297,1.04834,0.854962,2.587786,-0.938931,1.049006,2.882566,483,847,364,483,0,60.0,1,damping
1780599121.1330595,7.592626500001643,7816,0.054688,-0.024658,1.072022,1.427481,2.78626,-1.152672,1.073699,3.336105,484,850,366,484,1,60.0,17,damping
1780599121.1643143,7.623881300009089,7847,0.037354,-0.032471,1.067383,0.29771,2.992366,-0.847328,1.06853,3.124236,488,855,367,488,0,60.0,6,damping
1780599121.1952784,7.65484540000034,7878,0.049316,-0.019287,1.072998,2.526718,2.778626,-1.167939,1.074304,3.933084,489,857,368,489,0,60.0,6,damping
1780599121.224759,7.684326200003852,7909,0.049805,-0.023438,1.074707,2.29771,2.938931,-0.923664,1.076116,3.843168,492,861,369,492,0,60.0,7,damping
1780599121.256232,7.715798999997787,7940,0.041748,-0.031494,1.062012,1.816794,3.206107,-0.954198,1.063298,3.80662,494,865,371,494,0,60.0,0,damping
1780599121.2875664,7.747133400000166,7971,0.045654,-0.032471,1.053711,2.007634,3.045802,-0.969466,1.055199,3.774568,495,868,373,495,1,61.151,17,damping
1780599121.3190856,7.778652599998168,8002,0.049072,-0.028564,1.046387,1.442748,2.816794,-1.08397,1.047926,3.345271,497,871,374,497,0,61.151,6,damping
1780599121.3503056,7.809872700003325,8033,0.040283,-0.012451,1.055176,1.480916,3.10687,-1.061069,1.056018,3.601614,498,873,375,498,0,61.151,6,damping
1780599121.3816807,7.841247700009262,8064,0.035889,-0.026367,1.042236,1.91603,2.045802,-1.198473,1.043187,3.048412,499,876,377,499,1,61.151,17,damping
1780599121.4117403,7.8713072999962606,8095,0.052002,-0.016602,1.044434,1.442748,2.48855,-1.167939,1.045859,3.104591,503,881,378,503,0,61.151,0,damping
1780599121.442902,7.902469200009364,8127,0.02002,-0.028809,1.050293,1.969466,2.40458,-1.40458,1.050879,3.410813,504,883,379,504,0,61.151,7,damping
1780599121.4736552,7.93322230000922,8157,0.025879,-0.028076,1.049561,2.145038,2.473282,-1.068702,1.050255,3.443899,505,886,381,505,1,61.151,17,damping
1780599121.5038908,7.963457899997593,8188,0.058105,-0.008057,1.053955,2.381679,2.885496,-1.21374,1.055586,3.933402,507,889,382,507,0,61.151,6,damping
1780599121.5361304,7.995697400008794,8219,0.043213,-0.036621,1.060791,1.641221,2.656489,-0.938931,1.062302,3.260695,508,891,383,508,0,61.151,6,damping
1780599121.5675814,8.027148399996804,8250,0.036865,-0.020508,1.053711,0.648855,3.274809,-0.923664,1.054555,3.463891,510,894,384,510,1,53.763,15,damping
1780599121.5999348,8.059502000003704,8282,0.043457,-0.026367,1.057129,0.59542,3.038168,-0.442748,1.05835,3.127462,512,897,385,512,0,53.763,6,damping
1780599121.6301095,8.089676700008567,8313,0.042725,-0.037598,1.055176,1.763359,2.900763,-1.122137,1.056709,3.57534,513,900,387,513,1,53.763,17,damping
1780599121.6621115,8.121678499999689,8345,0.017578,-0.019531,1.053467,2.564885,3.022901,-1.396947,1.053794,4.203336,515,903,388,515,0,53.763,7,damping
1780599121.6925712,8.15213830000721,8376,0.034424,-0.028809,1.054199,2.206107,2.847328,-0.946565,1.055154,3.724268,516,905,389,516,0,53.763,7,damping
1780599121.7236502,8.183217300000251,8407,0.026123,-0.021973,1.055176,1.770992,2.832061,-1.0,1.055728,3.486687,517,908,391,517,1,53.763,17,damping
1780599121.7546122,8.214179300004616,8437,0.04541,-0.008545,1.052734,1.725191,2.526718,-1.396947,1.053748,3.363338,519,911,392,519,0,53.763,7,damping
1780599121.791013,8.250580000007176,8468,0.063721,-0.01416,1.065918,1.129771,2.59542,-1.08397,1.067915,3.031102,520,913,393,520,0,53.763,7,damping
1780599121.8157463,8.275313300007838,8498,0.031738,-0.023193,1.05835,2.083969,2.564885,-1.061069,1.059079,3.470941,521,916,395,521,1,53.763,16,damping
1780599121.8462133,8.305780399998184,8529,0.032715,-0.024414,1.050537,1.122137,2.916031,-1.007634,1.05133,3.282949,523,919,396,523,0,46.595,6,damping
1780599121.8773122,8.336879199996474,8560,0.015137,-0.029297,1.050293,1.396947,2.778626,-0.908397,1.050811,3.23997,524,921,397,524,0,46.595,7,damping
1780599121.908287,8.367853999996441,8591,0.028809,-0.023438,1.048828,2.89313,3.038168,-1.389313,1.049485,4.419373,525,924,399,525,1,46.595,16,damping
1780599121.9395177,8.399084799995762,8622,0.039795,-0.025879,1.052978,1.40458,2.877863,-1.244275,1.054048,3.435573,527,927,400,527,0,46.595,6,damping
1780599121.97005,8.42961710000236,8653,0.032227,-0.026855,1.058106,2.267176,2.946565,-1.198473,1.058937,3.906234,529,931,402,529,0,46.595,0,damping
1780599122.001774,8.461341200003517,8684,0.026367,-0.0271,1.060547,2.015267,3.496183,-0.763359,1.061221,4.106984,532,935,403,532,0,46.595,7,damping
1780599122.031302,8.490869000001112,8715,0.036865,-0.030273,1.055176,0.885496,3.541985,-0.755725,1.056253,3.728388,533,937,404,533,0,46.595,7,damping
1780599122.063042,8.522609000006923,8746,0.037598,-0.038574,1.053711,1.70229,3.679389,-1.068702,1.055087,4.192591,534,940,406,534,1,46.595,17,damping
1780599122.0935647,8.553131799999392,8777,0.038086,-0.020996,1.048828,1.496183,3.198473,-0.832061,1.049729,3.627826,538,945,407,538,0,46.595,7,damping
1780599122.1244361,8.584003099997062,8808,0.047119,-0.014404,1.069824,1.931298,3.40458,-0.519084,1.070958,3.948484,540,949,409,540,0,60.932,1,damping
1780599122.1558852,8.61545230000047,8838,0.056396,-0.035889,1.05249,1.931298,3.381679,-0.977099,1.054611,4.01502,541,952,411,541,1,60.932,16,damping
1780599122.185305,8.64487210000516,8869,0.041504,-0.024658,1.063477,0.984733,3.221374,-1.076336,1.064572,3.536304,543,955,412,543,0,60.932,6,damping
1780599122.2166939,8.676260899999761,8900,0.053223,-0.037598,1.071045,2.267176,2.923664,-0.938931,1.073025,3.817,544,957,413,544,0,60.932,6,damping
1780599122.2470956,8.706662700002198,8930,0.031738,-0.013184,1.055176,1.358779,2.801527,-0.664122,1.055735,3.183691,546,962,416,546,1,60.932,13,damping
1780599122.279427,8.738994200000889,8962,0.063477,-0.026611,1.065918,0.900763,2.885496,-1.236641,1.068138,3.265998,550,967,417,550,0,60.932,0,damping
1780599122.3097951,8.769362100007129,8993,0.036621,-0.042236,1.060547,1.473282,3.167939,-0.931298,1.062019,3.615759,551,969,418,551,0,60.932,6,damping
1780599122.340541,8.800107999995816,9024,0.04834,-0.025391,1.06543,1.526718,3.175573,-0.900763,1.066828,3.636826,552,972,420,552,1,60.932,16,damping
1780599122.3717747,8.831341700002667,9055,0.05249,-0.036377,1.057129,1.885496,3.229008,-0.89313,1.059056,3.844381,554,975,421,554,0,60.932,7,damping
1780599122.4037192,8.86328630000935,9086,0.058594,-0.026611,1.056396,1.78626,3.114504,-0.847328,1.058355,3.689014,556,979,423,556,0,57.554,0,damping
1780599122.435029,8.894596099999035,9117,0.040527,-0.033936,1.050049,2.732824,3.160305,-0.694656,1.051378,4.235376,559,983,424,559,0,57.554,7,damping
1780599122.4664621,8.926029299997026,9149,0.059082,-0.02124,1.059082,1.381679,3.206107,-0.885496,1.060941,3.601703,562,987,425,562,0,57.554,7,damping
1780599122.4975147,8.957081900007324,9180,0.04541,-0.010986,1.058106,1.282443,3.328244,-0.793893,1.059136,3.654057,563,990,427,563,1,57.554,16,damping
1780599122.52893,8.98849699999846,9211,0.024902,-0.024414,1.05835,1.854962,3.038168,-1.221374,1.058924,3.76339,565,993,428,565,0,57.554,7,damping
1780599122.558927,9.01849420000508,9242,0.058838,-0.031738,1.068115,1.900763,3.076336,-0.763359,1.070205,3.695871,567,997,430,567,0,57.554,1,damping
1780599122.591084,9.050650999997742,9273,0.043457,-0.031982,1.060059,1.282443,2.633588,-0.877863,1.061431,3.057954,568,1000,432,568,1,57.554,16,damping
1780599122.6213734,9.080940400002874,9304,0.042236,-0.028076,1.055176,1.267176,2.778626,-0.931298,1.056394,3.192775,570,1003,433,570,0,57.554,7,damping
1780599122.6521542,9.111721200009924,9335,0.035645,-0.04541,1.060303,1.465649,3.160305,-1.251908,1.061873,3.701747,571,1005,434,571,0,57.554,7,damping
1780599122.683785,9.14335199999914,9366,0.052734,-0.022705,1.05127,2.076336,3.022901,-1.267176,1.052836,3.880056,572,1008,436,572,1,57.143,16,damping
1780599122.7130003,9.172567400004482,9397,0.045898,0.001465,1.060303,1.557252,2.931298,-0.801527,1.061297,3.414672,574,1011,437,574,0,57.143,7,damping
1780599122.7450442,9.204611200009822,9428,0.052002,-0.01709,1.05957,1.21374,3.015267,-0.938931,1.060983,3.383282,575,1013,438,575,0,57.143,7,damping
1780599122.7759519,9.235518900008174,9459,0.050537,-0.028076,1.05835,2.290076,3.122137,-0.847328,1.059927,3.963604,578,1017,439,578,0,57.143,7,damping
1780599122.8085957,9.268162699998356,9490,0.046875,-0.02417,1.060059,1.343511,3.076336,-0.954198,1.06137,3.489894,579,1019,440,579,0,57.143,6,damping
1780599122.8430822,9.302649300007033,9521,0.056641,-0.030518,1.057373,1.366412,3.480916,-0.770992,1.059329,3.818152,580,1022,442,580,1,57.143,16,damping
1780599122.869473,9.329039999996894,9552,0.042725,-0.023438,1.061523,1.801527,2.618321,-0.839695,1.062641,3.287277,582,1025,443,582,0,57.143,7,damping
1780599122.8998132,9.35938019999594,9583,0.058838,-0.02832,1.070068,1.21374,3.183206,-0.916031,1.072059,3.527758,584,1029,445,584,0,57.143,0,damping
1780599122.9311006,9.390667600004235,9614,0.03125,-0.033203,1.046143,2.137405,2.541985,-1.015267,1.047136,3.472888,585,1032,447,585,1,57.143,16,damping
1780599122.9621775,9.421744499995839,9645,0.052979,-0.015869,1.054443,1.48855,3.091603,-1.045802,1.055893,3.587128,589,1037,448,589,0,60.932,7,damping
1780599122.9932601,9.452827200002503,9676,0.051758,-0.044434,1.061523,1.137405,2.679389,-1.053435,1.063713,3.095568,590,1039,449,590,0,60.932,6,damping
1780599123.0245824,9.484149500000058,9707,0.060791,-0.029297,1.057129,1.748092,3.251908,-1.328244,1.05928,3.923642,591,1042,451,591,1,60.932,16,damping
1780599123.0546818,9.514248899999075,9738,0.038086,-0.029053,1.057861,1.496183,2.694656,-0.908397,1.058945,3.213242,594,1047,453,594,0,60.932,0,damping
1780599123.086863,9.546430000002147,9769,0.051025,-0.023438,1.061279,2.305344,2.740458,-1.137405,1.062764,3.757447,595,1049,454,595,0,60.932,6,damping
1780599123.117756,9.57732290000422,9800,0.051514,-0.032959,1.059082,2.641221,2.984733,-0.916031,1.060846,4.089473,599,1055,456,599,0,60.932,7,damping
1780599123.14837,9.607937100008712,9831,0.052246,-0.031982,1.060547,1.526718,3.122137,-1.007634,1.062314,3.618554,600,1057,457,600,0,60.932,7,damping
1780599123.1795928,9.639159800004563,9862,0.059082,-0.036865,1.061523,1.435114,3.541985,-0.816794,1.063805,3.907987,601,1060,459,601,1,60.932,16,damping
1780599123.2117655,9.671332500001881,9893,0.047607,-0.034668,1.055664,1.564886,2.656489,-0.946565,1.057305,3.22518,603,1063,460,603,0,60.932,7,damping
1780599123.2407742,9.700341200004914,9924,0.063965,-0.023438,1.062744,1.725191,3.473282,-0.763359,1.064925,3.952555,606,1067,461,606,0,60.932,7,damping
1780599123.2719417,9.73150870000245,9955,0.021729,-0.032959,1.044678,1.541985,2.732824,-0.740458,1.045423,3.224023,607,1070,463,607,1,60.932,16,damping
1780599123.3033836,9.76295060000848,9986,0.052734,-0.01416,1.058594,1.396947,2.931298,-1.183206,1.060001,3.456001,609,1073,464,609,0,60.932,7,damping
1780599123.3343644,9.793931399995927,10017,0.048828,-0.02002,1.066162,1.305344,2.137405,-0.969466,1.067467,2.68557,610,1075,465,610,0,60.932,7,damping
1780599123.3652287,9.824795799999265,10048,0.056885,-0.037354,1.055664,1.450382,3.145038,-0.862595,1.057855,3.569166,611,1078,467,611,1,60.932,16,damping
1780599123.39557,9.855137200007448,10079,0.039795,-0.00708,1.05835,1.290076,2.793893,-1.038168,1.059121,3.247758,613,1081,468,613,0,60.932,7,damping
1780599123.4276533,9.887220400007209,10110,0.059082,-0.024658,1.059082,1.549618,2.641221,-1.274809,1.061015,3.317002,614,1083,469,614,0,60.932,7,damping
1780599123.4587066,9.918273800009047,10141,0.042969,-0.04126,1.061035,2.259542,3.229008,-0.908397,1.062706,4.044404,616,1086,470,616,1,60.932,15,damping
1780599123.4891722,9.948739200001,10172,0.060059,-0.040039,1.060547,1.480916,2.877863,-1.045802,1.063,3.40131,618,1089,471,618,0,60.932,7,damping
1780599123.5201511,9.979718300004606,10203,0.031738,-0.056396,1.047607,2.091603,2.671756,-1.206107,1.049604,3.60108,619,1092,473,619,1,46.595,16,damping
1780599123.5523365,10.011903599996003,10234,0.059082,-0.032227,1.064941,1.839695,2.709924,-0.923664,1.067066,3.403134,621,1095,474,621,0,46.595,7,damping
1780599123.582486,10.042052899996634,10265,0.048584,-0.034668,1.05835,1.70229,3.549618,-0.603053,1.060031,3.982619,624,1099,475,624,0,46.595,7,damping
1780599123.613713,10.073280199998408,10296,0.033447,-0.032959,1.059326,1.961832,2.48855,-1.015267,1.060366,3.327526,626,1104,478,626,1,46.595,13,damping
1780599123.6434245,10.10299159999704,10327,0.045654,-0.022461,1.062744,1.19084,3.167939,-0.862595,1.063961,3.492565,628,1107,479,628,0,46.595,7,damping
1780599123.6752546,10.134821700004977,10358,0.067139,-0.019531,1.067383,1.557252,2.801527,-1.198473,1.069671,3.421977,629,1109,480,629,0,46.595,6,damping
1780599123.705689,10.165256000007503,10389,0.057373,-0.026855,1.048096,1.40458,3.129771,-1.167939,1.050008,3.623864,630,1112,482,630,1,46.595,16,damping
1780599123.7368677,10.19643470000301,10420,0.054932,-0.023926,1.058106,1.274809,3.129771,-0.931298,1.0598,3.505413,634,1117,483,634,0,46.595,7,damping
1780599123.7679448,10.227511799996137,10451,0.036133,-0.026123,1.063965,1.610687,2.679389,-0.854962,1.064899,3.241049,636,1121,485,636,0,46.595,0,damping
1780599123.799164,10.258731199995964,10482,0.053223,-0.016846,1.047852,2.053435,2.969466,-1.29771,1.049338,3.836454,638,1124,486,638,1,68.1,15,damping
1780599123.8422675,10.301834700003383,10512,0.030518,-0.001221,1.059326,1.152672,3.282443,-1.038168,1.059766,3.630548,640,1127,487,640,0,68.1,7,damping
1780599123.8607957,10.32036280000466,10543,0.039062,-0.025879,1.05835,1.557252,2.89313,-0.78626,1.059386,3.378378,641,1129,488,641,0,68.1,7,damping
1780599123.8910758,10.350642999997945,10574,0.027588,-0.031738,1.060303,2.038168,2.969466,-0.877863,1.061136,3.707088,644,1134,490,644,1,68.1,14,damping
1780599123.9224138,10.38198089999787,10605,0.046143,-0.039307,1.057861,1.08397,2.916031,-1.381679,1.059596,3.404007,647,1139,492,647,0,68.1,0,damping
1780599123.9535878,10.413154900001246,10636,0.018066,-0.031982,1.052246,1.564886,2.664122,-1.221374,1.052887,3.322374,648,1141,493,648,0,68.1,6,damping
1780599123.984769,10.444336100001237,10667,0.051025,-0.026123,1.053467,1.969466,3.526718,-0.725191,1.055025,4.103954,651,1145,494,651,0,68.1,7,damping
1780599124.0157623,10.475329299995792,10698,0.049805,-0.025635,1.057861,1.679389,2.969466,-0.763359,1.059343,3.495825,652,1147,495,652,0,68.1,7,damping
1780599124.0460417,10.50560889999906,10729,0.048828,-0.0354,1.05249,1.664122,3.274809,-0.519084,1.054217,3.709869,654,1152,498,654,1,68.1,14,damping
1780599124.078018,10.537585099998978,10760,0.022217,-0.024902,1.05249,1.534351,2.564885,-1.343511,1.053019,3.276873,656,1156,500,656,0,64.748,3,damping
1780599124.1071312,10.566698399998131,10791,0.051025,-0.040039,1.056152,1.946565,3.40458,-0.664122,1.058142,3.977605,658,1159,501,658,0,64.748,7,damping
1780599124.1396751,10.599242199998116,10822,0.025146,-0.023438,1.051514,1.740458,2.641221,-0.992366,1.052075,3.315122,659,1162,503,659,1,64.748,16,damping
1780599124.170748,10.630315000002156,10853,0.060303,-0.016602,1.059326,1.19084,2.534351,-1.137405,1.061171,3.02237,661,1165,504,661,0,64.748,7,damping
1780599124.2014635,10.661030500006746,10884,0.033691,-0.034912,1.048584,1.198473,2.351145,-1.076336,1.049706,2.850039,663,1169,506,663,0,64.748,0,damping
1780599124.2319365,10.691503599999123,10915,0.057129,-0.024658,1.049316,2.129771,2.572519,-1.29771,1.05116,3.582992,664,1172,508,664,1,64.748,16,damping
1780599124.2630303,10.722597300002235,10945,0.03833,-0.010986,1.05835,1.473282,3.152672,-0.961832,1.0591,3.610405,668,1177,509,668,0,64.748,7,damping
1780599124.2945502,10.754117300006328,10977,0.061279,-0.031982,1.059326,1.603053,2.870229,-0.984733,1.061579,3.431864,669,1179,510,669,0,64.748,7,damping
1780599124.3249323,10.78449950000504,11008,0.041992,-0.032471,1.049561,2.030534,3.099237,-1.045802,1.050902,3.84994,671,1182,511,671,1,64.748,15,damping
1780599124.3564193,10.815986300003715,11039,0.025391,-0.039062,1.059082,1.244275,2.946565,-0.969466,1.060106,3.342204,674,1187,513,674,0,64.516,1,damping
1780599124.3871393,10.846706299998914,11070,0.040039,-0.053467,1.056152,1.618321,3.091603,-1.015267,1.058262,3.634245,675,1189,514,675,0,64.516,6,damping
1780599124.4190407,10.878607799997553,11101,0.051025,-0.020752,1.047363,1.900763,2.664122,-0.885496,1.048811,3.390362,680,1195,515,680,0,64.516,7,damping
1780599124.4491434,10.908710500007146,11132,0.033691,-0.013184,1.051758,1.267176,3.389313,-0.816794,1.05238,3.709492,681,1197,516,681,0,64.516,7,damping
1780599124.4862878,10.945854899997357,11163,0.04248,-0.011963,1.052734,1.442748,3.374046,-0.770992,1.053659,3.749685,682,1200,518,682,1,64.516,16,damping
1780599124.5178862,10.977453200001037,11200,0.059082,-0.012207,1.056885,1.503817,2.908397,-0.832061,1.058605,3.378248,685,1205,520,685,0,64.516,1,damping
1780599124.5488186,11.008385599998292,11231,0.057373,-0.017578,1.054443,1.839695,3.129771,-1.061069,1.056149,3.782302,686,1208,522,686,1,64.516,16,damping
1780599124.5807898,11.040356800003792,11263,0.02832,-0.019775,1.053711,1.816794,2.900763,-1.221374,1.054277,3.634133,690,1213,523,690,0,64.516,7,damping
1780599124.6120365,11.071603500007768,11294,0.022461,-0.016846,1.054932,1.610687,2.366412,-0.732824,1.055305,2.954869,691,1215,524,691,0,66.667,7,damping
1780599124.642168,11.101735000003828,11325,0.035156,-0.030518,1.052734,1.480916,2.793893,-0.885496,1.053763,3.283756,692,1218,526,692,1,66.667,16,damping
1780599124.673244,11.132811100003892,11356,0.049805,-0.026855,1.055176,1.610687,3.045802,-0.824427,1.056692,3.542725,695,1223,528,695,0,66.667,0,damping
1780599124.7039475,11.163514600004419,11387,0.032715,-0.036133,1.058594,1.862595,2.938931,-0.80916,1.059715,3.572299,696,1225,529,696,0,66.667,6,damping
1780599124.7356987,11.195265800008201,11418,0.046875,-0.032227,1.058106,1.412214,2.946565,-1.022901,1.059633,3.423875,699,1230,531,699,1,66.667,13,damping
1780599124.7670896,11.22665660000348,11449,0.055908,-0.038818,1.057861,1.10687,2.48855,-0.610687,1.060049,2.791232,701,1233,532,701,0,66.667,7,damping
1780599124.7971945,11.256761600001482,11480,0.046875,-0.021729,1.05957,1.832061,2.679389,-1.206107,1.060829,3.462696,702,1235,533,702,0,66.667,6,damping
1780599124.8292773,11.288844299997436,11511,0.05249,-0.023193,1.058838,1.954198,2.954198,-0.694656,1.060392,3.609533,705,1239,534,705,0,66.667,6,damping
1780599124.8603997,11.319966900002328,11543,0.043213,-0.013672,1.063232,1.854962,2.694656,-0.954198,1.064198,3.407719,708,1243,535,708,0,66.667,6,damping
1780599124.8906984,11.350265400003991,11574,0.049805,-0.004395,1.052978,1.51145,2.816794,-0.908397,1.054165,3.323251,710,1248,538,710,1,67.857,14,damping
1780599124.9228618,11.382429000004777,11605,0.032715,-0.025146,1.047119,1.832061,2.305344,-1.137405,1.047932,3.156698,712,1251,539,712,0,67.857,7,damping
1780599124.9542913,11.413858500003698,11636,0.054932,-0.038086,1.064697,1.885496,2.709924,-0.610687,1.066793,3.357338,713,1253,540,713,0,67.857,7,damping
1780599124.984044,11.443611199996667,11667,0.037354,-0.042236,1.049316,2.007634,2.0,-1.10687,1.05083,3.042327,714,1256,542,714,1,67.857,17,damping
1780599125.0152347,11.474801700009266,11697,0.050781,-0.022461,1.052002,1.832061,2.770992,-0.816794,1.053466,3.420818,718,1261,543,718,0,67.857,6,damping
1780599125.045924,11.505491100004292,11729,0.030273,-0.023193,1.067383,-0.122137,2.465649,-0.89313,1.068064,2.625266,720,1265,545,720,0,67.857,0,damping
1780599125.0776126,11.537179599996307,11760,0.055664,-0.019531,1.047852,1.671756,3.053435,-0.923664,1.049511,3.601581,721,1268,547,721,1,67.857,17,damping
1780599125.109173,11.568740100003197,11791,0.036133,-0.009277,1.057861,1.412214,3.068702,-0.709924,1.058519,3.451851,723,1271,548,723,0,67.857,6,damping
1780599125.1392891,11.59885629999917,11822,0.024902,-0.022217,1.061035,1.251908,2.694656,-0.923664,1.06156,3.111528,724,1273,549,724,0,67.857,6,damping
1780599125.1708822,11.63044940000691,11853,0.039307,-0.008057,1.047119,1.694656,3.175573,-1.091603,1.047888,3.761345,727,1278,551,727,1,60.932,14,damping
1780599125.201644,11.661210899997968,11884,0.033936,-0.036865,1.057129,1.412214,2.89313,-0.633588,1.058316,3.281156,732,1285,553,732,0,60.932,1,damping
1780599125.232008,11.691575100005139,11915,0.039307,-0.016846,1.051514,1.91603,2.70229,-1.19084,1.052383,3.520177,734,1289,555,734,0,60.932,0,damping
1780599125.2638469,11.723413900006562,11946,0.036621,-0.040039,1.05542,1.290076,3.145038,-0.671756,1.056814,3.465086,738,1295,557,738,0,60.932,6,damping
1780599125.2953694,11.75493650000135,11978,0.04541,-0.016602,1.06958,1.305344,3.030534,-0.671756,1.070672,3.36739,742,1301,559,742,0,60.932,0,damping
1780599125.3263845,11.78595150000183,12009,0.031738,-0.006348,1.046143,1.954198,2.549618,-0.679389,1.046643,3.283446,744,1306,562,744,1,60.932,14,damping
1780599125.3574014,11.816968500002986,12040,0.016357,-0.020508,1.048096,1.526718,2.549618,-0.717557,1.048424,3.057173,748,1312,564,748,0,60.932,4,damping
1780599125.3890336,11.8486006000021,12071,0.053467,-0.029541,1.064453,1.78626,3.045802,-0.984733,1.066204,3.665696,751,1317,566,751,0,60.932,1,damping
1780599125.419879,11.879446000006283,12102,0.031982,-0.039795,1.050781,1.51145,2.641221,-0.763359,1.052021,3.137395,753,1322,569,753,1,60.932,14,damping
1780599125.4497197,11.909286699999939,12133,0.037598,-0.00708,1.049072,0.862595,2.396947,-1.099237,1.04977,2.774481,758,1329,571,758,0,110.714,1,damping
1780599125.4807832,11.940350200005923,12164,0.056641,-0.027344,1.053711,0.946565,2.648855,-0.778626,1.055586,2.918677,760,1333,573,760,0,110.714,0,damping
1780599125.5123634,11.971930400002748,12195,0.030029,-0.023438,1.047607,1.70229,2.725191,-0.687023,1.0483,3.285796,762,1338,576,762,1,110.714,14,damping
1780599125.5444543,12.004021500004455,12226,0.052734,-0.01123,1.054932,1.725191,2.900763,-0.51145,1.056308,3.413545,767,1345,578,767,0,110.714,0,damping
1780599125.575124,12.034691200009547,12257,0.032227,-0.043457,1.050537,2.030534,2.70229,-0.251908,1.051929,3.389528,769,1349,580,769,0,110.714,0,damping
1780599125.606425,12.065992100004223,12288,0.062744,-0.017822,1.05542,3.320611,3.328244,-0.816794,1.057434,4.771878,772,1354,582,772,1,110.714,14,damping
1780599125.6361022,12.095669300004374,12319,0.067871,-0.01001,1.056396,1.59542,2.877863,-0.557252,1.058622,3.337362,777,1361,584,777,0,110.714,0,damping
1780599125.6674964,12.127063499996439,12350,0.044922,-0.04248,1.057129,0.435114,2.824427,-0.435114,1.058935,2.890682,779,1365,586,779,0,110.714,0,damping
1780599125.699665,12.159232100006193,12381,0.034912,-0.025391,1.063477,2.709924,3.419847,-0.419847,1.064352,4.383527,783,1371,588,783,0,110.714,6,damping
1780599125.7298746,12.189441599999554,12413,0.051514,-0.005615,1.048096,0.755725,3.045802,-0.633588,1.049376,3.201478,787,1377,590,787,0,103.571,1,damping
1780599125.7620707,12.221637700000429,12444,0.061035,-0.031738,1.059082,1.908397,2.748092,-0.587786,1.061314,3.396981,789,1382,593,789,1,103.571,14,damping
1780599125.7920923,12.25165950000519,12475,0.044434,-0.036377,1.048828,2.328244,2.175573,-0.557252,1.050399,3.234867,793,1387,594,793,0,103.571,5,damping
1780599125.8227525,12.28231950000918,12506,0.030273,0.006592,1.053223,0.10687,2.847328,-0.78626,1.053678,2.955825,797,1393,596,797,0,103.571,0,damping
1780599125.8701613,12.32972829999926,12537,0.026123,-0.025635,1.041748,1.389313,1.923664,-1.068702,1.042391,2.60246,799,1398,599,799,1,103.571,14,damping
1780599125.8859894,12.345556500004022,12569,0.059082,-0.040283,1.067383,3.938931,2.763359,0.320611,1.069775,4.822253,805,1405,600,805,0,103.571,0,damping
1780599125.9178843,12.377451499996823,12601,0.036865,-0.029297,1.042725,-0.549618,2.335878,-1.48855,1.043787,2.82386,807,1409,602,807,0,103.571,0,damping
1780599125.9490855,12.408652600002824,12631,0.05835,-0.043945,1.049072,3.229008,2.908397,-0.526718,1.051612,4.377522,809,1412,603,809,1,103.571,17,damping
1780599125.9796538,12.439220800006296,12663,0.037842,-0.005371,1.047607,0.740458,2.877863,-0.70229,1.048304,3.053454,814,1419,605,814,0,108.0,1,damping
1780599126.0105436,12.470110599999316,12694,0.049561,-0.049561,1.071045,0.587786,2.70229,-1.274809,1.073336,3.04516,816,1423,607,816,0,108.0,0,damping
1780599126.0418584,12.501425599999493,12724,0.065186,-0.020752,1.062744,3.954198,4.290076,-0.564886,1.064944,5.8617,820,1429,609,820,0,108.0,6,damping
1780599126.0729058,12.532472799997777,12756,0.042236,-0.005127,1.041992,-0.076336,2.725191,-1.099237,1.04286,2.939526,824,1435,611,824,0,108.0,0,damping
1780599126.1054165,12.564983600008418,12787,0.056641,-0.044922,1.060059,1.755725,2.824427,-0.648855,1.062521,3.388358,825,1437,612,825,0,108.0,5,damping
1780599126.1355438,12.5951109000016,12818,0.048096,-0.048096,1.04834,2.335878,2.351145,-1.053435,1.050544,3.477634,830,1443,613,830,0,108.0,5,damping
1780599126.1667206,12.626287799997954,12849,0.031006,0.012939,1.067139,0.717557,3.015267,-0.458015,1.067667,3.13313,834,1449,615,834,0,108.0,1,damping
1780599126.1977978,12.65736480000487,12880,0.047363,-0.019287,1.040772,1.78626,2.954198,-0.312977,1.042027,3.466405,836,1454,618,836,1,108.0,14,damping
1780599126.228992,12.688559000001987,12911,0.029785,-0.015381,1.058838,1.801527,2.885496,-0.519084,1.059368,3.44108,841,1461,620,841,0,108.0,0,damping
1780599126.2600698,12.719636800000444,12942,0.042969,-0.023438,1.055664,2.183206,3.007634,-0.725191,1.056798,3.786575,842,1463,621,842,0,100.358,6,damping
1780599126.2903712,12.749938200009638,12973,0.020508,-0.032715,1.042236,2.053435,2.732824,-0.839695,1.042951,3.519945,844,1468,624,844,1,100.358,14,damping
1780599126.3223722,12.78193930000998,13004,0.032959,-0.020508,1.046875,1.877863,2.885496,-0.59542,1.047594,3.493849,849,1475,626,849,0,100.358,0,damping
1780599126.3535092,12.813076200007345,13036,0.048096,-0.029541,1.04248,2.274809,3.450382,-0.717557,1.044007,4.194613,850,1477,627,850,0,100.358,5,damping
1780599126.3850913,12.844658400004846,13067,0.033203,-0.018555,1.058106,3.374046,3.312977,-0.671756,1.058789,4.776114,852,1480,628,852,1,100.358,15,damping
1780599126.417018,12.876585000005434,13099,0.057129,-0.030762,1.0625,2.587786,3.122137,-0.870229,1.064479,4.14749,855,1485,630,855,0,100.358,0,damping
1780599126.4472902,12.906857299996773,13130,0.047607,-0.041748,1.049805,1.610687,3.633588,-0.610687,1.051712,4.02122,856,1488,632,856,1,100.358,17,damping
1780599126.4785087,12.938075800004299,13161,0.055908,-0.031738,1.066894,2.229008,3.015267,-1.061069,1.06883,3.896945,860,1493,633,860,0,100.358,6,damping
1780599126.5099254,12.969492400006857,13192,0.031982,-0.01001,1.057861,1.687023,3.229008,-0.343511,1.058392,3.659308,861,1495,634,861,0,76.0,6,damping
1780599126.5403965,12.999963599999319,13223,0.04541,-0.023926,1.057861,1.48855,3.091603,-1.061069,1.059106,3.591609,862,1498,636,862,1,76.0,17,damping
1780599126.5703406,13.0299076000083,13254,0.026855,-0.02417,1.055664,1.91603,2.70229,-1.015267,1.056282,3.464724,865,1503,638,865,0,76.0,0,damping
1780599126.601994,13.061561000009533,13284,0.049072,-0.027588,1.066162,1.740458,3.045802,-0.496183,1.067647,3.542922,866,1505,639,866,0,76.0,7,damping
1780599126.6324868,13.092053800006397,13315,0.054443,-0.013184,1.055664,1.572519,2.442748,-1.015267,1.057149,3.077434,868,1510,642,868,1,76.0,13,damping
1780599126.6636543,13.123221400004695,13346,0.039795,-0.019531,1.046875,1.381679,2.870229,-0.89313,1.047813,3.308313,870,1513,643,870,0,76.0,7,damping
1780599126.6941493,13.153716300002998,13377,0.043213,-0.028809,1.068115,1.282443,3.419847,-0.48855,1.069377,3.684928,871,1515,644,871,0,76.0,7,damping
1780599126.7245016,13.184068600006867,13408,0.014648,-0.030273,1.039307,1.648855,3.007634,-0.854962,1.039851,3.534904,872,1518,646,872,1,76.0,16,damping
1780599126.7566411,13.216208199999528,13439,0.047852,-0.018799,1.049072,0.770992,2.977099,-0.679389,1.050331,3.149463,874,1521,647,874,0,76.0,7,damping
1780599126.787413,13.246979999996256,13470,0.014404,-0.028809,1.052002,1.030534,3.244275,-0.839695,1.052495,3.506053,875,1523,648,875,0,50.36,7,damping
1780599126.827528,13.287095000006957,13501,0.049316,-0.030762,1.045654,1.877863,3.40458,-0.78626,1.047268,3.96683,876,1526,650,876,1,50.36,17,damping
1780599126.8485143,13.308081399998628,13531,0.059326,-0.02002,1.057617,1.549618,2.709924,-1.137405,1.059469,3.322453,878,1529,651,878,0,50.36,6,damping
1780599126.880096,13.339663000006112,13562,0.027832,-0.012695,1.052978,1.694656,3.137405,-0.778626,1.053423,3.649853,879,1531,652,879,0,50.36,7,damping
1780599126.9101293,13.369696399997338,13593,0.059814,-0.019287,1.051758,2.274809,2.954198,-1.519084,1.053634,4.026122,880,1534,654,880,1,50.36,16,damping
1780599126.941798,13.401364999997895,13624,0.042969,-0.011719,1.059326,1.175572,3.145038,-1.099237,1.060262,3.532925,882,1537,655,882,0,50.36,7,damping
1780599126.972825,13.432392100003199,13655,0.059326,-0.039307,1.058106,1.91603,3.19084,-1.022901,1.060496,3.859917,883,1539,656,883,0,50.36,7,damping
1780599127.0040796,13.463646700009122,13686,0.053467,-0.035645,1.064209,3.045802,3.206107,-1.320611,1.066147,4.615197,885,1542,657,885,1,50.36,15,damping
1780599127.0347512,13.494318299999577,13717,0.034668,-0.024902,1.055176,1.40458,3.229008,-1.007634,1.056039,3.662603,887,1545,658,887,0,50.36,6,damping
1780599127.0656552,13.52522239999962,13748,0.040039,-0.031006,1.045654,1.320611,3.198473,-0.801527,1.04688,3.551998,888,1547,659,888,0,46.763,6,damping
1780599127.097212,13.556779100006679,13779,0.039062,-0.035156,1.060303,1.328244,3.053435,-0.763359,1.061604,3.416199,891,1551,660,891,0,46.763,7,damping
1780599127.1274424,13.587009499999112,13810,0.033203,-0.009033,1.057129,1.564886,3.091603,-1.19084,1.057689,3.664011,892,1553,661,892,0,46.763,7,damping
1780599127.158895,13.618462099999306,13841,0.050537,-0.009766,1.053223,1.129771,3.061069,-0.732824,1.05448,3.344182,893,1556,663,893,1,46.763,16,damping
1780599127.1890447,13.648611800002982,13872,0.027588,-0.023193,1.054688,1.29771,2.419847,-0.961832,1.055303,2.909439,895,1559,664,895,0,46.763,6,damping
1780599127.2200584,13.679625500008115,13902,0.052734,-0.016602,1.062744,1.931298,2.832061,-0.80916,1.064181,3.522105,896,1561,665,896,0,46.763,7,damping
1780599127.2503026,13.709869700003765,13933,0.04834,-0.009033,1.058838,2.152672,2.496183,-1.305344,1.059979,3.545257,897,1564,667,897,1,46.763,16,damping
1780599127.2817073,13.74127430000226,13964,0.021973,-0.023193,1.054443,1.664122,2.503817,-1.221374,1.054927,3.24502,899,1567,668,899,0,46.763,7,damping
1780599127.3124404,13.772007499996107,13995,0.047363,-0.024658,1.062256,1.748092,2.801527,-0.839695,1.063597,3.407266,900,1569,669,900,0,46.763,7,damping
1780599127.3446937,13.804260799995973,14026,0.040527,-0.030029,1.04541,1.48855,2.839695,-0.931298,1.046626,3.338706,901,1572,671,901,1,46.763,15,damping
1780599127.3742762,13.833843200001866,14057,0.038574,-0.019043,1.05835,1.045802,3.19084,-1.08397,1.059224,3.528477,903,1575,672,903,0,46.763,8,damping
1780599127.4061973,13.865764400004991,14088,0.031494,-0.021729,1.064697,1.450382,2.763359,-0.801527,1.065384,3.222143,905,1579,674,905,0,46.763,0,damping
1780599127.4361155,13.895682600006694,14119,0.033691,-0.02124,1.052734,1.91603,3.21374,-1.167939,1.053487,3.919615,906,1582,676,906,1,46.763,16,damping
1780599127.465421,13.924987999998848,14150,0.039307,-0.009766,1.0625,1.114504,3.0,-0.633588,1.063272,3.262446,908,1585,677,908,0,46.763,7,damping
1780599127.4967713,13.956338400006643,14179,0.028564,-0.024902,1.055176,1.541985,3.198473,-1.259542,1.055856,3.767545,909,1587,678,909,0,46.763,7,damping
1780599127.5266154,13.986182399996324,14210,0.053955,-0.025146,1.055908,2.236641,3.312977,-1.29771,1.057585,4.20267,910,1590,680,910,1,46.763,15,damping
1780599127.5585117,14.018078799999785,14241,0.03833,-0.007813,1.057129,1.526718,3.908397,-0.580153,1.057852,4.235919,914,1595,681,914,0,46.763,7,damping
1780599127.5897038,14.049270800009253,14272,0.039795,-0.025391,1.051025,1.549618,3.160305,-0.717557,1.052085,3.592177,915,1597,682,915,0,46.763,7,damping
1780599127.6210885,14.08065550000174,14303,0.034912,-0.036133,1.053955,1.938931,3.572519,-1.145038,1.055152,4.222968,917,1600,683,917,1,57.762,15,damping
1780599127.6514225,14.110989599997993,14334,0.025879,-0.013428,1.054199,1.099237,3.19084,-0.854962,1.054602,3.481485,919,1603,684,919,0,57.762,7,damping
1780599127.683189,14.1427560000011,14365,0.021729,-0.029053,1.050537,1.305344,2.793893,-1.068702,1.051163,3.263722,920,1605,685,920,0,57.762,6,damping
1780599127.7144403,14.174007299996447,14396,0.036865,-0.02002,1.059082,1.732824,2.900763,-0.70229,1.059913,3.451133,923,1609,686,923,0,57.762,7,damping
1780599127.7441432,14.203710400004638,14427,0.047852,-0.022461,1.054932,1.770992,3.251908,-1.259542,1.056255,3.911236,924,1611,687,924,0,57.762,7,damping
1780599127.7761993,14.23576630000025,14458,0.037842,-0.002686,1.053467,1.183206,2.89313,-1.335878,1.05415,3.399227,925,1614,689,925,1,57.762,16,damping
1780599127.8061311,14.265698100003647,14489,0.02417,-0.022949,1.051514,2.045802,2.229008,-1.320611,1.052042,3.301181,927,1617,690,927,0,57.762,6,damping
1780599127.836774,14.29634129999613,14520,0.049561,-0.029785,1.067139,1.755725,2.839695,-0.671756,1.068704,3.405538,928,1619,691,928,0,57.762,7,damping
1780599127.868048,14.327615100002731,14551,0.039795,-0.031006,1.049316,1.282443,2.679389,-1.137405,1.050528,3.180798,929,1622,693,929,1,57.762,16,damping
1780599127.899602,14.359169000003021,14582,0.05957,-0.023682,1.054688,1.320611,2.755725,-0.78626,1.056634,3.155351,931,1625,694,931,0,50.179,7,damping
1780599127.931336,14.39090290000604,14613,0.038818,-0.027588,1.056641,1.442748,2.824427,-1.427481,1.057713,3.478019,932,1627,695,932,0,50.179,7,damping
1780599127.9615858,14.421152900002198,14644,0.055664,-0.034424,1.057617,2.274809,3.083969,-1.51145,1.05964,4.119478,933,1630,697,933,1,50.179,17,damping
1780599127.992328,14.451895000005607,14675,0.039551,-0.027832,1.051514,1.671756,3.099237,-0.870229,1.052625,3.627304,935,1633,698,935,0,50.179,7,damping
1780599128.0243752,14.483942200007732,14706,0.052734,-0.031006,1.056152,1.900763,3.206107,-0.770992,1.057922,3.806107,936,1635,699,936,0,50.179,7,damping
1780599128.055315,14.514882000003126,14737,0.036377,-0.031494,1.056885,2.290076,3.450382,-0.984733,1.05798,4.256675,938,1638,700,938,1,50.179,15,damping
1780599128.0849936,14.544560599999386,14768,0.040527,-0.031982,1.052246,1.625954,3.129771,-1.08397,1.053512,3.68974,940,1641,701,940,0,50.179,7,damping
1780599128.1151826,14.574749699997483,14799,0.033447,-0.030518,1.054443,1.70229,3.198473,-0.900763,1.055415,3.73355,941,1643,702,941,0,50.179,6,damping
1780599128.1450462,14.604613400006201,14829,0.055176,-0.032227,1.062012,2.396947,3.70229,-0.290076,1.063932,4.420006,943,1646,703,943,1,50.179,15,damping
1780599128.1753387,14.634905800005072,14859,0.040771,-0.013184,1.053955,1.389313,3.435115,-0.946565,1.054826,3.82442,945,1649,704,945,0,50.542,7,damping
1780599128.2063797,14.66594669999904,14889,0.048828,-0.044189,1.05249,1.839695,2.687023,-0.954198,1.054548,3.393385,946,1651,705,946,0,50.542,7,damping
1780599128.2383728,14.697939799996675,14920,0.036621,-0.035156,1.054932,1.671756,3.251908,-0.824427,1.056152,3.748247,948,1654,706,948,1,50.542,15,damping
1780599128.2694001,14.728967100003501,14951,0.05542,-0.037842,1.065674,1.175572,2.725191,-0.770992,1.067785,3.066442,950,1657,707,950,0,50.542,6,damping
1780599128.2983236,14.757890699998825,14982,0.044922,-0.003662,1.062256,1.740458,3.175573,-0.984733,1.063212,3.752753,951,1659,708,951,0,50.542,6,damping
1780599128.3306348,14.790201900003012,15013,0.046143,-0.034424,1.066406,1.519084,2.885496,-0.748092,1.067959,3.345646,954,1663,709,954,0,50.542,6,damping
1780599128.3624759,14.822043000007397,15044,0.039795,-0.021973,1.063477,1.480916,3.061069,-0.885496,1.064448,3.513881,955,1665,710,955,0,50.542,7,damping
1780599128.3921382,14.851705200009746,15075,0.058594,-0.04126,1.056396,1.900763,3.381679,-0.59542,1.058824,3.924688,956,1668,712,956,1,50.542,16,damping
1780599128.4231656,14.882732600002782,15106,0.03125,-0.036865,1.057373,2.038168,2.435115,-1.099237,1.058477,3.360392,958,1671,713,958,0,50.542,7,damping
1780599128.4533231,14.912890200008405,15136,0.030518,-0.03418,1.057861,0.732824,3.450382,-0.977099,1.058853,3.660176,959,1673,714,959,0,50.542,7,damping
1780599128.4838774,14.943444600008661,15167,0.058594,-0.011719,1.052002,1.274809,2.954198,-1.08397,1.053698,3.395205,961,1678,717,961,1,50.542,14,damping
1780599128.5151048,14.974671899995883,15198,0.035156,-0.016846,1.05835,1.610687,2.358779,-1.068702,1.059067,3.049635,963,1681,718,963,0,50.542,6,damping
1780599128.5461087,15.005675699998392,15229,0.040771,-0.026855,1.064453,1.030534,2.961832,-0.961832,1.065572,3.280178,964,1683,719,964,0,50.542,7,damping
1780599128.5776095,15.037176600002567,15260,0.04126,-0.042725,1.055908,2.183206,2.366412,-0.824427,1.057577,3.323548,965,1686,721,965,1,50.542,16,damping
1780599128.609039,15.068606100001489,15291,0.052002,-0.020996,1.049561,1.587786,2.748092,-0.916031,1.051058,3.30336,967,1689,722,967,0,50.542,7,damping
1780599128.6395667,15.099133800002164,15322,0.037598,-0.016602,1.061523,1.366412,3.152672,-0.900763,1.062319,3.552154,969,1693,724,969,0,50.542,0,damping
1780599128.6711485,15.130715699997381,15353,0.063965,-0.023926,1.057861,1.694656,2.778626,-1.045802,1.060064,3.418526,970,1696,726,970,1,50.542,16,damping
1780599128.7012703,15.16083740000613,15384,0.066162,-0.01709,1.053711,1.328244,3.778626,-0.977099,1.055924,4.122738,972,1699,727,972,0,50.542,6,damping
1780599128.7326677,15.19223480000801,15415,0.043701,-0.033447,1.056152,1.717557,3.48855,-0.885496,1.057585,3.987992,973,1701,728,973,0,50.179,6,damping
1780599128.7631721,15.22273920000589,15446,0.055664,-0.032715,1.061035,2.083969,3.381679,-0.648855,1.062998,4.024884,975,1704,729,975,1,50.179,15,damping
1780599128.7946627,15.254229900005157,15477,0.045654,-0.04126,1.059326,1.328244,3.244275,-0.847328,1.061112,3.606594,978,1709,731,978,0,50.179,1,damping
1780599128.8257093,15.285276499998872,15508,0.018311,-0.016113,1.052978,1.89313,2.832061,-1.160305,1.053261,3.598725,979,1711,732,979,0,50.179,7,damping
1780599128.8570347,15.316601700003957,15539,0.04541,-0.012451,1.051514,1.854962,3.259542,-0.832061,1.052567,3.841591,983,1717,734,983,0,50.179,6,damping
1780599128.8874748,15.347041900007753,15570,0.024414,-0.012939,1.058594,1.198473,2.977099,-1.045802,1.058954,3.375375,984,1719,735,984,0,50.179,6,damping
1780599128.9191058,15.378672899998492,15601,0.046387,-0.031738,1.050293,1.618321,3.412214,-0.923664,1.051796,3.887842,985,1722,737,985,1,50.179,17,damping
1780599128.9495583,15.409125300007872,15632,0.033691,-0.031006,1.044678,1.687023,2.984733,-0.954198,1.045681,3.558816,987,1725,738,987,0,50.179,7,damping
1780599128.9807153,15.440282299998216,15663,0.061279,-0.015381,1.060547,1.793893,2.969466,-0.732824,1.062427,3.545816,990,1729,739,990,0,50.179,7,damping
1780599129.0113392,15.47090620000381,15694,0.024414,-0.030518,1.049316,1.480916,2.580153,-1.137405,1.050044,3.184963,992,1734,742,992,1,68.1,14,damping
1780599129.0422964,15.50186340000073,15725,0.036377,-0.011963,1.046387,1.832061,2.80916,-1.091603,1.047087,3.526957,994,1737,743,994,0,68.1,6,damping
1780599129.0734315,15.53299849999894,15756,0.051514,-0.020996,1.064941,1.343511,2.236641,-1.022901,1.066393,2.802483,995,1739,744,995,0,68.1,6,damping
1780599129.1044104,15.563977500001783,15787,0.055908,-0.028564,1.052978,1.549618,2.755725,-0.885496,1.054849,3.283206,996,1742,746,996,1,68.1,16,damping
1780599129.136605,15.59617220000655,15818,0.054199,-0.02832,1.053955,1.351145,2.717557,-0.549618,1.055728,3.084281,1000,1747,747,1000,0,68.1,7,damping
1780599129.166239,15.625805999996373,15849,0.036865,-0.032471,1.059082,2.015267,3.114504,-0.969466,1.060221,3.834227,1002,1751,749,1002,0,68.1,0,damping
1780599129.1979847,15.657551800002693,15880,0.040527,-0.015869,1.053711,1.656489,3.503817,-0.992366,1.054609,4.000685,1003,1754,751,1003,1,68.1,16,damping
1780599129.2292507,15.68881780000811,15911,0.064209,-0.03833,1.057617,0.854962,3.145038,-0.80916,1.060258,3.358119,1005,1757,752,1005,0,68.1,6,damping
1780599129.2592673,15.71883450000314,15942,0.041016,-0.027832,1.054932,1.419847,3.274809,-0.923664,1.056096,3.686936,1006,1759,753,1006,0,68.1,6,damping
1780599129.2913663,15.750933400006033,15973,0.038818,-0.018066,1.061523,2.099237,3.244275,-0.885496,1.062386,3.964368,1009,1764,755,1009,0,60.932,13,damping
1780599129.3213363,15.780903400009265,16004,0.022217,-0.022705,1.066162,1.007634,3.183206,-0.816794,1.066635,3.437336,1012,1769,757,1012,0,60.932,1,damping
1780599129.3531673,15.812734400009504,16035,0.032471,-0.034668,1.059326,0.954198,3.343511,-0.862595,1.06039,3.582406,1013,1772,759,1013,1,60.932,16,damping
1780599129.3851233,15.844690400001127,16067,0.042236,-0.019043,1.052002,1.129771,2.465649,-0.977099,1.053022,2.882799,1015,1775,760,1015,0,60.932,6,damping
1780599129.4167845,15.876351500002784,16098,0.0354,-0.023926,1.060791,1.244275,2.503817,-0.725191,1.061651,2.888464,1016,1777,761,1016,0,60.932,6,damping
1780599129.4469385,15.90650569999707,16129,0.020508,-0.020508,1.053711,1.641221,3.198473,-0.862595,1.05411,3.697014,1018,1782,764,1018,1,60.932,13,damping
1780599129.4775321,15.937099300004775,16159,0.037842,-0.02124,1.045166,1.740458,2.793893,-0.931298,1.046066,3.420869,1021,1787,766,1021,0,60.932,1,damping
1780599129.5074747,15.967041700001573,16190,0.057861,-0.037842,1.068359,2.007634,3.259542,-0.48855,1.070594,3.85926,1022,1789,767,1022,0,60.932,7,damping
1780599129.5376081,15.997175099997548,16220,0.030273,-0.0354,1.052978,1.89313,2.519084,-1.221374,1.054008,3.379568,1023,1792,769,1023,1,60.932,16,damping
1780599129.567458,16.02702500000305,16251,0.043945,-0.01709,1.056396,1.824428,3.061069,-1.0,1.057448,3.701172,1025,1795,770,1025,0,57.554,6,damping
1780599129.5984075,16.057974600000307,16281,0.046387,-0.045898,1.05957,1.519084,3.068702,-0.687023,1.061578,3.492356,1027,1799,772,1027,0,57.554,0,damping
1780599129.6306508,16.090217899996787,16312,0.031006,-0.03833,1.052734,2.045802,2.389313,-1.015267,1.053888,3.305282,1028,1802,774,1028,1,57.554,16,damping
1780599129.660461,16.120028100005584,16343,0.035156,-0.02002,1.052734,1.328244,2.885496,-1.534351,1.053512,3.527684,1032,1807,775,1032,0,57.554,7,damping
1780599129.6925519,16.152118900005007,16374,0.046875,-0.030762,1.053955,1.450382,2.778626,-1.091603,1.055445,3.319031,1033,1809,776,1033,0,57.554,7,damping
1780599129.7213123,16.18087930000911,16405,0.0625,-0.037842,1.056396,1.534351,2.427481,-1.40458,1.05892,3.196833,1034,1812,778,1034,1,57.554,16,damping
1780599129.7523677,16.211934699997073,16435,0.036865,-0.006836,1.054443,1.145038,2.977099,-0.801527,1.05511,3.288872,1037,1817,780,1037,0,57.554,0,damping
1780599129.788901,16.248468200006755,16466,0.019775,-0.038086,1.054443,1.251908,3.053435,-1.022901,1.055316,3.455006,1038,1819,781,1038,0,57.554,6,damping
1780599129.8143635,16.27393049999955,16497,0.037842,-0.02417,1.047363,2.137405,3.015267,-1.022901,1.048325,3.834926,1040,1824,784,1040,1,57.554,13,damping
1780599129.844879,16.304446100009955,16528,0.044434,-0.006836,1.052734,1.541985,3.40458,-0.442748,1.053694,3.76363,1042,1827,785,1042,0,61.372,7,damping
1780599129.8752625,16.334829600004014,16558,0.052979,-0.037109,1.05542,2.038168,2.938931,-1.076336,1.0574,3.734962,1043,1829,786,1043,0,61.372,7,damping
1780599129.907135,16.36670199999935,16589,0.04248,-0.021973,1.061035,1.847328,2.900763,-0.969466,1.062113,3.573082,1045,1832,787,1045,1,61.372,16,damping
1780599129.9373422,16.396909300005063,16620,0.046387,-0.016602,1.066162,0.984733,3.122137,-0.656489,1.0673,3.338925,1049,1837,788,1049,0,61.372,7,damping
1780599129.9688888,16.428455800007214,16651,0.033691,-0.030518,1.050049,1.946565,3.083969,-0.977099,1.051032,3.77554,1051,1841,790,1051,0,61.372,1,damping
1780599130.0001452,16.4597122999985,16682,0.066162,-0.013916,1.065918,1.938931,3.564885,-0.679389,1.06806,4.114539,1054,1845,791,1054,0,61.372,7,damping
1780599130.0307477,16.490314700000454,16713,0.030762,-0.022949,1.054688,1.145038,3.541985,-0.633588,1.055386,3.776003,1055,1847,792,1055,0,61.372,7,damping
1780599130.0682008,16.527767999999924,16744,0.029785,-0.037598,1.054443,2.030534,3.748092,-0.709924,1.055534,4.321488,1056,1850,794,1056,1,61.372,16,damping
1780599130.0992348,16.558801899998798,16781,0.0354,-0.036621,1.060059,1.572519,3.122137,-0.534351,1.061282,3.536395,1060,1855,795,1060,0,71.146,7,damping
1780599130.1291142,16.588681200009887,16812,0.050293,-0.035156,1.053711,1.381679,3.541985,-0.694656,1.055496,3.864873,1062,1859,797,1062,0,71.146,1,damping
1780599130.160899,16.620466100008343,16843,0.042969,-0.02832,1.054443,2.167939,3.305344,-0.870229,1.055698,4.047537,1065,1863,798,1065,0,71.146,7,damping
1780599130.191883,16.651450200006366,16874,0.027344,-0.006836,1.068604,0.770992,3.480916,-0.473282,1.068975,3.596554,1066,1865,799,1066,0,71.146,7,damping
1780599130.2231114,16.68267840000044,16904,0.045654,-0.028564,1.048096,1.587786,2.938931,-0.984733,1.049478,3.48254,1067,1868,801,1067,1,71.146,16,damping
1780599130.254142,16.713709100004053,16936,0.025146,-0.017578,1.050781,2.145038,2.717557,-1.274809,1.051229,3.689369,1071,1873,802,1071,0,71.146,6,damping
1780599130.2843392,16.74390630000562,16967,0.031006,-0.035889,1.059326,2.244275,3.274809,-1.0,1.060387,4.094038,1073,1877,804,1073,0,71.146,1,damping
1780599130.314762,16.77432920000865,16997,0.022949,-0.034424,1.054199,1.091603,2.389313,-1.122137,1.055011,2.856502,1074,1880,806,1074,1,71.146,16,damping
1780599130.3460212,16.805588200004422,17029,0.022705,-0.014404,1.052978,0.900763,3.015267,-0.954198,1.053322,3.28842,1076,1883,807,1076,0,71.146,7,damping
1780599130.3772671,16.836834100002307,17060,0.035889,-0.021729,1.057861,1.061069,2.832061,-0.648855,1.058693,3.093129,1077,1885,808,1077,0,60.932,7,damping
1780599130.407739,16.867305899999337,17091,0.055908,-0.03125,1.052734,2.007634,2.389313,-1.282443,1.054681,3.374028,1079,1890,811,1079,1,60.932,14,damping
1780599130.4392416,16.898808600002667,17121,0.025391,-0.010986,1.053223,1.648855,3.167939,-0.763359,1.053586,3.652024,1089,1902,813,1089,0,60.932,0,damping
1780599130.4704113,16.929978400003165,17153,0.039062,-0.026855,1.047607,1.839695,2.351145,-1.21374,1.048679,3.222658,1090,1904,814,1090,0,60.932,7,damping
1780599130.5027428,16.962309800001094,17184,0.039551,-0.033936,1.053711,1.885496,3.167939,-0.839695,1.054999,3.781008,1092,1907,815,1092,1,60.932,15,damping
1780599130.532668,16.992235099998652,17215,0.055176,-0.038086,1.056885,1.328244,3.083969,-0.938931,1.059009,3.486645,1094,1910,816,1094,0,60.932,7,damping
1780599130.5629122,17.022479200008092,17246,0.051025,-0.025879,1.052978,1.778626,3.389313,-0.969466,1.054532,3.948521,1096,1914,818,1096,0,60.932,0,damping
1780599130.5941784,17.053745600002003,17277,0.066162,-0.020508,1.054932,1.763359,3.076336,-0.679389,1.057203,3.61038,1099,1918,819,1099,0,60.932,6,damping
1780599130.6252878,17.084854800006724,17308,0.030762,-0.019287,1.054199,1.534351,3.160305,-0.900763,1.054824,3.626726,1102,1922,820,1102,0,60.932,7,damping
1780599130.6566963,17.116263500007335,17339,0.04248,-0.010498,1.053711,1.687023,2.832061,-0.770992,1.054619,3.385416,1103,1925,822,1103,1,93.19,16,damping
1780599130.6886814,17.1482485000015,17371,0.033936,-0.01001,1.052978,1.687023,2.977099,-0.717557,1.053573,3.496291,1105,1928,823,1105,0,93.19,7,damping
1780599130.7204688,17.18003590000444,17402,0.05127,-0.016113,1.061523,1.541985,2.923664,-1.022901,1.062883,3.460037,1107,1932,825,1107,0,93.19,0,damping
1780599130.7511706,17.210737800007337,17433,0.042725,-0.032227,1.057373,1.961832,2.725191,-1.030534,1.058726,3.512471,1108,1935,827,1108,1,93.19,16,damping
1780599130.7812743,17.24084130000847,17464,0.05249,-0.023438,1.058106,1.0,2.793893,-1.015267,1.059666,3.136336,1112,1940,828,1112,0,93.19,7,damping
1780599130.8275464,17.287113400001545,17494,0.041016,-0.023193,1.05249,2.083969,2.900763,-1.099237,1.053544,3.737068,1113,1942,829,1113,0,93.19,7,damping
1780599130.8436096,17.303176600005827,17525,0.041016,-0.023438,1.05127,2.290076,2.885496,-1.10687,1.05233,3.846518,1114,1945,831,1114,1,93.19,16,damping
1780599130.8739817,17.333548900001915,17556,0.041504,-0.020508,1.057373,2.10687,2.931298,-0.618321,1.058386,3.662476,1117,1950,833,1117,0,93.19,0,damping
1780599130.9043238,17.363891000000876,17587,0.028076,-0.026367,1.047363,1.587786,2.725191,-0.89313,1.048071,3.27802,1118,1952,834,1118,0,93.19,6,damping
1780599130.9368544,17.396421500001452,17618,0.035156,-0.027344,1.057617,1.694656,3.083969,-0.832061,1.058554,3.615944,1121,1957,836,1121,1,64.516,13,damping
1780599130.9664931,17.426060300000245,17649,0.044922,-0.028809,1.057861,1.007634,2.694656,-0.900763,1.059206,3.01461,1123,1960,837,1123,0,64.516,7,damping
1780599130.9979417,17.457508799998323,17680,0.04126,-0.02832,1.053711,1.961832,3.389313,-1.114504,1.054899,4.071652,1124,1962,838,1124,0,64.516,7,damping
1780599131.0287282,17.48829520000436,17711,0.043213,-0.017334,1.053467,1.870229,3.366412,-1.015267,1.054495,3.982619,1127,1966,839,1127,0,64.516,7,damping
1780599131.0610893,17.52065630001016,17743,0.043213,-0.014893,1.063721,1.824428,2.717557,-0.854962,1.064702,3.382989,1130,1970,840,1130,0,64.516,7,damping
1780599131.0913908,17.550958000007086,17774,0.047852,-0.014404,1.049805,1.51145,3.091603,-0.931298,1.050993,3.565082,1132,1975,843,1132,1,64.516,13,damping
1780599131.1243072,17.583874200005084,17805,0.019287,-0.012451,1.052978,1.335878,2.572519,-0.992366,1.053229,3.063856,1134,1978,844,1134,0,64.516,7,damping
1780599131.1541111,17.613678299996536,17836,0.035889,-0.018799,1.069336,1.778626,2.931298,-0.557252,1.070103,3.473693,1135,1980,845,1135,0,64.516,7,damping
1780599131.1853323,17.644899300008547,17867,0.042969,-0.033936,1.05127,1.557252,2.946565,-0.519084,1.052694,3.37294,1136,1983,847,1136,1,64.516,16,damping
1780599131.2166152,17.67618219999713,17898,0.047607,-0.018066,1.053955,1.312977,2.832061,-0.938931,1.055184,3.259765,1140,1988,848,1140,0,67.857,6,damping
1780599131.2469423,17.70650939999905,17929,0.037598,-0.029053,1.055664,1.045802,3.061069,-0.916031,1.056733,3.361987,1142,1992,850,1142,0,67.857,1,damping
1780599131.278103,17.737670100003015,17960,0.063232,-0.026611,1.064697,1.931298,3.564885,-1.145038,1.066905,4.213007,1143,1995,852,1143,1,67.857,16,damping
1780599131.3087475,17.768314500004635,17991,0.056641,-0.006836,1.053223,1.045802,3.259542,-0.709924,1.054767,3.496042,1145,1998,853,1145,0,67.857,7,damping
1780599131.3402615,17.79982860000746,18022,0.053955,-0.033691,1.052978,1.519084,2.916031,-0.916031,1.054898,3.413204,1146,2000,854,1146,0,67.857,7,damping
1780599131.3708587,17.83042569999816,18053,0.050537,-0.031006,1.055664,2.076336,2.717557,-1.114504,1.057328,3.597,1149,2005,856,1149,1,67.857,14,damping
1780599131.4012625,17.860829500001273,18084,0.044189,-0.041016,1.062988,2.10687,2.839695,-1.29771,1.064697,3.766539,1152,2010,858,1152,0,67.857,0,damping
1780599131.4318225,17.891389700002037,18114,0.031494,-0.020508,1.056396,1.366412,3.396947,-0.641221,1.057065,3.717189,1153,2012,859,1153,0,67.857,6,damping
1780599131.4640555,17.923622600006638,18146,0.050293,-0.033203,1.056641,1.664122,2.694656,-0.725191,1.058358,3.249058,1156,2016,860,1156,0,67.857,7,damping
1780599131.4945085,17.954075500005274,18177,0.032471,-0.017334,1.067627,1.648855,3.625954,-0.877863,1.068261,4.078837,1157,2018,861,1157,0,60.932,7,damping
1780599131.526452,17.98601910000434,18208,0.048584,-0.022949,1.057617,1.351145,2.931298,-0.740458,1.058981,3.311552,1158,2021,863,1158,1,60.932,16,damping
1780599131.5566897,18.016256700007943,18239,0.030273,-0.01709,1.051758,1.580153,2.641221,-1.129771,1.052332,3.278615,1160,2024,864,1160,0,60.932,7,damping
1780599131.5878801,18.04744720000599,18270,0.039307,-0.037598,1.059326,2.076336,3.442748,-0.656489,1.060722,4.073654,1161,2026,865,1161,0,60.932,6,damping
1780599131.6191678,18.07873490000202,18301,0.011963,-0.030518,1.043945,1.59542,2.839695,-1.022901,1.04446,3.414024,1162,2029,867,1162,1,60.932,16,damping
1780599131.649817,18.109384099996532,18332,0.043701,-0.016113,1.05957,1.816794,2.89313,-0.900763,1.060594,3.533032,1164,2032,868,1164,0,60.932,7,damping
1780599131.681576,18.14114320000226,18363,0.027588,-0.020508,1.056152,0.755725,2.839695,-0.916031,1.056712,3.078002,1165,2034,869,1165,0,60.932,7,damping
1780599131.71185,18.17141700000502,18394,0.051758,-0.029297,1.050293,2.068702,2.59542,-0.816794,1.051976,3.418024,1166,2037,871,1166,1,60.932,16,damping
1780599131.742655,18.20222200000717,18425,0.052734,-0.019531,1.058594,2.343511,2.977099,-1.152672,1.060086,3.96028,1168,2040,872,1168,0,60.932,7,damping
1780599131.7726462,18.232213199997204,18456,0.049316,-0.023193,1.053955,2.022901,2.931298,-1.251908,1.055363,3.77517,1169,2042,873,1169,0,43.011,7,damping
1780599131.8045876,18.264154600008624,18486,0.047363,-0.017578,1.061768,1.977099,3.045802,-0.89313,1.062969,3.739453,1170,2045,875,1170,1,43.011,16,damping
1780599131.8349726,18.294539599999553,18517,0.031006,-0.005615,1.047363,0.541985,3.603053,-0.839695,1.047837,3.739094,1172,2048,876,1172,0,43.011,7,damping
1780599131.865631,18.325198100006673,18548,0.033447,-0.018555,1.050781,1.320611,3.076336,-0.793893,1.051477,3.440657,1173,2050,877,1173,0,43.011,7,damping
1780599131.8974922,18.35705930000404,18579,0.035889,-0.025146,1.058838,1.946565,3.312977,-1.160305,1.059744,4.013881,1175,2053,878,1175,1,43.011,15,damping
1780599131.928281,18.387848200000008,18610,0.034668,-0.032227,1.049805,1.221374,3.320611,-0.992366,1.050871,3.674643,1177,2056,879,1177,0,43.011,8,damping
1780599131.95845,18.418017200005124,18641,0.033447,-0.024658,1.057373,1.48855,3.221374,-1.198473,1.058189,3.74558,1178,2058,880,1178,0,43.011,7,damping
1780599131.988618,18.448185000001104,18671,0.044678,-0.010986,1.058594,2.167939,3.160305,-0.694656,1.059593,3.894873,1180,2061,881,1180,0,43.011,14,damping
1780599132.0203462,18.479913200004376,18702,0.054199,-0.022217,1.060547,1.534351,2.984733,-0.832061,1.062163,3.457628,1182,2064,882,1182,0,43.011,7,damping
1780599132.0526574,18.512224400008563,18733,0.040527,-0.044189,1.050049,1.748092,3.587786,-0.862595,1.051759,4.083149,1183,2067,884,1183,1,50.542,16,damping
1780599132.0833187,18.5428857000079,18765,0.041748,-0.026367,1.059326,1.793893,2.206107,-1.206107,1.060476,3.088633,1185,2070,885,1185,0,50.542,8,damping
1780599132.1142654,18.57383249999839,18796,0.044678,-0.029541,1.063477,2.221374,3.122137,-0.564886,1.064824,3.873156,1186,2072,886,1186,0,50.542,7,damping
1780599132.1443543,18.603921400004765,18827,0.019775,-0.036865,1.036865,2.19084,2.694656,-0.870229,1.037709,3.580258,1187,2075,888,1187,1,50.542,16,damping
1780599132.1757386,18.635305700008757,18858,0.05249,-0.012939,1.060059,1.351145,3.305344,-0.854962,1.061436,3.671764,1189,2078,889,1189,0,50.542,7,damping
1780599132.2077348,18.667302000001655,18889,0.041992,-0.027344,1.066162,1.366412,2.633588,-0.900763,1.067339,3.100684,1190,2080,890,1190,0,50.542,7,damping
1780599132.2386212,18.698188199996366,18920,0.068359,-0.017822,1.057373,2.030534,2.923664,-1.274809,1.05973,3.781008,1191,2083,892,1191,1,50.542,15,damping
1780599132.2690225,18.728589599995757,18951,0.054932,-0.005859,1.057373,1.198473,3.572519,-0.625954,1.058815,3.819823,1193,2086,893,1193,0,50.542,7,damping
1780599132.3004127,18.759979700000258,18982,0.04834,-0.031006,1.050049,1.603053,3.694656,-0.618321,1.051618,4.074628,1194,2088,894,1194,0,50.542,7,damping
1780599132.331979,18.791546100008418,19013,0.057129,-0.030273,1.060303,2.236641,3.152672,-1.137405,1.062272,4.029342,1196,2091,895,1196,1,46.429,15,damping
1780599132.3629315,18.82249849999789,19045,0.046143,-0.020996,1.058106,1.51145,3.236641,-0.755725,1.059319,3.651226,1198,2094,896,1198,0,46.429,7,damping
1780599132.3943653,18.853932400001213,19076,0.044434,-0.042236,1.048828,1.938931,3.534351,-0.778626,1.050618,4.10577,1199,2097,898,1199,1,46.429,15,damping
1780599132.4252362,18.8848033999966,19107,0.033203,-0.019287,1.05127,1.755725,2.526718,-1.229008,1.05197,3.313206,1201,2100,899,1201,0,46.429,8,damping
1780599132.4562204,18.915787500009174,19138,0.05835,-0.028076,1.062988,1.480916,3.114504,-0.70229,1.064959,3.51944,1202,2102,900,1202,0,46.429,7,damping
1780599132.4881144,18.947681500008912,19169,0.05127,-0.02002,1.057129,1.450382,2.854962,-0.824427,1.058561,3.306674,1203,2105,902,1203,1,46.429,16,damping
1780599132.5188243,18.978391299999203,19201,0.047607,-0.012207,1.056396,1.519084,2.870229,-1.183206,1.057539,3.456271,1205,2108,903,1205,0,46.429,7,damping
1780599132.5495906,19.009157599997707,19232,0.031738,-0.027344,1.061035,1.671756,2.687023,-0.763359,1.061862,3.255392,1206,2110,904,1206,0,46.429,7,damping
1780599132.5808105,19.04037750000134,19263,0.063721,-0.018311,1.061035,2.244275,2.80916,-1.587786,1.063104,3.930549,1207,2113,906,1207,1,44.0,16,damping
1780599132.6114728,19.071040000009816,19294,0.054932,-0.009277,1.053711,1.625954,3.625954,-0.832061,1.055183,4.06,1210,2118,908,1210,0,44.0,0,damping
1780599132.6411378,19.100705000004382,19324,0.025146,-0.030029,1.053467,1.419847,3.320611,-0.847328,1.054195,3.7095,1211,2120,909,1211,0,44.0,7,damping
1780599132.6727085,19.132275700001628,19355,0.033691,-0.017822,1.047607,1.847328,3.442748,-1.40458,1.0483,4.151865,1212,2123,911,1212,1,44.0,16,damping
1780599132.7029164,19.162483399995835,19386,0.038086,-0.00708,1.065674,0.992366,2.847328,-0.900763,1.066378,3.146974,1214,2126,912,1214,0,44.0,7,damping
1780599132.7330391,19.19260629999917,19416,0.034424,-0.033203,1.062012,2.099237,2.709924,-0.778626,1.063088,3.515215,1215,2128,913,1215,0,44.0,7,damping
1780599132.7653387,19.224905700000818,19447,0.046875,-0.014404,1.04834,2.152672,2.755725,-1.183206,1.049486,3.691611,1216,2131,915,1216,1,44.0,17,damping
1780599132.7962096,19.255776699996204,19478,0.066406,-0.043213,1.068604,1.015267,2.732824,-0.916031,1.071537,3.055848,1220,2136,916,1220,0,44.0,7,damping
1780599132.827045,19.286612099997,19509,0.051514,-0.020508,1.060303,1.778626,2.816794,-1.068702,1.061751,3.498566,1221,2138,917,1221,0,44.0,7,damping
1780599132.8576343,19.317201400001068,19540,0.050049,-0.01709,1.059814,1.992366,3.572519,-0.473282,1.061133,4.117816,1224,2142,918,1224,0,61.372,7,damping
1780599132.8887978,19.34836489999725,19572,0.059082,-0.012451,1.060059,1.656489,3.40458,-0.740458,1.061777,3.857901,1225,2144,919,1225,0,61.372,7,damping
1780599132.9205434,19.380110400001286,19602,0.021973,-0.035889,1.052734,1.694656,3.572519,-0.923664,1.053575,4.06053,1226,2147,921,1226,1,61.372,16,damping
1780599132.952463,19.41202990000602,19634,0.033447,-0.025391,1.059082,1.282443,2.801527,-0.900763,1.059914,3.210076,1230,2152,922,1230,0,61.372,7,damping
1780599132.9833183,19.442885500000557,19665,0.05127,-0.012939,1.068115,1.335878,3.236641,-0.78626,1.069423,3.58868,1232,2156,924,1232,0,61.372,0,damping
1780599133.014055,19.473622200006503,19696,0.012939,-0.026611,1.049805,1.778626,2.618321,-1.267176,1.050222,3.409523,1233,2159,926,1233,1,61.372,16,damping
1780599133.044256,19.50382310000714,19727,0.040283,-0.018066,1.049805,1.618321,2.961832,-0.89313,1.050733,3.491288,1235,2162,927,1235,0,61.372,7,damping
1780599133.0770597,19.53662680000707,19758,0.027588,-0.015625,1.058838,1.824428,2.610687,-1.068702,1.059312,3.359516,1236,2164,928,1236,0,61.372,7,damping
1780599133.107225,19.566792099998565,19789,0.0354,-0.024414,1.054443,1.89313,3.351145,-0.854962,1.05532,3.942724,1238,2169,931,1238,1,61.372,13,damping
1780599133.1393597,19.59892679999757,19820,0.040771,-0.010742,1.049805,1.358779,3.435115,-0.580153,1.050651,3.739368,1241,2174,933,1241,0,60.714,0,damping
1780599133.1692843,19.62885130000359,19851,0.033447,-0.034668,1.05127,2.351145,2.992366,-0.763359,1.052373,3.881347,1242,2176,934,1242,0,60.714,7,damping
1780599133.2004547,19.66002190001018,19882,0.03418,-0.030518,1.054688,1.793893,3.312977,-0.389313,1.055682,3.787537,1244,2179,935,1244,1,60.714,15,damping
1780599133.2309566,19.690523600002052,19913,0.035156,-0.036377,1.053711,0.664122,3.114504,-1.068702,1.054925,3.359065,1246,2182,936,1246,0,60.714,7,damping
1780599133.2633593,19.722926400005235,19945,0.022705,-0.0271,1.060547,1.816794,3.419847,-0.969466,1.061136,3.991987,1248,2186,938,1248,0,60.714,1,damping
1780599133.2945805,19.754147500003455,19976,0.033447,-0.018066,1.057373,2.015267,2.938931,-0.877863,1.058056,3.670049,1251,2190,939,1251,0,60.714,7,damping
1780599133.3263838,19.78595089999726,20008,0.054443,-0.029541,1.057861,1.328244,3.114504,-0.938931,1.059673,3.513682,1254,2194,940,1254,0,60.714,7,damping
1780599133.3558095,19.815376500002458,20039,0.023926,-0.033691,1.052002,1.274809,2.40458,-1.061069,1.052813,2.921132,1255,2197,942,1255,1,60.714,16,damping
1780599133.3876226,19.847189599997364,20070,0.040283,-0.012451,1.054199,1.770992,2.725191,-1.030534,1.055042,3.409557,1257,2200,943,1257,0,64.0,6,damping
1780599133.4183006,19.87786780000897,20101,0.027588,-0.023193,1.058106,1.847328,3.061069,-0.816794,1.058719,3.667413,1259,2204,945,1259,0,64.0,1,damping
1780599133.449948,19.90951510000741,20132,0.055176,-0.030518,1.055176,1.541985,3.389313,-0.70229,1.057058,3.789244,1260,2207,947,1260,1,64.0,16,damping
1780599133.4804997,19.94006680000166,20163,0.035645,-0.026611,1.053467,1.335878,3.664122,-0.70229,1.054405,3.962773,1264,2212,948,1264,0,64.0,7,damping
1780599133.5114207,19.970987900000182,20194,0.032715,-0.035156,1.047363,2.114504,2.839695,-0.900763,1.048464,3.653268,1265,2214,949,1265,0,64.0,7,damping
1780599133.5430427,20.00260980000894,20225,0.060547,-0.023926,1.058594,1.824428,3.427481,-0.923664,1.060594,3.991155,1266,2217,951,1266,1,64.0,16,damping
1780599133.57369,20.033257000002777,20256,0.040771,-0.027344,1.063477,0.885496,3.740458,-0.862595,1.064609,3.939442,1269,2222,953,1269,0,64.0,0,damping
1780599133.605386,20.064953200009768,20287,0.047363,-0.022705,1.059814,1.78626,3.259542,-0.870229,1.061115,3.817412,1270,2224,954,1270,0,64.0,6,damping
1780599133.6370394,20.096606400009478,20318,0.06665,-0.026611,1.061523,2.076336,3.770992,-0.801527,1.063947,4.378812,1273,2229,956,1273,1,64.0,13,damping
1780599133.666565,20.12613190000411,20349,0.020752,-0.018799,1.049805,1.458015,2.770992,-1.053435,1.050178,3.303624,1275,2232,957,1275,0,64.516,7,damping
1780599133.6978996,20.157466600008775,20380,0.052734,-0.045898,1.055908,1.40458,3.160305,-0.709924,1.05822,3.530491,1276,2235,959,1276,1,64.516,16,damping
1780599133.7294765,20.189043599995784,20411,0.040283,-0.025391,1.053467,1.839695,2.381679,-1.160305,1.054542,3.225396,1278,2238,960,1278,0,64.516,7,damping
1780599133.7704709,20.23003790000803,20442,0.043701,-0.00708,1.059082,2.10687,3.335878,-0.862595,1.060007,4.038694,1281,2242,961,1281,0,64.516,6,damping
1780599133.7912557,20.25082280000788,20473,0.036865,-0.006592,1.050781,1.145038,2.80916,-0.969466,1.051448,3.184707,1283,2247,964,1283,1,64.516,14,damping
1780599133.8213134,20.280880500009516,20504,0.050049,-0.026367,1.055664,1.526718,2.664122,-0.908397,1.057179,3.202124,1285,2250,965,1285,0,64.516,7,damping
1780599133.8533754,20.31294240000716,20535,0.040039,-0.029053,1.069092,1.763359,3.641221,-0.725191,1.070236,4.11021,1286,2252,966,1286,0,64.516,7,damping
1780599133.8841043,20.34367139999813,20566,0.048828,-0.029297,1.057861,1.59542,3.076336,-0.900763,1.059393,3.580584,1287,2255,968,1287,1,64.516,16,damping
1780599133.915279,20.374846100006835,20597,0.038574,-0.024414,1.062988,1.625954,3.137405,-0.671756,1.063968,3.596984,1291,2260,969,1291,0,64.516,7,damping
1780599133.9461608,20.405727899997146,20628,0.0354,-0.034912,1.057861,1.473282,3.419847,-0.725191,1.059029,3.793655,1293,2264,971,1293,0,64.516,0,damping
1780599133.975602,20.43516890000319,20659,0.040771,-0.026123,1.043213,1.78626,3.59542,-0.854962,1.044336,4.10472,1294,2267,973,1294,1,64.516,16,damping
1780599134.0073383,20.466905399996904,20689,0.047607,-0.020508,1.054199,1.572519,3.480916,-0.709924,1.055473,3.885046,1296,2270,974,1296,0,64.516,7,damping
1780599134.0372803,20.496847300004447,20720,0.038086,-0.03418,1.048584,2.198473,3.221374,-0.664122,1.049832,3.95621,1297,2272,975,1297,0,64.516,7,damping
1780599134.0690267,20.528593800001545,20751,0.049316,-0.021973,1.063477,1.824428,2.687023,-1.015267,1.064846,3.402851,1298,2275,977,1298,1,64.516,16,damping
1780599134.0992894,20.558856600007857,20782,0.048096,-0.005859,1.060059,1.08397,3.78626,-0.908397,1.061165,4.041774,1300,2278,978,1300,0,64.516,7,damping
1780599134.131495,20.591062100007548,20813,0.040039,-0.02417,1.043457,2.236641,3.366412,-0.625954,1.044505,4.08988,1301,2280,979,1301,0,64.516,6,damping
1780599134.1621032,20.62167030001001,20844,0.046875,-0.015869,1.057861,1.458015,3.862595,-0.740458,1.059018,4.194488,1303,2283,980,1303,1,64.516,15,damping
1780599134.192929,20.652496000009705,20875,0.023682,-0.031006,1.057129,1.198473,3.152672,-0.778626,1.057849,3.461494,1305,2286,981,1305,0,64.516,7,damping
1780599134.2230043,20.682571299999836,20906,0.032471,-0.02417,1.062988,0.954198,3.709924,-0.900763,1.063759,3.93515,1306,2288,982,1306,0,46.763,6,damping
1780599134.2553732,20.714940200006822,20937,0.018311,-0.023682,1.056152,1.473282,2.396947,-0.839695,1.056576,2.936154,1309,2292,983,1309,0,46.763,7,damping
1780599134.2858942,20.745461200000136,20969,0.049805,-0.032471,1.068604,1.725191,3.40458,-0.458015,1.070256,3.844116,1310,2294,984,1310,0,46.763,7,damping
1780599134.3167064,20.776273600000422,20999,0.044678,-0.012695,1.052246,1.549618,3.091603,-0.916031,1.053271,3.57749,1311,2297,986,1311,1,46.763,16,damping
1780599134.3475013,20.80706839999766,21030,0.031494,-0.019287,1.049805,1.381679,2.526718,-0.916031,1.050454,3.021995,1313,2300,987,1313,0,46.763,6,damping
1780599134.378967,20.83853400000953,21061,0.045654,-0.025879,1.061768,1.473282,3.351145,-0.564886,1.063064,3.704029,1314,2302,988,1314,0,46.763,6,damping
1780599134.409626,20.86919310000667,21092,0.045166,-0.035156,1.056641,1.709924,3.564885,-0.801527,1.05819,4.03419,1315,2305,990,1315,1,46.763,16,damping
1780599134.441073,20.900639900006354,21123,0.063232,-0.015869,1.048584,1.801527,2.832061,-0.641221,1.050609,3.417197,1317,2308,991,1317,0,46.763,7,damping
1780599134.4715068,20.931073900006595,21154,0.057129,-0.043457,1.061279,1.572519,3.580153,-0.59542,1.063704,3.955355,1318,2310,992,1318,0,46.763,7,damping
1780599134.5024884,20.962055500000133,21185,0.053467,-0.029541,1.062256,2.038168,3.045802,-0.870229,1.064011,3.76674,1319,2313,994,1319,1,46.595,16,damping
1780599134.5336947,20.993261700001312,21216,0.053223,-0.016357,1.052246,1.641221,3.824427,-0.549618,1.053718,4.197849,1321,2316,995,1321,0,46.595,6,damping
1780599134.564939,21.02450620000309,21247,0.054443,-0.025879,1.055664,1.549618,2.938931,-1.053435,1.057384,3.48545,1322,2318,996,1322,0,46.595,6,damping
1780599134.5961545,21.05572160000156,21278,0.055664,-0.037109,1.06543,2.229008,3.694656,-0.717557,1.067528,4.374226,1324,2321,997,1324,1,46.595,15,damping
1780599134.627083,21.086650099998224,21309,0.026367,-0.035156,1.054932,1.442748,2.854962,-1.183206,1.055847,3.410617,1326,2324,998,1326,0,46.595,7,damping
1780599134.6594048,21.118971800009604,21341,0.053955,-0.027832,1.062744,1.137405,3.656489,-0.954198,1.064477,3.946402,1327,2327,1000,1327,1,46.595,16,damping
1780599134.6914415,21.151008500004536,21373,0.041748,-0.021729,1.054932,1.557252,2.503817,-1.068702,1.055981,3.13628,1331,2332,1001,1331,0,46.595,6,damping
1780599134.7327576,21.19232460000785,21404,0.041992,-0.031982,1.068115,1.610687,2.938931,-0.89313,1.069419,3.46833,1332,2334,1002,1332,0,46.595,6,damping
1780599134.7531748,21.212741900002584,21435,0.043945,-0.033203,1.059082,1.687023,2.89313,-0.923664,1.060513,3.474104,1333,2337,1004,1333,1,56.0,16,damping
1780599134.7836769,21.24324389999674,21466,0.044678,-0.016602,1.054688,1.664122,2.900763,-1.030534,1.055764,3.49939,1335,2340,1005,1335,0,56.0,7,damping
1780599134.8144991,21.274066300000413,21497,0.057129,-0.040771,1.058594,1.832061,2.671756,-0.801527,1.060918,3.33724,1336,2342,1006,1336,0,56.0,7,damping
1780599134.8449557,21.304522699996596,21527,0.025391,-0.019287,1.047607,1.931298,2.885496,-0.969466,1.048092,3.604978,1338,2347,1009,1338,1,56.0,14,damping
1780599134.8752756,21.33484280000266,21558,0.028076,-0.009033,1.052978,0.992366,2.587786,-0.801527,1.053391,2.885112,1340,2350,1010,1340,0,56.0,6,damping
1780599134.9052625,21.364829500002088,21588,0.042969,-0.031738,1.055908,1.618321,3.175573,-0.526718,1.057259,3.602868,1341,2352,1011,1341,0,56.0,6,damping
1780599134.937036,21.39660300000105,21619,0.056152,-0.030518,1.053955,2.015267,2.709924,-0.839695,1.055891,3.479953,1342,2355,1013,1342,1,56.0,16,damping
1780599134.9677656,21.42733259999659,21650,0.057617,-0.028076,1.050293,1.832061,3.076336,-1.076336,1.052247,3.738822,1344,2358,1014,1344,0,56.0,7,damping
1780599134.9991593,21.45872640000016,21681,0.032715,-0.044434,1.053467,1.885496,3.183206,-0.916031,1.054911,3.811432,1346,2362,1016,1346,0,56.0,1,damping
1780599135.0306091,21.490176200008136,21712,0.045166,-0.020752,1.059814,1.679389,3.427481,-0.717557,1.060979,3.883666,1347,2365,1018,1347,1,50.542,16,damping
1780599135.0607903,21.520357300003525,21743,0.048828,-0.017822,1.067383,0.587786,3.625954,-0.832061,1.068648,3.766346,1351,2370,1019,1351,0,50.542,7,damping
1780599135.0923755,21.55194260001008,21774,0.019287,-0.02124,1.060791,1.061069,3.083969,-1.022901,1.061179,3.418049,1352,2372,1020,1352,0,50.542,6,damping
1780599135.1230476,21.582614700004342,21805,0.048096,-0.038086,1.057129,1.900763,3.21374,-0.641221,1.058908,3.788429,1354,2375,1021,1354,1,50.542,15,damping
1780599135.1542318,21.613798899998073,21836,0.016357,-0.013184,1.055908,1.274809,2.78626,-1.007634,1.056117,3.225478,1357,2380,1023,1357,0,50.542,0,damping
1780599135.1844926,21.64405970000371,21867,0.039795,-0.036865,1.061279,1.351145,3.435115,-1.068702,1.062665,3.84288,1358,2382,1024,1358,0,50.542,6,damping
1780599135.2159228,21.67548990000796,21898,0.049561,-0.025146,1.057373,1.412214,2.549618,-0.946565,1.058832,3.064455,1362,2388,1026,1362,0,50.542,7,damping
1780599135.2470224,21.70658939999703,21929,0.040527,-0.015381,1.053955,1.671756,3.160305,-0.80916,1.054846,3.665656,1363,2390,1027,1363,0,50.542,7,damping
1780599135.2782264,21.73779349999677,21960,0.045166,-0.009521,1.046875,2.068702,3.045802,-0.793893,1.047892,3.766524,1364,2393,1029,1364,1,50.542,16,damping
1780599135.3087792,21.768346299999394,21991,0.042969,-0.019531,1.055176,1.923664,2.206107,-1.137405,1.056231,3.140236,1366,2397,1031,1366,1,68.1,3,damping
1780599135.3400435,21.799610600006417,22022,0.056152,-0.029541,1.063477,1.687023,2.694656,-0.732824,1.065368,3.262553,1368,2400,1032,1368,0,68.1,6,damping
1780599135.3703237,21.82989069999894,22053,0.049072,-0.033936,1.054932,1.694656,2.832061,-1.175572,1.056618,3.503484,1370,2405,1035,1370,1,68.1,13,damping
1780599135.4007378,21.860304800007725,22084,0.051514,-0.019775,1.053955,1.854962,3.29771,-0.854962,1.055398,3.879012,1372,2408,1036,1372,0,68.1,7,damping
1780599135.4316945,21.8912616000016,22114,0.043945,-0.028564,1.060547,1.320611,3.053435,-0.908397,1.061841,3.448574,1373,2410,1037,1373,0,68.1,7,damping
1780599135.4619403,21.921507400009432,22145,0.030273,-0.033691,1.047852,1.564886,2.839695,-0.862595,1.04883,3.355116,1374,2413,1039,1374,1,68.1,16,damping
1780599135.4922233,21.951790400009486,22175,0.041992,-0.018555,1.059082,1.946565,2.366412,-1.526718,1.060077,3.423432,1378,2418,1040,1378,0,68.1,7,damping
1780599135.5231957,21.98276280000573,22206,0.042725,-0.009277,1.061768,1.458015,3.022901,-0.549618,1.062667,3.400856,1380,2422,1042,1380,0,68.1,0,damping
1780599135.5546944,22.014261500007706,22237,0.029053,-0.031738,1.05127,2.045802,2.992366,-0.977099,1.05215,3.754236,1381,2425,1044,1381,1,68.1,17,damping
1780599135.5857625,22.04532960000506,22268,0.033936,-0.012451,1.050537,1.534351,3.381679,-0.694656,1.051159,3.777901,1383,2428,1045,1383,0,61.372,6,damping
1780599135.6173313,22.07689830000163,22299,0.041504,-0.040283,1.049561,1.732824,3.19084,-0.763359,1.051153,3.710372,1384,2430,1046,1384,0,61.372,6,damping
1780599135.6476388,22.107205899999826,22330,0.036133,-0.025391,1.056885,2.022901,3.557252,-0.839695,1.057807,4.17747,1386,2435,1049,1386,1,61.372,14,damping
1780599135.6832967,22.142863800007035,22366,0.056885,-0.008789,1.061279,1.374046,2.29771,-0.732824,1.062839,2.775699,1389,2440,1051,1389,0,61.372,0,damping
1780599135.7153554,22.174922400008654,22397,0.041016,-0.022217,1.053711,2.068702,3.022901,-1.061069,1.054743,3.813571,1390,2443,1053,1390,1,61.372,16,damping
1780599135.74722,22.206787100003567,22428,0.041016,-0.016113,1.052978,1.580153,3.007634,-0.923664,1.0539,3.520781,1392,2446,1054,1392,0,61.372,7,damping
1780599135.7766685,22.236235700009274,22459,0.041016,-0.018066,1.05835,1.633588,2.984733,-1.122137,1.059298,3.582797,1393,2448,1055,1393,0,61.372,6,damping
1780599135.8068445,22.266411600008723,22490,0.054443,-0.027344,1.06543,1.618321,3.29771,-0.694656,1.06717,3.738502,1394,2451,1057,1394,1,61.372,17,damping
1780599135.8373287,22.29689579999831,22520,0.036621,-0.028809,1.054199,0.755725,3.534351,-1.022901,1.055228,3.756206,1396,2454,1058,1396,0,51.587,7,damping
1780599135.8688042,22.328371399999014,22551,0.020508,-0.020752,1.048096,1.076336,3.244275,-1.099237,1.048502,3.590562,1397,2456,1059,1397,0,51.587,7,damping
1780599135.899384,22.35895100000198,22582,0.04541,-0.029297,1.052246,2.48855,3.183206,-1.221374,1.053633,4.22107,1398,2459,1061,1398,1,51.587,16,damping
1780599135.930541,22.390108100007637,22613,0.041992,-0.002441,1.061768,1.48855,2.854962,-0.671756,1.0626,3.289049,1400,2462,1062,1400,0,51.587,7,damping
1780599135.9609385,22.420505600006436,22644,0.045898,-0.03125,1.051514,1.519084,3.068702,-0.854962,1.052979,3.529236,1401,2464,1063,1401,0,51.587,7,damping
1780599135.9919612,22.4515284000081,22674,0.038818,-0.017334,1.060303,2.061069,3.305344,-0.969466,1.061155,4.01412,1403,2467,1064,1403,1,51.587,16,damping
1780599136.0235298,22.483096800002386,22706,0.054932,-0.041504,1.059082,1.854962,3.099237,-0.603053,1.061317,3.661943,1405,2470,1065,1405,0,51.587,7,damping
1780599136.0549502,22.514517300005537,22737,0.050049,-0.022949,1.061768,1.320611,3.274809,-0.847328,1.063194,3.631302,1406,2472,1066,1406,0,51.587,6,damping
1780599136.085889,22.54545610000787,22768,0.047119,-0.013184,1.054443,2.053435,2.793893,-0.51145,1.055578,3.504856,1409,2476,1067,1409,0,51.587,7,damping
1780599136.117066,22.57663290000346,22799,0.030762,-0.017334,1.054932,1.19084,3.465649,-0.801527,1.055522,3.751169,1412,2480,1068,1412,0,57.348,7,damping
1780599136.148382,22.60794899999746,22830,0.041748,-0.008545,1.052002,1.946565,2.748092,-1.08397,1.052865,3.537812,1413,2483,1070,1413,1,57.348,16,damping
1780599136.1782992,22.6378662000061,22861,0.029053,-0.014648,1.052246,2.0,2.664122,-1.076336,1.052749,3.500864,1415,2486,1071,1415,0,57.348,7,damping
1780599136.2096438,22.66921100000036,22892,0.035889,-0.017578,1.066894,1.435114,3.251908,-0.519084,1.067643,3.592201,1416,2488,1072,1416,0,57.348,7,damping
1780599136.2405176,22.700084700001753,22923,0.022217,-0.02417,1.049072,2.061069,2.564885,-1.129771,1.049586,3.47894,1417,2491,1074,1417,1,57.348,17,damping
1780599136.2724218,22.731988800005638,22954,0.032227,-0.014404,1.050293,1.450382,2.625954,-1.206107,1.050886,3.233255,1421,2496,1075,1421,0,57.348,6,damping
1780599136.3028026,22.762369700009003,22985,0.021729,-0.00708,1.06665,1.641221,2.885496,-0.916031,1.066895,3.443662,1422,2498,1076,1422,0,57.348,6,damping
1780599136.3344066,22.79397379999864,23016,0.043945,-0.023193,1.054443,1.648855,2.549618,-1.0,1.055614,3.19676,1423,2501,1078,1423,1,57.348,16,damping
1780599136.3650105,22.8245775999967,23047,0.043213,-0.006348,1.056396,2.022901,3.122137,-1.099237,1.057299,3.8792,1425,2504,1079,1425,0,57.348,7,damping
1780599136.3962986,22.855865699995775,23078,0.039307,-0.033936,1.062012,1.450382,2.946565,-0.946565,1.063281,3.41787,1426,2506,1080,1426,0,50.179,7,damping
1780599136.4274864,22.887053400001605,23109,0.056641,-0.02124,1.056396,1.977099,3.564885,-0.984733,1.058127,4.193689,1429,2511,1082,1429,1,50.179,14,damping
1780599136.4587142,22.91828140000871,23140,0.06958,-0.017578,1.063965,1.175572,3.290076,-0.625954,1.066382,3.549421,1432,2516,1084,1432,0,50.179,0,damping
1780599136.488769,22.948336200002814,23171,0.043701,-0.021729,1.061035,1.862595,3.503817,-0.70229,1.062157,4.02979,1433,2518,1085,1433,0,50.179,6,damping
1780599136.5205257,22.98009280000406,23202,0.065918,-0.022217,1.061035,2.145038,3.328244,-0.832061,1.063313,4.046075,1435,2521,1086,1435,1,50.179,15,damping
1780599136.550782,23.01034900000377,23233,0.030273,-0.020508,1.052246,1.320611,3.366412,-0.89313,1.052881,3.724839,1437,2524,1087,1437,0,50.179,7,damping
1780599136.5822878,23.0418548000016,23264,0.02832,-0.017578,1.058106,1.137405,3.526718,-1.221374,1.05863,3.90169,1439,2528,1089,1439,0,50.179,1,damping
1780599136.6129475,23.07251460000407,23295,0.046143,-0.027832,1.054443,1.549618,2.969466,-0.938931,1.055819,3.478597,1442,2532,1090,1442,0,50.179,7,damping
1780599136.643683,23.103250000000116,23326,0.041504,-0.010254,1.056396,1.778626,3.427481,-0.740458,1.057261,3.931846,1445,2536,1091,1445,0,50.179,6,damping
1780599136.6752946,23.134861700003967,23357,0.033447,-0.010498,1.056885,2.015267,2.946565,-1.305344,1.057466,3.800983,1446,2539,1093,1446,1,71.685,17,damping
1780599136.7052186,23.164785600005416,23388,0.027832,-0.020264,1.050293,1.793893,2.778626,-1.290076,1.050857,3.550086,1448,2542,1094,1448,0,71.685,7,damping
1780599136.737722,23.197288900002604,23419,0.026367,-0.02832,1.070557,1.732824,3.282443,-0.709924,1.071256,3.779035,1450,2546,1096,1450,0,71.685,1,damping
1780599136.7686687,23.228235700007644,23450,0.018555,-0.027344,1.04248,1.442748,2.908397,-1.015267,1.043004,3.401626,1451,2549,1098,1451,1,71.685,16,damping
1780599136.811962,23.27152890000434,23481,0.044678,-0.016846,1.058106,1.770992,2.633588,-1.198473,1.059182,3.392424,1455,2554,1099,1455,0,71.685,7,damping
1780599136.829133,23.288700200006133,23512,0.042236,-0.011963,1.057129,1.885496,2.51145,-1.29771,1.05804,3.398019,1456,2556,1100,1456,0,71.685,7,damping
1780599136.859545,23.319111999997403,23542,0.036621,-0.026123,1.050049,2.137405,2.839695,-1.259542,1.051012,3.770784,1457,2559,1102,1457,1,71.685,16,damping
1780599136.891409,23.350976000001538,23573,0.040527,-0.017334,1.053955,1.770992,3.122137,-0.824427,1.054876,3.682911,1460,2564,1104,1460,0,71.685,0,damping
1780599136.9225945,23.38216160000593,23604,0.027832,-0.028564,1.054199,1.40458,3.328244,-0.931298,1.054953,3.730599,1461,2566,1105,1461,0,71.685,7,damping
1780599136.9539056,23.413472700005514,23635,0.036621,-0.017334,1.058106,2.091603,3.045802,-0.931298,1.058881,3.810384,1463,2571,1108,1463,1,61.151,13,damping
1780599136.9832733,23.44284040000639,23666,0.033936,-0.006348,1.051758,1.847328,3.419847,-0.458015,1.052324,3.91379,1465,2574,1109,1465,0,61.151,7,damping
1780599137.0151622,23.474729299996397,23697,0.042969,-0.031982,1.052002,1.641221,2.992366,-0.748092,1.053365,3.493924,1466,2576,1110,1466,0,61.151,7,damping
1780599137.0457497,23.50531670000055,23728,0.057373,-0.039307,1.055908,2.526718,3.648855,-0.763359,1.058196,4.503461,1468,2579,1111,1468,1,61.151,16,damping
1780599137.0766106,23.5361777000071,23759,0.019287,-0.009766,1.051514,1.679389,3.458015,-0.801527,1.051736,3.926916,1472,2584,1112,1472,0,61.151,6,damping
1780599137.1084614,23.568028399997274,23790,0.045898,-0.026123,1.06543,1.381679,2.916031,-0.854962,1.066738,3.338148,1474,2588,1114,1474,0,61.151,1,damping
1780599137.1402292,23.59979629999725,23821,0.023682,-0.019287,1.049561,1.458015,3.450382,-0.549618,1.050005,3.785898,1477,2592,1115,1477,0,61.151,7,damping
1780599137.1710055,23.63057249999838,23852,0.04834,-0.02417,1.058838,1.251908,3.458015,-0.641221,1.060216,3.733137,1478,2594,1116,1478,0,61.151,7,damping
1780599137.2021759,23.661743000004208,23883,0.052734,-0.013916,1.047363,2.091603,3.137405,-0.916031,1.048782,3.880364,1479,2597,1118,1479,1,61.151,16,damping
1780599137.2332528,23.69281989999581,23914,0.045654,-0.025879,1.061279,1.526718,2.977099,-1.19084,1.062576,3.55135,1483,2602,1119,1483,0,71.685,6,damping
1780599137.2629552,23.72252219999791,23945,0.050049,-0.018555,1.068604,1.015267,3.022901,-0.709924,1.069936,3.266908,1485,2606,1121,1485,0,71.685,0,damping
1780599137.2939262,23.75349329999881,23976,0.045898,-0.032959,1.057861,1.427481,2.374046,-1.198473,1.059369,3.0183,1486,2609,1123,1486,1,71.685,16,damping
1780599137.3248432,23.784410300009768,24007,0.039062,-0.014404,1.062744,1.832061,3.038168,-0.671756,1.063559,3.61084,1488,2612,1124,1488,0,71.685,7,damping
1780599137.3556547,23.815221900003962,24038,0.029297,-0.010498,1.063965,1.70229,2.679389,-1.122137,1.06442,3.366914,1489,2614,1125,1489,0,71.685,7,damping
1780599137.3868036,23.84637080000539,24068,0.04126,-0.035645,1.051758,1.847328,2.763359,-1.007634,1.05317,3.473341,1490,2617,1127,1490,1,71.685,17,damping
1780599137.4172754,23.87684260000242,24099,0.042725,-0.026367,1.045898,1.557252,2.732824,-1.068702,1.047103,3.32197,1493,2621,1128,1493,0,71.685,3,damping
1780599137.448886,23.90845299999637,24130,0.049805,-0.038818,1.05249,1.625954,2.526718,-1.221374,1.054383,3.243422,1494,2623,1129,1494,0,71.685,6,damping
1780599137.4800782,23.939645400008885,24161,0.047363,-0.030029,1.053467,1.847328,3.442748,-1.022901,1.054958,4.038745,1495,2626,1131,1495,1,71.685,16,damping
1780599137.511163,23.970730000000913,24192,0.05835,-0.010742,1.065186,1.389313,3.129771,-1.076336,1.066837,3.589451,1497,2629,1132,1497,0,50.36,7,damping
1780599137.5407715,24.000338500001817,24223,0.05249,-0.029053,1.062988,1.251908,2.580153,-1.091603,1.06468,3.06856,1498,2631,1133,1498,0,50.36,7,damping
1780599137.5727537,24.032320700003766,24253,0.038574,-0.013428,1.052246,2.015267,3.366412,-0.862595,1.053038,4.017226,1499,2634,1135,1499,1,50.36,16,damping
1780599137.601758,24.061325000002398,24284,0.051758,-0.012207,1.058838,1.160305,3.29771,-1.08397,1.060172,3.660081,1501,2637,1136,1501,0,50.36,6,damping
1780599137.63243,24.09199709999666,24314,0.062256,-0.042969,1.054443,1.946565,3.022901,-1.053435,1.057153,3.746568,1502,2639,1137,1502,0,50.36,6,damping
1780599137.6634476,24.123014700002386,24345,0.059814,-0.037354,1.058106,1.862595,3.564885,-0.641221,1.060453,4.07294,1504,2642,1138,1504,1,50.36,15,damping
1780599137.6950858,24.154652900004294,24376,0.047852,-0.038818,1.056152,1.206107,3.167939,-0.946565,1.057948,3.519448,1506,2645,1139,1506,0,50.36,7,damping
1780599137.7257893,24.18535640000482,24407,0.033447,-0.017578,1.059814,1.793893,3.343511,-1.175572,1.060488,3.97229,1507,2647,1140,1507,0,50.36,7,damping
1780599137.7570305,24.21659759999602,24438,0.048096,-0.016602,1.064453,2.053435,3.259542,-0.427481,1.065668,3.876074,1510,2651,1141,1510,0,50.36,7,damping
1780599137.7881417,24.24770890000218,24469,0.02832,-0.026123,1.057373,1.59542,3.160305,-0.885496,1.058075,3.649246,1511,2653,1142,1511,0,50.542,6,damping
1780599137.8191988,24.278765800001565,24500,0.057617,-0.012207,1.05542,1.351145,3.458015,-0.572519,1.057062,3.756493,1512,2656,1144,1512,1,50.542,16,damping
1780599137.8513122,24.310879199998453,24532,0.0354,-0.021484,1.051758,1.473282,2.961832,-1.022901,1.052573,3.462562,1514,2659,1145,1514,0,50.542,7,damping
1780599137.881646,24.341213000006974,24563,0.048828,-0.020264,1.05835,1.549618,3.19084,-1.045802,1.059669,3.698172,1515,2661,1146,1515,0,50.542,7,damping
1780599137.9135451,24.37311220000265,24594,0.036377,-0.027832,1.046875,1.763359,2.732824,-1.045802,1.047876,3.416352,1516,2664,1148,1516,1,50.542,16,damping
1780599137.9429302,24.40249720000429,24625,0.032471,-0.010986,1.056885,1.625954,2.977099,-0.870229,1.05744,3.50202,1518,2667,1149,1518,0,50.542,6,damping
