host_epoch_s,host_elapsed_s,time_ms,ax,ay,az,gx,gy,gz,acc_mag,gyro_mag,pulse_count,edge_count,rise_count,fall_count,state,pulse_rate_hz,last_edge_dt_ms,label
1780597612.8508058,0.013267899994389154,250,0.038574,-0.025146,1.047852,0.610687,2.29771,-0.70229,1.048863,2.479036,25,42,17,25,0,100.0,1,normal
1780597612.8819044,0.04436669999267906,280,0.04126,-0.05127,1.046631,1.419847,2.496183,-1.183206,1.048698,3.105942,26,44,18,26,0,100.0,5,normal
1780597612.912151,0.07461330000660382,311,0.057373,0.00708,1.050049,2.847328,3.862595,-0.496183,1.051639,4.824222,30,50,20,30,0,100.0,5,normal
1780597612.9434,0.10586209999746643,342,0.042969,-0.017822,1.039551,0.694656,3.40458,-0.984733,1.040591,3.611566,33,54,21,33,0,100.0,6,normal
1780597612.9740968,0.1365590999921551,372,0.039551,-0.037598,1.057373,1.78626,2.610687,-0.793893,1.05878,3.261392,35,58,23,35,0,100.0,1,normal
1780597613.0048063,0.167268499993952,403,0.033691,-0.048828,1.051514,1.618321,2.80916,-0.824427,1.053186,3.345149,40,64,24,40,0,100.0,5,normal
1780597613.0351107,0.1975728999968851,434,0.027832,-0.001221,1.067871,1.167939,2.938931,-1.076336,1.068234,3.340643,44,70,26,44,0,100.0,0,normal
1780597613.0665004,0.22896269999910146,465,0.028809,-0.033936,1.036377,2.48855,2.19084,-1.114504,1.037332,3.497825,46,75,29,46,1,100.0,13,normal
1780597613.097821,0.2602831999975024,496,0.035889,0.016357,1.050781,1.557252,2.305344,-0.717557,1.051521,2.87307,51,82,31,51,0,100.0,1,normal
1780597613.127799,0.2902613000042038,526,0.028809,-0.021729,1.063965,0.89313,2.877863,-1.236641,1.064576,3.257155,53,86,33,53,0,101.449,0,normal
1780597613.1603942,0.3228564000019105,557,0.048096,-0.027344,1.047363,2.549618,2.465649,-0.954198,1.048824,3.672938,55,91,36,55,1,101.449,14,normal
1780597613.1898677,0.35232999999425374,588,0.044922,-0.005859,1.044678,0.633588,2.458015,-1.221374,1.04566,2.816918,60,98,38,60,0,101.449,0,normal
1780597613.22042,0.3828821999923093,618,0.021973,-0.043945,1.058838,1.343511,2.145038,-0.854962,1.059977,2.671549,62,102,40,62,0,101.449,1,normal
1780597613.2499256,0.4123877999954857,649,0.060059,0.007324,1.059082,3.152672,3.465649,-0.381679,1.060809,4.70061,66,108,42,66,0,101.449,5,normal
1780597613.2815669,0.4440290000056848,680,0.051025,-0.029053,1.050293,0.343511,3.267176,-0.770992,1.051933,3.374443,70,114,44,70,0,101.449,0,normal
1780597613.3124588,0.47492110000166576,711,0.051514,-0.039062,1.054688,2.40458,3.412214,-0.671756,1.056667,4.228057,72,119,47,72,1,101.449,14,normal
1780597613.3439052,0.506367499998305,742,0.038574,-0.04541,1.051025,1.21374,2.282443,-0.992366,1.052713,2.769026,76,125,49,76,1,101.449,3,normal
1780597613.3751304,0.537592599997879,773,0.047607,-0.010498,1.070557,1.244275,2.969466,-0.832061,1.071666,3.325398,79,130,51,79,0,101.449,1,normal
1780597613.406588,0.5690501999924891,804,0.043945,-0.053223,1.048828,2.114504,2.526718,-1.030534,1.051097,3.452163,81,135,54,81,1,100.719,14,normal
1780597613.4359894,0.5984516000025906,835,0.048096,-0.001221,1.0625,1.549618,2.396947,-0.687023,1.063589,2.935757,86,142,56,86,0,100.719,0,normal
1780597613.4671926,0.6296547999954782,865,0.035645,-0.05127,1.059082,1.175572,2.656489,-1.007634,1.060921,3.074773,88,146,58,88,0,100.719,1,normal
1780597613.4985223,0.6609845000057248,896,0.061523,-0.014893,1.055176,2.450382,3.221374,-0.496183,1.057073,4.077722,91,151,60,91,1,100.719,14,normal
1780597613.5291383,0.69160049999482,927,0.047363,-0.023438,1.053955,0.656489,2.480916,-0.938931,1.055279,2.732675,96,158,62,96,0,100.719,0,normal
1780597613.5604415,0.7229036999924574,958,0.04834,-0.018311,1.063477,1.763359,2.679389,-1.076336,1.064732,3.38335,98,162,64,98,0,100.719,0,normal
1780597613.5912204,0.7536825999995926,989,0.025391,-0.045898,1.050049,1.80916,3.015267,-0.900763,1.051358,3.629913,103,168,65,103,0,100.719,6,normal
1780597613.621985,0.7844473000004655,1020,0.035156,0.006104,1.064209,1.007634,3.19084,-0.969466,1.064807,3.483769,107,174,67,107,0,100.719,1,normal
1780597613.6535227,0.815984999993816,1051,0.018555,-0.03418,1.044678,2.534351,1.923664,-0.656489,1.045401,3.248753,109,179,70,109,1,100.719,14,normal
1780597613.6844506,0.8469127999996999,1082,0.047607,-0.003418,1.053955,1.450382,2.068702,-0.656489,1.055035,2.610386,114,186,72,114,0,118.705,1,normal
1780597613.7156427,0.8781048999953782,1113,0.021973,-0.04248,1.056885,1.366412,2.541985,-0.80916,1.057966,2.99725,116,190,74,116,0,118.705,1,normal
1780597613.7455354,0.9079975000058766,1144,0.058105,-0.014404,1.049805,2.603053,2.70229,-0.816794,1.05151,3.839975,119,195,76,119,1,118.705,14,normal
1780597613.7766263,0.9390887000045041,1175,0.063965,-0.041992,1.043701,0.618321,2.572519,-1.152672,1.046502,2.88597,122,200,78,122,0,118.705,1,normal
1780597613.8082373,0.9706995000015013,1206,0.0354,-0.040771,1.039307,1.633588,2.648855,-0.694656,1.040708,3.188666,124,204,80,124,0,118.705,0,normal
1780597613.8392327,1.0016949999990175,1237,0.030762,-0.035645,1.055664,2.21374,2.687023,-0.671756,1.056713,3.545701,129,210,81,129,0,118.705,6,normal
1780597613.8698292,1.032291499999701,1268,0.051025,0.007324,1.064697,1.007634,3.717557,-0.572519,1.065944,3.894013,133,216,83,133,0,118.705,1,normal
1780597613.901482,1.0639442999963649,1299,0.029053,-0.033447,1.051025,1.992366,2.450382,-0.664122,1.051959,3.22722,135,221,86,135,1,118.705,14,normal
1780597613.9331632,1.095625400004792,1331,0.038574,0.000977,1.041992,1.442748,2.351145,-1.137405,1.042706,2.983806,139,226,87,139,0,118.705,6,normal
1780597613.964258,1.1267203000024892,1362,0.044922,-0.05249,1.048096,1.625954,2.206107,-0.427481,1.05037,2.773693,141,230,89,141,0,96.429,1,normal
1780597613.9933617,1.1558239000005415,1393,0.049805,0.004639,1.056885,3.40458,3.29771,-0.89313,1.058068,4.82325,145,236,91,145,0,96.429,6,normal
1780597614.0238113,1.1862735000031535,1422,0.019775,0.010742,1.055176,1.419847,2.526718,-0.748092,1.055416,2.993311,147,240,93,147,0,96.429,1,normal
1780597614.053441,1.2159033000061754,1453,0.03125,-0.019043,1.058106,1.870229,2.938931,-1.160305,1.058738,3.6717,149,244,95,149,0,96.429,0,normal
1780597614.0902448,1.2527069000061601,1483,0.036377,0.010254,1.04541,2.977099,3.068702,-0.923664,1.046093,4.374152,153,250,97,153,0,96.429,6,normal
1780597614.1167107,1.2791730000026291,1514,0.023682,-0.01123,1.043701,0.251908,2.80916,-0.839695,1.04403,2.942775,156,254,98,156,0,96.429,5,normal
1780597614.1468616,1.3093238000001293,1545,0.03125,-0.036377,1.049072,2.412214,3.251908,-0.793893,1.050168,4.126009,158,259,101,158,1,96.429,14,normal
1780597614.1793733,1.341835600003833,1576,0.054688,-0.055176,1.051758,1.267176,2.465649,-0.732824,1.054623,2.867436,163,266,103,163,0,96.429,0,normal
1780597614.2101033,1.372565500001656,1608,0.031982,-0.018066,1.054932,1.114504,3.061069,-0.954198,1.055571,3.394518,165,270,105,165,0,96.429,0,normal
1780597614.2418633,1.4043253999989247,1639,0.037598,-0.063965,1.036621,2.824427,2.648855,-0.755725,1.039273,3.945243,167,275,108,167,1,93.863,14,normal
1780597614.2718813,1.434343600005377,1670,0.031982,-0.000732,1.044922,1.08397,2.236641,-0.900763,1.045412,2.643658,172,282,110,172,0,93.863,0,normal
1780597614.3037658,1.4662280000047758,1701,0.022705,-0.036865,1.04834,1.664122,2.312977,-1.015267,1.049234,3.024886,174,286,112,174,0,93.863,0,normal
1780597614.3323488,1.4948109999968437,1732,0.050781,-0.00415,1.056396,2.59542,2.870229,-0.351145,1.057624,3.885579,178,292,114,178,0,93.863,6,normal
1780597614.3637934,1.5262556999950903,1762,0.025391,-0.016602,1.04541,0.19084,2.969466,-1.022901,1.04585,3.146502,182,298,116,182,0,93.863,1,normal
1780597614.3951051,1.5575672999984818,1793,0.039795,-0.036621,1.055664,2.526718,2.916031,-0.70229,1.057048,3.92183,184,303,119,184,1,93.863,14,normal
1780597614.4274335,1.5898958000034327,1825,0.036133,-0.013916,1.057373,1.78626,1.770992,-0.59542,1.058082,2.584891,190,310,120,190,0,93.863,1,normal
1780597614.459029,1.621491199999582,1857,0.026123,-0.057129,1.043457,1.015267,2.114504,-0.610687,1.045346,2.423806,192,314,122,192,0,93.863,0,normal
1780597614.4901857,1.6526479000021936,1888,0.047852,-0.02124,1.058838,2.59542,3.671756,-0.740458,1.060131,4.557002,195,319,124,195,1,93.863,14,normal
1780597614.5209067,1.6833689000050072,1919,0.032715,-0.009277,1.04126,0.793893,2.389313,-0.954198,1.041815,2.692504,200,326,126,200,0,117.857,0,normal
1780597614.5521498,1.7146120999968844,1949,0.02124,-0.02417,1.049072,1.908397,2.412214,-1.076336,1.049566,3.25872,202,330,128,202,0,117.857,0,normal
1780597614.5823078,1.744770100005553,1980,0.044434,0.010498,1.052002,2.633588,3.961832,-0.458015,1.052992,4.779297,206,336,130,206,0,117.857,6,normal
1780597614.6145842,1.7770464999921387,2011,0.036133,-0.019043,1.053711,0.717557,3.641221,-1.244275,1.054502,3.914282,210,342,132,210,0,117.857,1,normal
1780597614.6447754,1.8072376000054646,2042,0.068115,-0.021484,1.060059,2.251908,2.534351,-0.351145,1.062462,3.40842,212,347,135,212,1,117.857,14,normal
1780597614.6770747,1.8395368000055896,2074,0.018311,0.015381,1.043457,1.465649,2.083969,-0.526718,1.043731,2.601631,217,354,137,217,0,117.857,1,normal
1780597614.7078946,1.870356700004777,2106,0.033203,-0.056641,1.04834,1.068702,2.648855,-0.877863,1.050394,2.988177,219,358,139,219,0,117.857,1,normal
1780597614.739008,1.9014701999985846,2137,0.049805,0.006104,1.052734,3.015267,3.534351,-0.503817,1.053929,4.67304,223,364,141,223,0,117.857,6,normal
1780597614.7703269,1.9327890999993542,2168,0.050049,-0.024902,1.059814,0.549618,2.648855,-0.946565,1.061288,2.866094,227,370,143,227,0,117.857,1,normal
1780597614.801838,1.964300199993886,2199,0.046631,-0.044922,1.069336,2.458015,2.435115,-0.725191,1.071294,3.535184,229,375,146,229,1,103.571,14,normal
1780597614.8332512,1.9957133999996586,2231,0.02417,-0.036865,1.04248,1.625954,2.312977,-0.908397,1.043412,2.969642,232,380,148,232,0,103.571,0,normal
1780597614.8655958,2.028058099996997,2263,0.030762,-0.056396,1.053955,1.282443,2.007634,-0.793893,1.055911,2.511079,234,384,150,234,0,103.571,1,normal
1780597614.8981574,2.06061950000003,2295,0.051758,0.007813,1.05542,3.343511,2.847328,-0.687023,1.056717,4.445036,238,390,152,238,0,103.571,5,normal
1780597614.92829,2.0907521000044653,2326,0.047119,-0.03418,1.056641,0.206107,2.923664,-0.839695,1.058243,3.048832,242,396,154,242,0,103.571,0,normal
1780597614.959572,2.1220343000022694,2357,0.030518,-0.05249,1.048096,2.236641,2.961832,-0.19084,1.049853,3.716374,244,401,157,244,1,103.571,14,normal
1780597614.9899251,2.152387299996917,2388,0.037354,-0.045166,1.058594,1.526718,2.40458,-1.206107,1.060215,3.093148,248,406,158,248,0,103.571,6,normal
1780597615.0210762,2.1835384000005433,2419,0.048828,-0.022461,1.071045,1.480916,3.167939,-0.877863,1.072393,3.605495,250,410,160,250,0,103.571,1,normal
1780597615.0517864,2.21424859999388,2450,0.024414,-0.042725,1.052978,1.78626,2.19084,-0.900763,1.054128,2.966796,252,415,163,252,1,91.633,14,normal
1780597615.0826619,2.245124199995189,2481,0.044189,0.004639,1.062012,1.534351,2.244275,-0.641221,1.062941,2.793236,255,420,165,255,0,91.633,0,normal
1780597615.1124315,2.2748938000004273,2511,0.048584,-0.065674,1.05542,1.137405,2.465649,-0.709924,1.058577,2.806618,257,424,167,257,0,91.633,1,normal
1780597615.1453402,2.3078023999987636,2542,0.057617,-0.025391,1.043457,2.709924,3.183206,-0.816794,1.045355,4.259536,260,429,169,260,1,91.633,14,normal
1780597615.1746895,2.3371517000050517,2573,0.044189,-0.017578,1.051514,0.435114,2.664122,-0.954198,1.052588,2.863104,265,436,171,265,0,91.633,1,normal
1780597615.2062802,2.3687423999945167,2604,0.016602,-0.028076,1.050049,1.763359,2.374046,-0.862595,1.050555,3.080519,267,440,173,267,0,91.633,0,normal
1780597615.2376099,2.4000721000047633,2635,0.032959,-0.0354,1.056152,2.045802,3.465649,-0.717557,1.057259,4.087899,272,446,174,272,0,91.633,6,normal
1780597615.2675562,2.430018500002916,2666,0.033447,0.02002,1.059082,1.29771,3.328244,-0.541985,1.059799,3.613172,276,452,176,276,0,91.633,1,normal
1780597615.2978563,2.460318500001449,2696,0.055908,-0.043945,1.05542,2.40458,2.473282,-0.549618,1.057813,3.493023,278,457,179,278,1,91.633,14,normal
1780597615.3288875,2.4913497999950778,2727,0.020996,-0.008545,1.049805,1.519084,2.076336,-0.679389,1.050049,2.660894,283,464,181,283,0,111.913,1,normal
1780597615.3595815,2.5220436999952653,2757,0.059814,-0.018066,1.073975,1.030534,2.977099,-1.038168,1.075791,3.317064,285,468,183,285,0,111.913,0,normal
1780597615.3901536,2.552616000000853,2788,0.028076,-0.032959,1.052002,2.061069,1.679389,-0.748092,1.052892,2.761882,287,473,186,287,1,111.913,13,normal
1780597615.4212031,2.583665400001337,2819,0.031006,0.010254,1.053955,1.59542,2.175573,-0.664122,1.054461,2.778406,292,480,188,292,0,111.913,1,normal
1780597615.4521348,2.6145969999925,2850,0.024902,-0.039551,1.049072,1.282443,2.175573,-1.022901,1.050113,2.72472,294,484,190,294,0,111.913,0,normal
1780597615.4825165,2.644978700001957,2881,0.040283,-0.009033,1.037354,2.954198,3.229008,-0.442748,1.038175,4.398842,297,489,192,297,1,111.913,14,normal
1780597615.5147612,2.6772233999945456,2912,0.037109,-0.022217,1.050049,0.480916,2.931298,-1.343511,1.050939,3.260186,302,496,194,302,0,111.913,0,normal
1780597615.545608,2.708070199994836,2943,0.022217,-0.010498,1.045898,1.977099,2.587786,-0.938931,1.046187,3.38927,304,500,196,304,0,111.913,1,normal
1780597615.5767217,2.7391839000047185,2974,0.065918,-0.051758,1.054199,1.603053,2.564885,-0.832061,1.057525,3.136996,309,506,197,309,0,111.913,5,normal
1780597615.6103377,2.7728000000061,3005,0.074707,-0.009766,1.078369,0.916031,3.145038,-1.175572,1.080998,3.48028,313,512,199,313,0,107.914,0,normal
1780597615.6385415,2.801003700005822,3035,0.055176,-0.02832,1.051758,2.160305,3.030534,-0.358779,1.053585,3.738954,315,517,202,315,1,107.914,14,normal
1780597615.6686552,2.831117499998072,3066,0.020752,-0.027832,1.045898,1.70229,2.48855,-0.984733,1.046474,3.171809,320,524,204,320,0,107.914,0,normal
1780597615.6993864,2.8618486000050325,3097,0.05542,-0.05249,1.054688,0.824427,3.251908,-0.89313,1.057446,3.471638,321,526,205,321,0,107.914,5,normal
1780597615.7308505,2.8933126000047196,3128,0.076416,-0.049316,1.054443,2.664122,2.78626,-1.19084,1.058358,4.03471,324,531,207,324,1,107.914,14,normal
1780597615.7617846,2.924246700000367,3159,0.048584,0.004639,1.05127,0.473282,2.358779,-0.89313,1.052402,2.566226,329,538,209,329,0,107.914,0,normal
1780597615.793036,2.955498199997237,3190,0.021484,-0.021973,1.057373,1.862595,2.374046,-0.977099,1.05782,3.171763,331,542,211,331,0,107.914,1,normal
1780597615.8237832,2.986245299995062,3221,0.037598,-0.023193,1.059814,2.099237,3.21374,-0.580153,1.060735,3.882203,335,548,213,335,0,107.914,6,normal
1780597615.8545244,3.016986500006169,3253,0.064941,-0.003174,1.064209,0.740458,4.007634,-0.793893,1.066193,4.152068,339,554,215,339,0,107.914,0,normal
1780597615.8866358,3.0490980000031414,3284,0.032959,-0.043213,1.040772,2.328244,1.770992,-0.89313,1.04219,3.058564,340,557,217,340,1,96.774,17,normal
1780597615.9164464,3.078908700001193,3315,0.048828,-0.007568,1.054932,1.564886,1.839695,-0.709924,1.056088,2.517406,345,564,219,345,0,96.774,0,normal
1780597615.9492836,3.111745799993514,3346,0.04126,-0.052734,1.05249,1.351145,1.954198,-0.992366,1.054618,2.574738,346,566,220,346,0,96.774,5,normal
1780597615.9806821,3.1431444000045303,3377,0.047363,-0.019775,1.052002,2.679389,3.412214,-0.778626,1.053253,4.407788,349,571,222,349,1,96.774,14,normal
1780597616.0097325,3.172194800004945,3408,0.03125,-0.01416,1.047363,0.610687,2.549618,-1.061069,1.047925,2.828314,354,578,224,354,0,96.774,0,normal
1780597616.0417712,3.204233500000555,3439,0.024658,-0.039062,1.04834,1.648855,2.832061,-1.412214,1.049357,3.568422,356,582,226,356,0,96.774,1,normal
1780597616.072674,3.2351363000052515,3470,0.036377,-0.040527,1.060791,2.244275,3.015267,-0.610687,1.062188,3.808089,361,588,227,361,0,96.774,6,normal
1780597616.1041727,3.266634999992675,3501,0.040039,0.016113,1.073975,1.10687,3.519084,-0.816794,1.074842,3.778395,365,594,229,365,0,96.774,1,normal
1780597616.1344774,3.296939599997131,3532,0.042969,-0.036133,1.045166,2.022901,2.938931,-0.816794,1.046673,3.660136,367,599,232,367,1,96.774,14,normal
1780597616.165014,3.3274762999935774,3563,0.057373,0.003906,1.062988,1.549618,2.137405,-0.740458,1.064543,2.741914,373,606,233,373,0,118.28,1,normal
1780597616.1961992,3.358661399994162,3594,0.037598,-0.04541,1.0625,0.992366,2.145038,-0.916031,1.064134,2.534776,375,610,235,375,0,118.28,1,normal
1780597616.2263093,3.3887716000026558,3624,0.063721,-0.038818,1.047119,2.816794,2.503817,-0.694656,1.049774,3.832228,377,615,238,377,1,118.28,14,normal
1780597616.2557847,3.4182468999933917,3655,0.054688,-0.008545,1.050293,0.931298,2.587786,-1.091603,1.05175,2.958978,382,622,240,382,0,118.28,1,normal
1780597616.2874212,3.449883499997668,3686,0.05127,-0.041992,1.047607,2.0,2.022901,-0.717557,1.049701,2.933772,384,626,242,384,0,118.28,0,normal
1780597616.3196125,3.4820748000056483,3716,0.050293,-0.016113,1.053467,3.366412,3.549618,-0.625954,1.05479,4.931971,388,632,244,388,0,118.28,6,normal
1780597616.348761,3.5112233999971068,3747,0.052246,-0.022949,1.047363,0.519084,2.908397,-1.030534,1.048917,3.128933,392,638,246,392,0,118.28,1,normal
1780597616.379472,3.541934199995012,3778,0.054688,-0.036133,1.061768,2.29771,2.564885,-0.519084,1.063789,3.482464,394,642,248,394,0,118.28,0,normal
1780597616.410924,3.5733862000051886,3808,0.042725,-0.031738,1.055664,2.259542,3.51145,-0.725191,1.057005,4.238126,397,648,251,397,0,118.28,5,normal
1780597616.4410977,3.6035599000024376,3839,0.042969,0.005859,1.056396,0.862595,3.89313,-0.59542,1.057286,4.031756,401,654,253,401,0,101.449,0,normal
1780597616.472491,3.634953200002201,3870,0.042236,-0.028809,1.05542,2.648855,2.206107,-0.145038,1.056657,3.450272,403,659,256,403,1,101.449,13,normal
1780597616.5029778,3.665440099997795,3901,0.038574,0.006836,1.055908,1.435114,1.885496,-0.847328,1.056635,2.516468,408,666,258,408,0,101.449,1,normal
1780597616.534826,3.6972882999980357,3932,0.047119,-0.040527,1.058594,0.824427,2.045802,-1.244275,1.060417,2.532431,410,670,260,410,0,101.449,0,normal
1780597616.5651724,3.727634599999874,3963,0.064453,-0.057129,1.047607,2.694656,3.038168,-0.564886,1.051142,4.10009,413,675,262,413,1,101.449,14,normal
1780597616.5961065,3.758568799996283,3994,0.042236,-0.02417,1.040039,0.442748,2.824427,-1.114504,1.041177,3.068474,416,680,264,416,0,101.449,0,normal
1780597616.627025,3.7894871000025887,4025,0.03418,-0.021729,1.049805,1.923664,2.160305,-0.763359,1.050586,2.991675,418,684,266,418,0,101.449,1,normal
1780597616.6583445,3.8208066999941366,4056,0.034912,-0.002686,1.057861,2.091603,3.396947,-0.687023,1.058441,4.047968,421,688,267,421,0,101.449,5,normal
1780597616.6894498,3.851911999998265,4087,0.031738,-0.024658,1.047119,0.969466,3.679389,-0.633588,1.04789,3.857357,425,694,269,425,0,101.449,0,normal
1780597616.7214532,3.883915500002331,4118,0.036377,-0.039795,1.046387,2.244275,2.648855,-0.290076,1.047775,3.48387,427,699,272,427,1,93.19,14,normal
1780597616.751721,3.9141831000015372,4149,0.020508,-0.018311,1.045654,1.450382,2.587786,-0.580153,1.046016,3.022718,432,706,274,432,0,93.19,0,normal
1780597616.7819674,3.9444296000001486,4180,0.032959,-0.020996,1.054932,0.641221,3.0,-0.526718,1.055655,3.112651,434,710,276,434,0,93.19,1,normal
1780597616.8125923,3.9750543999980437,4210,0.030273,-0.066162,1.046875,1.832061,2.419847,-0.984733,1.0494,3.190894,436,715,279,436,1,93.19,14,normal
1780597616.8424568,4.0049190999998245,4241,0.032959,0.005127,1.052978,1.480916,2.236641,-0.503817,1.053507,2.729379,441,722,281,441,0,93.19,0,normal
1780597616.8734717,4.035933899998781,4271,0.035889,-0.052246,1.057617,0.908397,2.801527,-0.709924,1.059515,3.029477,443,726,283,443,0,93.19,0,normal
1780597616.9042192,4.066681399999652,4302,0.052246,-0.031982,1.051025,2.725191,3.358779,-0.70229,1.052809,4.381926,446,731,285,446,1,93.19,14,normal
1780597616.934504,4.09696619999886,4333,0.035156,-0.025635,1.052002,0.564886,2.610687,-1.038168,1.052901,2.865759,451,738,287,451,0,93.19,1,normal
1780597616.9658456,4.128307899998617,4364,0.032959,-0.022705,1.058106,1.641221,2.229008,-1.122137,1.058862,2.98685,453,742,289,453,0,93.19,0,normal
1780597616.997439,4.159901099992567,4395,0.068115,-0.054932,1.05957,1.78626,3.229008,-0.572519,1.063178,3.7343,458,748,290,458,0,111.913,6,normal
1780597617.028319,4.190781199999037,4427,0.080078,-0.003418,1.072998,1.312977,2.916031,-0.748092,1.075987,3.284324,462,754,292,462,0,111.913,0,normal
1780597617.0609791,4.223441399997682,4457,0.045654,-0.039795,1.05127,2.198473,2.503817,-0.259542,1.053013,3.342117,464,759,295,464,1,111.913,14,normal
1780597617.0905824,4.253044500001124,4489,0.037598,-0.002441,1.053223,1.580153,2.320611,-0.572519,1.053896,2.865291,469,766,297,469,0,111.913,0,normal
1780597617.1230571,4.285519400000339,4520,0.016602,-0.053955,1.050293,1.557252,2.580153,-0.572519,1.051809,3.067572,471,770,299,471,0,111.913,0,normal
1780597617.1531105,4.315572699997574,4551,0.054443,-0.001465,1.041748,2.916031,3.503817,-0.580153,1.043171,4.595274,475,776,301,475,0,111.913,6,normal
1780597617.1850271,4.347489399995538,4582,0.047607,-0.017578,1.053223,0.587786,2.740458,-1.122137,1.054445,3.019072,479,782,303,479,0,111.913,1,normal
1780597617.2155535,4.378015700000105,4613,0.03418,-0.043945,1.043701,2.129771,2.900763,-0.854962,1.045185,3.698826,481,787,306,481,1,111.913,14,normal
1780597617.246543,4.409005099994829,4645,0.045654,-0.040771,1.052246,1.519084,2.694656,-0.900763,1.054025,3.221826,486,794,308,486,0,112.0,1,normal
1780597617.2776558,4.44011799999862,4676,0.028809,-0.022461,1.053223,1.152672,2.885496,-0.961832,1.053856,3.25267,487,796,309,487,0,112.0,6,normal
1780597617.3091223,4.471584600003553,4707,0.036377,-0.064697,1.040283,1.847328,2.274809,-0.824427,1.042928,3.044184,489,801,312,489,1,112.0,13,normal
1780597617.3389752,4.501437500002794,4738,0.030029,0.006592,1.047607,1.099237,2.59542,-0.519084,1.048058,2.866003,494,808,314,494,0,112.0,1,normal
1780597617.3697846,4.532246799994027,4768,0.016113,-0.049561,1.045166,1.328244,2.129771,-1.0,1.046464,2.70188,496,812,316,496,0,112.0,0,normal
1780597617.399671,4.562133300001733,4798,0.050537,-0.033447,1.052002,2.694656,3.022901,-0.870229,1.053746,4.142029,498,817,319,498,1,112.0,14,normal
1780597617.4313126,4.593774900000426,4829,0.041504,-0.01001,1.053711,0.442748,2.053435,-1.030534,1.054575,2.339791,503,824,321,503,0,112.0,0,normal
1780597617.462785,4.625247300005867,4860,0.020996,-0.017334,1.061768,1.870229,2.343511,-0.992366,1.062116,3.158258,504,826,322,504,0,112.0,5,normal
1780597617.4939084,4.656370600001537,4891,0.032715,-0.036133,1.052734,2.435115,2.908397,-0.687023,1.053862,3.854939,508,832,324,508,0,112.0,6,normal
1780597617.526248,4.6887102000036975,4923,0.070557,-0.010498,1.060303,1.229008,3.282443,-0.80916,1.0627,3.59717,511,836,325,511,0,89.928,6,normal
1780597617.5577106,4.720172999994247,4955,0.038818,-0.040527,1.051514,2.175573,2.419847,-0.70229,1.05301,3.328962,513,841,328,513,1,89.928,13,normal
1780597617.5886493,4.751111399993533,4986,0.034912,0.001709,1.054443,1.587786,2.610687,-0.59542,1.055022,3.113082,518,848,330,518,0,89.928,0,normal
1780597617.6197207,4.782183000002988,5017,0.030762,-0.05127,1.05542,1.48855,2.244275,-0.557252,1.057112,2.750105,520,852,332,520,0,89.928,1,normal
1780597617.6502616,4.812723900002311,5048,0.053467,0.005859,1.053223,3.274809,2.709924,-0.816794,1.054595,4.328419,524,858,334,524,0,89.928,5,normal
1780597617.68123,4.843692399997963,5079,0.031982,-0.012939,1.050049,0.358779,2.832061,-1.145038,1.050615,3.075777,528,864,336,528,0,89.928,0,normal
1780597617.7130656,4.8755279000033624,5110,0.060791,-0.030029,1.059326,2.564885,2.908397,-0.572519,1.061494,3.919845,530,869,339,530,1,89.928,13,normal
1780597617.7437286,4.906190800000331,5141,0.056885,-0.044678,1.054688,1.374046,2.229008,-0.847328,1.057165,2.75217,534,875,341,534,1,89.928,3,normal
1780597617.7745843,4.937046499995631,5172,0.060547,-0.011475,1.061279,1.152672,3.572519,-1.038168,1.063067,3.894784,537,880,343,537,0,89.928,1,normal
1780597617.8061063,4.968568500000401,5203,0.041016,-0.033691,1.053467,2.030534,2.572519,-0.977099,1.054803,3.41989,539,885,346,539,1,100.0,14,normal
1780597617.8347645,4.997226799998316,5234,0.03125,0.008789,1.050049,1.244275,2.396947,-0.572519,1.05055,2.76068,544,892,348,544,0,100.0,0,normal
1780597617.8661437,5.028605900006369,5264,0.039062,-0.063232,1.055176,1.038168,2.877863,-0.641221,1.05779,3.125868,546,896,350,546,0,100.0,0,normal
1780597617.896507,5.058969199992134,5295,0.033936,-0.009033,1.053955,2.916031,3.549618,-0.740458,1.05454,4.653096,549,901,352,549,1,100.0,14,normal
1780597617.9296057,5.0920679999981076,5326,0.032959,-0.025635,1.046631,0.740458,2.282443,-0.89313,1.047463,2.560372,554,908,354,554,0,100.0,1,normal
1780597617.9596944,5.122156700002961,5357,0.025635,-0.013184,1.053711,2.183206,2.022901,-0.885496,1.054105,3.105257,556,912,356,556,0,100.0,0,normal
1780597617.9900181,5.152480300006573,5388,0.027832,-0.022217,1.050537,1.908397,3.290076,-0.618321,1.05114,3.853427,559,918,359,559,0,100.0,6,normal
1780597618.021122,5.18358409999928,5419,0.034912,0.002197,1.05249,1.099237,3.687023,-0.732824,1.053071,3.916566,563,924,361,563,0,100.0,0,normal
1780597618.0512388,5.2137011000013445,5449,0.040039,-0.023438,1.055664,2.48855,2.641221,-0.870229,1.056683,3.731786,565,929,364,565,1,100.0,13,normal
1780597618.0829933,5.245455500000389,5480,0.024658,-0.035156,1.046387,1.740458,1.885496,-0.458015,1.047267,2.606543,571,936,365,571,0,115.523,0,normal
1780597618.1204522,5.282914399998845,5512,0.033447,-0.046631,1.057129,0.717557,2.206107,-1.007634,1.058685,2.529253,573,940,367,573,0,115.523,0,normal
1780597618.149773,5.3122350000048755,5549,0.013428,0.005127,1.050049,1.343511,1.70229,-0.603053,1.050147,2.250886,578,946,368,578,0,115.523,6,normal
1780597618.1813214,5.343783499993151,5579,0.0625,-0.028564,1.061523,1.114504,2.496183,-0.946565,1.063745,2.892928,580,950,370,580,0,115.523,0,normal
1780597618.212915,5.375377100004698,5610,0.054443,-0.072754,1.044678,2.305344,1.977099,-1.091603,1.048622,3.227248,582,955,373,582,1,115.523,13,normal
1780597618.2437956,5.406257900001947,5641,0.053711,-0.005615,1.055908,1.290076,2.435115,-0.80916,1.057288,2.872076,585,960,375,585,0,115.523,1,normal
1780597618.2750206,5.437482799999998,5672,0.033203,-0.027588,1.048096,1.900763,1.977099,-0.59542,1.048984,2.806483,587,964,377,587,0,115.523,0,normal
1780597618.3048708,5.4673330999939935,5703,0.033936,0.004883,1.053711,3.305344,2.572519,-0.656489,1.054268,4.23959,591,970,379,591,0,115.523,5,normal
1780597618.3362703,5.4987324999965494,5734,0.039795,-0.02832,1.052246,0.610687,3.038168,-1.419847,1.053379,3.40872,595,976,381,595,0,94.488,0,normal
1780597618.3677878,5.530249999996158,5765,0.041748,-0.037109,1.056152,2.343511,2.908397,-0.938931,1.057628,3.851287,597,981,384,597,1,94.488,13,normal
1780597618.3985403,5.561002400005236,5796,0.032715,-0.037842,1.043945,1.503817,2.435115,-0.832061,1.045143,2.980532,602,988,386,602,0,94.488,0,normal
1780597618.4298844,5.592346599994926,5827,0.056641,-0.013916,1.064697,1.29771,3.450382,-0.862595,1.066294,3.785929,604,992,388,604,0,94.488,0,normal
1780597618.4592443,5.621706399993855,5857,0.01416,-0.024658,1.050537,2.328244,2.541985,-0.442748,1.050922,3.475404,606,997,391,606,1,94.488,14,normal
1780597618.4907358,5.653198100000736,5888,0.038818,-0.004883,1.056885,1.587786,2.328244,-0.244275,1.057609,2.828685,611,1004,393,611,0,94.488,1,normal
1780597618.5214634,5.683925599994836,5919,0.001221,-0.05249,1.051025,1.480916,1.793893,-0.900763,1.052336,2.494502,613,1008,395,613,0,94.488,1,normal
1780597618.553263,5.715725200003362,5950,0.047119,-0.015381,1.04834,2.641221,3.763359,-1.007634,1.049511,4.70683,615,1013,398,615,1,94.488,14,normal
1780597618.5847018,5.747164000000339,5982,0.056641,-0.026855,1.05249,0.396947,2.923664,-1.076336,1.054355,3.140681,620,1020,400,620,0,94.488,0,normal
1780597618.6149695,5.777431800001068,6013,0.053711,-0.03125,1.061279,2.290076,3.030534,-1.129771,1.063097,3.96295,622,1025,403,622,1,96.774,14,normal
1780597618.6459055,5.80836769999587,6044,0.029541,-0.040527,1.049805,1.473282,2.801527,-1.091603,1.051002,3.34824,626,1030,404,626,0,96.774,6,normal
1780597618.6750784,5.837540699998499,6074,0.060303,0.000488,1.064453,1.022901,3.435115,-1.053435,1.06616,3.735782,630,1036,406,630,0,96.774,0,normal
1780597618.7069352,5.8693973000044934,6104,0.062988,-0.033447,1.055664,2.251908,2.664122,-0.778626,1.05807,3.574199,632,1041,409,632,1,96.774,14,normal
1780597618.7386482,5.901110499995411,6136,0.029541,0.014893,1.052246,1.458015,2.129771,-0.572519,1.052766,2.643768,637,1048,411,637,0,96.774,1,normal
1780597618.7700052,5.9324673999944935,6167,0.031006,-0.048096,1.043457,1.10687,2.198473,-0.839695,1.045025,2.600679,639,1052,413,639,0,96.774,0,normal
1780597618.7999623,5.962424500001362,6198,0.043457,-0.042725,1.049805,2.664122,3.0,-0.473282,1.051572,4.039993,642,1057,415,642,1,96.774,13,normal
1780597618.8293464,5.991808599996148,6228,0.051025,0.000732,1.057861,1.29771,2.541985,-0.862595,1.059091,2.981578,647,1064,417,647,0,96.774,1,normal
1780597618.8606794,6.02314170000318,6258,0.04248,-0.054932,1.056885,1.10687,2.458015,-0.78626,1.059164,2.808061,648,1066,418,648,0,96.774,5,normal
1780597618.8920887,6.054550899993046,6289,0.065186,-0.017822,1.054688,3.167939,3.763359,-0.198473,1.05685,4.92322,651,1071,420,651,1,105.072,14,normal
1780597618.9228575,6.085319799996796,6320,0.053955,-0.030762,1.054443,0.549618,2.778626,-1.442748,1.056271,3.178736,656,1078,422,656,0,105.072,0,normal
1780597618.9534957,6.1159578999941,6351,0.029785,-0.031006,1.055176,1.854962,2.961832,-0.870229,1.056051,3.601476,658,1082,424,658,0,105.072,1,normal
1780597618.9849353,6.147397399996407,6382,0.035156,-0.046631,1.046387,1.541985,2.625954,-0.473282,1.048015,3.081777,663,1088,425,663,0,105.072,5,normal
1780597619.0165074,6.178969700005837,6414,0.035889,-0.009033,1.059082,1.167939,2.687023,-0.80916,1.059728,3.039558,667,1094,427,667,0,105.072,0,normal
1780597619.047479,6.209941099994467,6445,0.034912,-0.04126,1.054443,2.167939,2.480916,-0.603053,1.055828,3.349414,668,1097,429,668,1,105.072,17,normal
1780597619.0780637,6.240525999994134,6476,0.041748,0.004395,1.060059,1.396947,1.778626,-0.496183,1.06089,2.31542,673,1104,431,673,0,105.072,0,normal
1780597619.109094,6.271556199993938,6506,0.027588,-0.061523,1.046143,0.931298,2.89313,-0.992366,1.048313,3.197234,675,1108,433,675,0,105.072,0,normal
1780597619.140657,6.303119300006074,6537,0.042969,-0.018066,1.050049,2.717557,3.290076,-0.549618,1.051083,4.302534,678,1113,435,678,1,105.072,14,normal
1780597619.1716223,6.334084600006463,6568,0.040771,-0.019775,1.053711,0.503817,2.48855,-0.793893,1.054685,2.660259,683,1120,437,683,0,114.695,0,normal
1780597619.201919,6.36438129999442,6599,0.046143,-0.049072,1.05249,1.908397,2.312977,-0.938931,1.054644,3.142202,685,1124,439,685,0,114.695,1,normal
1780597619.2329934,6.395455699996091,6630,0.034912,-0.041504,1.056641,1.641221,2.656489,-0.610687,1.058032,3.181741,690,1130,440,690,0,114.695,5,normal
1780597619.2639143,6.426376599993091,6661,0.030762,-0.006348,1.057617,1.152672,3.458015,-0.679389,1.058084,3.707842,694,1136,442,694,0,114.695,0,normal
1780597619.294337,6.4567992999946,6692,0.020996,-0.023438,1.03833,2.473282,2.305344,-0.778626,1.038807,3.469581,696,1141,445,696,1,114.695,13,normal
1780597619.325172,6.487634200006141,6723,0.02417,0.002686,1.045654,1.198473,2.267176,-0.587786,1.045937,2.630954,701,1148,447,701,0,114.695,0,normal
1780597619.3560488,6.518511000002036,6754,0.017578,-0.056885,1.054199,1.091603,2.335878,-0.816794,1.055879,2.70464,703,1152,449,703,0,114.695,0,normal
1780597619.3874583,6.549920599994948,6785,0.044678,-0.018555,1.052002,2.923664,3.534351,0.114504,1.053114,4.588307,706,1157,451,706,1,114.695,14,normal
1780597619.4182324,6.580694599993876,6816,0.044434,-0.023926,1.053223,0.267176,2.419847,-1.061069,1.054431,2.655732,711,1164,453,711,0,114.695,0,normal
1780597619.4493146,6.611776799996733,6847,0.051758,-0.041504,1.06543,2.183206,2.625954,-0.618321,1.067493,3.470496,713,1168,455,713,0,107.527,1,normal
1780597619.480045,6.642507199998363,6878,0.048828,-0.044434,1.051758,1.603053,2.923664,-0.946565,1.053828,3.466061,718,1174,456,718,0,107.527,5,normal
1780597619.510174,6.6726363000052515,6909,0.030762,-0.015625,1.0625,1.206107,3.625954,-0.748092,1.06306,3.893826,722,1180,458,722,0,107.527,0,normal
1780597619.5413892,6.70385140000144,6939,0.03833,-0.027832,1.048584,2.450382,2.099237,-0.885496,1.049653,3.345933,724,1185,461,724,1,107.527,14,normal
1780597619.5728672,6.735329500006628,6970,0.050049,-0.013184,1.043213,1.755725,2.068702,-0.770992,1.044496,2.820732,729,1192,463,729,0,107.527,1,normal
1780597619.6039712,6.766433400000096,7002,0.006348,-0.054932,1.049072,1.274809,2.030534,-1.068702,1.050528,2.624944,731,1196,465,731,0,107.527,0,normal
1780597619.6353931,6.797855299999355,7033,0.056641,-0.012939,1.052734,3.038168,3.10687,-0.687023,1.054336,4.399444,734,1201,467,734,1,107.527,13,normal
1780597619.667004,6.829466399998637,7064,0.04541,-0.022705,1.057861,0.541985,2.969466,-1.244275,1.059079,3.264919,739,1208,469,739,0,107.527,0,normal
1780597619.698383,6.860845300005167,7095,0.050293,-0.043213,1.056396,2.068702,2.625954,-1.068702,1.058475,3.5096,741,1212,471,741,0,107.527,0,normal
1780597619.7295578,6.892020100000082,7126,0.031738,-0.045654,1.055908,1.587786,2.290076,-0.748092,1.057371,2.885334,746,1218,472,746,0,118.28,5,normal
1780597619.7586408,6.921102899999823,7157,0.026367,-0.007568,1.0625,1.351145,3.10687,-0.984733,1.062854,3.528163,750,1224,474,750,0,118.28,0,normal
1780597619.7906961,6.95315839999239,7187,0.05249,-0.04541,1.046631,2.473282,2.427481,-0.633588,1.04893,3.522957,752,1229,477,752,1,118.28,13,normal
1780597619.8211389,6.983601100000669,7218,0.046143,-0.011963,1.053955,1.305344,2.145038,-0.816794,1.055032,2.640504,757,1236,479,757,0,118.28,1,normal
1780597619.8531845,7.015646700005163,7250,0.017822,-0.05542,1.045166,1.267176,2.748092,-0.671756,1.046786,3.099838,759,1240,481,759,0,118.28,0,normal
1780597619.8830802,7.0455424999963725,7281,0.065186,-0.009277,1.053467,3.290076,3.59542,-0.427481,1.055522,4.892278,763,1246,483,763,0,118.28,6,normal
1780597619.91337,7.075832200003788,7311,0.034912,-0.024414,1.050781,0.412214,3.480916,-1.007634,1.051644,3.647194,767,1252,485,767,0,118.28,1,normal
1780597619.9445174,7.106979499993031,7342,0.015625,-0.022461,1.043945,1.877863,3.061069,-0.732824,1.044304,3.66518,769,1256,487,769,0,118.28,0,normal
1780597619.9758976,7.138359699994908,7373,0.03833,-0.036621,1.048828,1.969466,3.221374,-0.916031,1.050167,3.885249,772,1262,490,772,0,118.28,6,normal
1780597620.006934,7.169396099998266,7404,0.061523,0.003174,1.078613,1.053435,3.358779,-0.519084,1.080371,3.558169,776,1268,492,776,0,107.914,0,normal
1780597620.0380867,7.200548900000285,7435,0.045654,-0.038574,1.056641,2.282443,2.099237,-0.770992,1.05833,3.19543,778,1273,495,778,1,107.914,15,normal
1780597620.0694525,7.231914799995138,7467,0.018555,0.016113,1.048828,1.229008,2.427481,-0.664122,1.049116,2.800746,783,1280,497,783,0,107.914,1,normal
1780597620.100674,7.263136099994881,7498,0.032471,-0.057861,1.039795,1.259542,2.480916,-0.877863,1.04191,2.917539,785,1284,499,785,0,107.914,0,normal
1780597620.1318915,7.294353699995554,7529,0.04541,-0.01001,1.050049,3.083969,3.580153,-0.557252,1.051078,4.758034,789,1290,501,789,0,107.914,6,normal
1780597620.1623006,7.324762899996131,7560,0.031494,-0.033203,1.052002,0.21374,3.061069,-0.839695,1.052997,3.181338,793,1296,503,793,0,107.914,1,normal
1780597620.193275,7.355737299993052,7591,0.060303,-0.045654,1.064941,2.358779,2.526718,-0.748092,1.067624,3.536634,795,1301,506,795,1,107.914,14,normal
1780597620.2245944,7.387056499996106,7622,0.034668,-0.047363,1.050537,1.480916,2.503817,-0.51145,1.052176,2.953607,799,1307,508,799,1,107.914,3,normal
1780597620.2551877,7.4176501000038115,7653,0.032715,-0.011719,1.057129,1.442748,3.206107,-0.870229,1.0577,3.62187,802,1312,510,802,0,107.914,1,normal
1780597620.2868369,7.449299100000644,7684,0.040039,-0.05542,1.048096,1.923664,2.801527,-0.664122,1.050323,3.462672,803,1315,512,803,1,96.429,17,normal
1780597620.3187132,7.4811754999973346,7716,0.065186,-0.030029,1.062744,0.435114,2.70229,-1.068702,1.065165,2.938337,808,1322,514,808,0,96.429,0,normal
1780597620.3487844,7.51124659999914,7747,0.048828,-0.036377,1.064697,1.778626,2.755725,-1.267176,1.066437,3.516144,810,1326,516,810,0,96.429,0,normal
1780597620.381233,7.543695300002582,7778,0.061523,0.001709,1.066162,2.045802,2.931298,-0.687023,1.067937,3.640029,814,1332,518,814,0,96.429,6,normal
1780597620.411836,7.57429809999303,7809,0.061523,-0.023682,1.052978,0.885496,2.648855,-0.770992,1.05504,2.897406,818,1338,520,818,0,96.429,0,normal
1780597620.4437795,7.6062416000058874,7840,0.033447,-0.038818,1.053467,2.175573,2.885496,-0.48855,1.054712,3.646626,820,1343,523,820,1,96.429,14,normal
1780597620.4740682,7.636530499992659,7871,0.028564,-0.015381,1.051758,1.603053,2.343511,-0.946565,1.052258,2.99296,823,1348,525,823,0,96.429,0,normal
1780597620.505071,7.667533200001344,7902,0.03418,-0.02002,1.049072,0.709924,2.030534,-0.946565,1.04982,2.350116,825,1352,527,825,0,96.429,1,normal
1780597620.5353622,7.697824400005629,7933,0.065918,-0.040039,1.053467,2.473282,2.961832,-0.969466,1.056286,3.978623,827,1357,530,827,1,96.429,14,normal
1780597620.567335,7.729797199994209,7964,0.059814,-0.019531,1.052002,0.70229,1.732824,-0.748092,1.053882,2.013836,832,1364,532,832,0,103.571,0,normal
1780597620.5982027,7.7606648999935715,7995,0.059082,-0.046143,1.047852,1.885496,2.335878,-0.648855,1.05053,3.071227,834,1368,534,834,0,103.571,1,normal
1780597620.6301155,7.792577700005495,8026,0.031738,-0.036621,1.061768,2.091603,2.946565,-0.694656,1.062873,3.679619,838,1374,536,838,0,103.571,5,normal
1780597620.659629,7.822091299996828,8057,0.055664,0.009521,1.062988,1.236641,2.862595,-0.877863,1.064487,3.239502,840,1378,538,840,0,103.571,0,normal
1780597620.6901886,7.8526507999922615,8088,0.043701,-0.038818,1.04248,2.519084,2.450382,-0.679389,1.044118,3.579347,842,1383,541,842,1,103.571,14,normal
1780597620.7204366,7.882898800002295,8119,0.027588,-0.013428,1.050049,1.969466,2.29771,-0.793893,1.050497,3.128663,845,1388,543,845,0,103.571,0,normal
1780597620.7524245,7.914886800004751,8150,0.036621,-0.04834,1.058594,0.832061,3.0,-0.664122,1.060329,3.183298,847,1392,545,847,0,103.571,0,normal
1780597620.783824,7.946286199992755,8181,0.068604,-0.032227,1.061768,2.580153,3.015267,-0.870229,1.064469,4.062798,849,1397,548,849,1,103.571,14,normal
1780597620.814863,7.977325300002121,8212,0.055664,-0.017578,1.043213,0.549618,2.045802,-0.877863,1.044845,2.293039,853,1402,549,853,0,103.571,6,normal
1780597620.8455575,8.008019700006116,8243,0.050049,-0.04541,1.048096,1.717557,2.969466,-0.748092,1.050272,3.511036,855,1406,551,855,0,82.437,0,normal
1780597620.8760912,8.038553499995032,8274,0.034668,-0.035645,1.058106,2.122137,2.961832,-0.557252,1.059273,3.68598,859,1412,553,859,0,82.437,5,normal
1780597620.906625,8.069087199997739,8305,0.056885,-0.000977,1.069336,0.877863,3.396947,-0.832061,1.070848,3.605858,863,1418,555,863,0,82.437,0,normal
1780597620.9395566,8.102018799996586,8336,0.050537,-0.033203,1.056396,2.412214,2.870229,-0.557252,1.058126,3.790451,865,1423,558,865,1,82.437,13,normal
1780597620.970835,8.133297099993797,8368,0.037842,0.00415,1.051514,1.396947,2.038168,-0.847328,1.052203,2.612193,870,1430,560,870,0,82.437,1,normal
1780597621.0025022,8.164964399999008,8399,0.040039,-0.051758,1.045898,1.396947,2.29771,-1.19084,1.047944,2.940923,872,1434,562,872,0,82.437,0,normal
1780597621.0327873,8.1952495000005,8429,0.053223,-0.039795,1.059326,2.51145,3.122137,-1.091603,1.061408,4.152918,875,1439,564,875,1,82.437,13,normal
1780597621.0633366,8.225798900006339,8460,0.036377,-0.016357,1.053467,0.496183,2.648855,-1.007634,1.054222,2.877144,880,1446,566,880,0,82.437,0,normal
1780597621.0932734,8.25573560000339,8491,0.032959,-0.028076,1.060059,2.068702,2.519084,-0.725191,1.060942,3.339344,882,1450,568,882,0,82.437,0,normal
1780597621.124502,8.28696409999975,8522,0.044922,-0.038574,1.05835,1.824428,2.381679,-0.587786,1.060005,3.057192,886,1456,570,886,0,111.111,6,normal
1780597621.155492,8.317954199999804,8553,0.049561,0.009277,1.063232,1.007634,2.824427,-1.015267,1.064427,3.165988,890,1462,572,890,0,111.111,0,normal
1780597621.1878428,8.350304999999935,8584,0.018066,-0.016357,1.04126,2.648855,2.854962,-0.717557,1.041545,3.960067,892,1467,575,892,1,111.111,14,normal
1780597621.217109,8.37957119999919,8616,0.050781,0.008057,1.054688,1.305344,2.496183,-0.625954,1.05594,2.885597,897,1474,577,897,0,111.111,1,normal
1780597621.2491167,8.411578999992344,8646,0.030029,-0.048096,1.050537,0.916031,2.793893,-1.0,1.052066,3.105632,899,1478,579,899,0,111.111,0,normal
1780597621.2792227,8.44168499999796,8676,0.039551,-0.06543,1.045166,2.496183,2.961832,-0.946565,1.047959,3.987401,901,1483,582,901,1,111.111,13,normal
1780597621.3094888,8.471950899998774,8707,0.022705,0.005371,1.044434,1.099237,2.709924,-0.671756,1.044694,3.000544,906,1490,584,906,0,111.111,1,normal
1780597621.3412738,8.503736099999514,8738,0.037109,-0.0354,1.053223,1.709924,2.343511,-0.793893,1.054471,3.007682,908,1494,586,908,0,111.111,0,normal
1780597621.3710883,8.533550499996636,8769,0.063232,0.007568,1.063965,2.473282,3.129771,-0.717557,1.065869,4.053083,912,1500,588,912,0,111.111,6,normal
1780597621.4027998,8.565262000003713,8800,0.038574,-0.022217,1.049316,0.824427,3.206107,-0.78626,1.05026,3.4025,916,1506,590,916,0,107.914,1,normal
1780597621.4342306,8.596692899998743,8831,0.05127,-0.032715,1.048828,2.580153,2.679389,-0.412214,1.05059,3.74249,918,1511,593,918,1,107.914,14,normal
1780597621.4650831,8.62754539999878,8863,0.037354,0.008301,1.04834,1.40458,2.59542,-0.748092,1.049038,3.044452,924,1518,594,924,0,107.914,0,normal
1780597621.4953616,8.657823899993673,8893,0.03418,-0.023926,1.062256,1.160305,2.274809,-1.351145,1.063075,2.889058,926,1522,596,926,0,107.914,1,normal
1780597621.5264912,8.688953499993659,8924,0.041504,-0.062988,1.04541,2.40458,2.603053,-0.419847,1.048128,3.568496,928,1527,599,928,1,107.914,14,normal
1780597621.5585632,8.721025399994687,8955,0.034912,0.011475,1.050781,0.541985,2.458015,-0.908397,1.051424,2.675962,933,1534,601,933,0,107.914,0,normal
1780597621.587887,8.75034919999598,8986,0.031494,-0.034668,1.060547,1.862595,1.931298,-0.641221,1.061581,2.758684,935,1538,603,935,0,107.914,0,normal
1780597621.620217,8.782679399999324,9017,0.048584,-0.000732,1.053223,2.473282,2.862595,-0.549618,1.054343,3.822781,939,1544,605,939,0,107.914,6,normal
1780597621.6502948,8.812757099993178,9048,0.042725,-0.025146,1.047119,1.10687,2.877863,-1.175572,1.048292,3.299883,943,1550,607,943,0,107.914,0,normal
1780597621.681677,8.844139299995732,9079,0.050537,-0.043701,1.045166,2.274809,1.900763,-0.931298,1.047299,3.107245,945,1555,610,945,1,103.943,14,normal
1780597621.7126517,8.875113999994937,9110,0.032715,-0.016602,1.050537,1.671756,1.900763,-1.068702,1.051178,2.747689,950,1562,612,950,0,103.943,0,normal
1780597621.743995,8.906457299992326,9142,0.021729,-0.050781,1.062012,1.29771,2.89313,-0.801527,1.063447,3.27058,952,1566,614,952,0,103.943,1,normal
1780597621.7749372,8.937399400005233,9173,0.061523,-0.009521,1.055664,3.038168,3.282443,-0.305344,1.057498,4.483094,955,1571,616,955,1,103.943,14,normal
1780597621.8063657,8.96882789999654,9204,0.05127,-0.031738,1.053467,0.267176,2.206107,-0.679389,1.055191,2.32376,960,1578,618,960,0,103.943,0,normal
1780597621.8367386,8.999200799997197,9234,0.035156,-0.033691,1.047852,2.129771,2.351145,-0.801527,1.048982,3.272041,962,1582,620,962,0,103.943,1,normal
1780597621.868211,9.0306733000034,9265,0.04541,0.006348,1.053711,2.229008,2.610687,-0.564886,1.054708,3.478974,966,1588,622,966,0,103.943,5,normal
1780597621.8986337,9.061096000004909,9296,0.055908,0.016357,1.060791,0.954198,3.030534,-0.961832,1.062389,3.319602,970,1594,624,970,0,103.943,0,normal
1780597621.9296033,9.092065499993623,9327,0.050781,-0.039307,1.05249,2.625954,2.480916,-0.519084,1.054447,3.649661,972,1599,627,972,1,103.943,13,normal
1780597621.960667,9.12312910000037,9358,0.037109,-0.003418,1.046875,1.412214,2.51145,-0.648855,1.047538,2.953429,977,1606,629,977,0,114.695,1,normal
1780597621.9995332,9.161995400005253,9389,0.05127,-0.036621,1.064209,0.954198,2.931298,-0.862595,1.066072,3.201105,979,1610,631,979,0,114.695,0,normal
1780597622.0225358,9.184998099997756,9420,0.040527,-0.027588,1.053711,2.618321,2.648855,-0.48855,1.054851,3.756424,982,1615,633,982,1,114.695,13,normal
1780597622.053032,9.215494200005196,9451,0.0271,-0.024414,1.04248,0.389313,3.229008,-1.007634,1.043118,3.404905,987,1622,635,987,0,114.695,0,normal
1780597622.0852792,9.247741400002269,9482,0.019043,-0.032715,1.05249,1.725191,2.549618,-0.778626,1.053171,3.175389,989,1626,637,989,0,114.695,0,normal
1780597622.1159623,9.27842449999298,9513,0.030273,-0.002441,1.054932,1.984733,3.145038,-0.641221,1.055369,3.773804,993,1632,639,993,0,114.695,6,normal
1780597622.146261,9.308723299996927,9544,0.05835,0.000488,1.068359,0.984733,3.061069,-0.801527,1.069952,3.313953,997,1638,641,997,0,114.695,0,normal
1780597622.1794178,9.341880199994193,9575,0.052002,-0.040527,1.050781,2.458015,2.244275,-0.732824,1.052848,3.408172,999,1643,644,999,1,114.695,14,normal
1780597622.2092123,9.371674599999096,9606,0.039307,-0.013184,1.048584,1.519084,2.465649,-0.396947,1.049403,2.923116,1004,1650,646,1004,0,114.695,0,normal
1780597622.2397017,9.402163899998413,9637,0.022217,-0.054932,1.049316,1.206107,2.946565,-0.946565,1.050988,3.321585,1006,1654,648,1006,0,103.943,0,normal
1780597622.2707636,9.433225799992215,9668,0.037354,-0.008301,1.051758,2.977099,2.984733,-0.977099,1.052454,4.327409,1009,1659,650,1009,1,103.943,14,normal
1780597622.301869,9.464331199997105,9699,0.028564,-0.020996,1.044189,0.450382,3.282443,-0.984733,1.044791,3.45644,1014,1666,652,1014,0,103.943,0,normal
1780597622.334149,9.49661109999579,9730,0.049316,-0.043945,1.062744,1.778626,2.122137,-1.022901,1.064795,2.95183,1016,1670,654,1016,0,103.943,0,normal
1780597622.363794,9.526256299999659,9761,0.05542,-0.045898,1.057617,1.923664,2.885496,-0.70229,1.060062,3.53833,1021,1676,655,1021,0,103.943,6,normal
1780597622.3943644,9.556826700005331,9792,0.062256,0.01123,1.060791,0.992366,3.305344,-0.648855,1.062676,3.511567,1025,1682,657,1025,0,103.943,1,normal
1780597622.4256017,9.588063999995939,9823,0.043457,-0.037109,1.049316,2.29771,2.320611,-0.648855,1.050871,3.329522,1027,1687,660,1027,1,103.943,14,normal
1780597622.456623,9.619085400001495,9854,0.047852,0.00293,1.052002,1.351145,2.48855,-0.763359,1.053094,2.932779,1033,1694,661,1033,0,103.943,0,normal
1780597622.4883075,9.650769800005946,9885,0.013916,-0.052734,1.043945,1.358779,2.183206,-0.969466,1.045369,2.748187,1035,1698,663,1035,0,103.943,1,normal
1780597622.518483,9.680945100000827,9916,0.041504,-0.016846,1.051025,3.099237,2.839695,-0.381679,1.051979,4.22076,1038,1703,665,1038,1,114.695,14,normal
1780597622.5504444,9.712906600005226,9947,0.055176,-0.020264,1.053955,0.503817,2.854962,-1.305344,1.055593,3.179396,1043,1710,667,1043,0,114.695,0,normal
1780597622.58276,9.745222300000023,9979,0.054443,-0.034424,1.057617,2.412214,2.610687,-0.618321,1.059577,3.607878,1045,1715,670,1045,1,114.695,14,normal
1780597622.6147451,9.777207299994188,10011,0.042236,-0.001709,1.046875,1.343511,2.320611,-0.770992,1.047728,2.790105,1048,1720,672,1048,0,114.695,0,normal
1780597622.6451538,9.807616100006271,10042,0.033936,-0.031494,1.067383,0.664122,2.793893,-1.40458,1.068386,3.196833,1050,1724,674,1050,0,114.695,0,normal
1780597622.6765876,9.83904989999428,10073,0.054443,-0.020996,1.053223,2.916031,2.679389,-0.938931,1.054838,4.069884,1053,1729,676,1053,1,114.695,13,normal
1780597622.706987,9.869449100006022,10104,0.038818,-0.016602,1.050537,0.374046,1.870229,-0.969466,1.051385,2.139516,1058,1736,678,1058,0,114.695,0,normal
1780597622.7382774,9.900739699995029,10135,0.029541,-0.02124,1.057373,1.89313,2.564885,-1.259542,1.057999,3.427685,1060,1740,680,1060,0,114.695,0,normal
1780597622.7685494,9.931011699998635,10166,0.023926,-0.049316,1.056885,1.946565,2.59542,-0.664122,1.058305,3.311552,1064,1746,682,1064,0,104.0,6,normal
1780597622.7998872,9.962349399997038,10197,0.038086,0.010986,1.063232,0.763359,3.832061,-0.450382,1.063971,3.933224,1066,1750,684,1066,0,104.0,1,normal
1780597622.8313036,9.993765799998073,10228,0.024902,-0.032471,1.035156,2.351145,2.679389,-0.503817,1.035965,3.600117,1068,1755,687,1068,1,104.0,14,normal
1780597622.8605835,10.023045800000546,10259,0.022949,0.002686,1.057129,1.412214,1.755725,-0.977099,1.057381,2.45594,1073,1762,689,1073,0,104.0,0,normal
1780597622.8921173,10.054579499992542,10289,0.040283,-0.017822,1.057617,1.022901,3.427481,-1.290076,1.058534,3.8024,1075,1766,691,1075,0,104.0,0,normal
1780597622.9231706,10.08563289999438,10320,0.044922,-0.057861,1.054932,2.198473,2.656489,-0.778626,1.057472,3.535035,1077,1771,694,1077,1,104.0,13,normal
1780597622.9536784,10.116140700003598,10351,0.04248,0.00415,1.052978,1.274809,2.412214,-0.70229,1.053843,2.81729,1081,1776,695,1081,0,104.0,5,normal
1780597622.984718,10.14718030000222,10382,0.043701,-0.060547,1.046631,2.091603,2.137405,-1.374046,1.049291,3.291095,1083,1780,697,1083,0,104.0,0,normal
1780597623.016087,10.178549200005364,10413,0.046143,-0.019775,1.068115,2.229008,2.442748,-0.534351,1.069294,3.34978,1087,1786,699,1087,0,104.0,6,normal
1780597623.0471494,10.209611600002972,10444,0.059814,-0.010986,1.067627,0.717557,3.045802,-1.167939,1.069358,3.340042,1091,1792,701,1091,0,97.122,1,normal
1780597623.0782053,10.240667699996266,10475,0.055176,-0.034424,1.064697,2.671756,2.312977,-0.603053,1.066682,3.584943,1093,1797,704,1093,1,97.122,14,normal
1780597623.1098328,10.272294900001725,10507,0.056152,-0.00293,1.052002,1.427481,2.389313,-0.587786,1.053504,2.844646,1098,1804,706,1098,0,97.122,1,normal
1780597623.1420069,10.304468999995152,10538,0.040771,-0.057373,1.048828,1.358779,2.244275,-0.847328,1.051187,2.756994,1099,1806,707,1099,0,97.122,5,normal
1780597623.1719656,10.334427900001174,10569,0.056152,-0.014648,1.052978,2.862595,3.053435,-1.0,1.054576,4.303245,1102,1811,709,1102,1,97.122,14,normal
1780597623.202846,10.365308199994615,10600,0.042725,-0.026367,1.05127,0.549618,2.625954,-0.885496,1.052468,2.825211,1106,1816,710,1106,0,97.122,6,normal
1780597623.2330317,10.395493899995927,10631,0.041016,-0.019287,1.069092,1.847328,2.557252,-1.10687,1.070052,3.34325,1108,1820,712,1108,0,97.122,0,normal
1780597623.2652674,10.427729699993506,10661,0.049805,-0.020264,1.055908,2.51145,2.969466,-0.755725,1.057276,3.961847,1112,1826,714,1112,0,97.122,5,normal
1780597623.2957432,10.458205400005681,10693,0.02832,0.017334,1.059082,0.870229,3.396947,-0.900763,1.059602,3.620486,1116,1832,716,1116,0,97.122,0,normal
1780597623.3277423,10.490204600006109,10724,0.027832,-0.030029,1.050049,2.358779,2.625954,-0.442748,1.050847,3.557457,1117,1835,718,1117,1,92.857,17,normal
1780597623.3580716,10.520533899994916,10755,0.049805,-0.007813,1.055908,1.381679,2.053435,-0.557252,1.057111,2.53696,1122,1842,720,1122,0,92.857,0,normal
1780597623.3889458,10.551407999999356,10786,0.032227,-0.060059,1.050781,1.29771,2.091603,-1.167939,1.05299,2.724506,1123,1844,721,1123,0,92.857,5,normal
1780597623.4185257,10.580988000001526,10817,0.055176,-0.020752,1.047852,3.030534,3.29771,-0.412214,1.049508,4.49766,1126,1849,723,1126,1,92.857,14,normal
1780597623.4500067,10.61246889999893,10847,0.037842,0.005371,1.054199,0.618321,2.160305,-1.328244,1.054892,2.610263,1131,1856,725,1131,0,92.857,0,normal
1780597623.4813495,10.643811799993273,10878,0.046875,-0.021973,1.056885,1.961832,2.343511,-1.290076,1.058152,3.317398,1133,1860,727,1133,0,92.857,1,normal
1780597623.512564,10.675026099997922,10909,0.04834,-0.034424,1.063477,2.038168,2.748092,-0.557252,1.065131,3.466506,1136,1864,728,1136,0,92.857,5,normal
1780597623.543889,10.706351300003007,10940,0.068604,-0.010254,1.06665,1.21374,3.015267,-0.916031,1.068903,3.376998,1140,1870,730,1140,0,92.857,0,normal
1780597623.57514,10.737602199995308,10971,0.019043,-0.027344,1.041992,2.534351,2.40458,-0.618321,1.042525,3.547853,1142,1875,733,1142,1,92.857,13,normal
1780597623.6053681,10.767830299999332,11002,0.020752,0.017334,1.038818,1.59542,2.641221,-0.351145,1.03917,3.105594,1147,1882,735,1147,0,107.914,1,normal
1780597623.6375928,10.800054999999702,11034,0.0354,-0.053955,1.048584,1.396947,2.290076,-0.717557,1.050568,2.776832,1149,1886,737,1149,0,107.914,0,normal
1780597623.667105,10.829567099994165,11065,0.060547,-0.019775,1.0625,3.160305,2.885496,-0.442748,1.064408,4.302284,1152,1891,739,1152,1,107.914,13,normal
1780597623.6986053,10.861067599995295,11095,0.047607,-0.024658,1.053223,0.70229,2.931298,-0.908397,1.054586,3.148158,1157,1898,741,1157,0,107.914,1,normal
1780597623.7346168,10.897078900001361,11126,0.043701,-0.017334,1.0625,1.839695,2.625954,-0.687023,1.06354,3.279041,1159,1902,743,1159,1,107.914,0,normal
1780597623.7658985,10.92836069999612,11163,0.024902,-0.02002,1.050293,0.198473,3.229008,-0.885496,1.050779,3.3541,1165,1910,745,1165,0,107.914,0,normal
1780597623.7961674,10.958629700005986,11194,0.010986,-0.01416,1.059082,1.70229,2.458015,-0.793893,1.059234,3.093525,1167,1914,747,1167,0,107.914,0,normal
1780597623.8281586,10.990620900003705,11224,0.025391,-0.022217,1.050293,2.091603,3.129771,-0.664122,1.050835,3.822477,1170,1920,750,1170,0,107.914,6,normal
1780597623.8579934,11.020455699996091,11256,0.046387,-0.004395,1.063232,0.717557,3.549618,-0.48855,1.064253,3.654225,1174,1926,752,1174,0,106.299,0,normal
1780597623.889623,11.052085100003751,11287,0.040527,-0.033203,1.043945,2.343511,2.175573,-0.870229,1.045259,3.313979,1176,1931,755,1176,1,106.299,14,normal
1780597623.9206848,11.083147099998314,11318,0.03418,-0.001465,1.052734,1.366412,2.007634,-0.938931,1.05329,2.603702,1181,1938,757,1181,0,106.299,0,normal
1780597623.9524376,11.114899899999727,11349,0.018311,-0.046875,1.050293,1.465649,2.061069,-0.816794,1.051498,2.657684,1183,1942,759,1183,0,106.299,0,normal
1780597623.9828787,11.145340999995824,11380,0.036377,-0.016113,1.047119,2.992366,3.419847,-0.320611,1.047875,4.55548,1186,1947,761,1186,1,106.299,14,normal
1780597624.01372,11.176182199997129,11411,0.019775,-0.016602,1.052002,0.366412,2.427481,-0.908397,1.052319,2.617653,1191,1954,763,1191,0,106.299,0,normal
1780597624.045514,11.20797639999364,11442,0.017578,-0.012695,1.049072,2.068702,3.175573,-0.557252,1.049296,3.830708,1193,1958,765,1193,0,106.299,0,normal
1780597624.0756307,11.23809290000645,11473,0.053223,-0.043457,1.051758,1.70229,2.656489,-1.038168,1.054,3.321523,1198,1964,766,1198,0,106.299,5,normal
1780597624.105972,11.268434400000842,11504,0.047607,-0.006592,1.062988,1.0,3.496183,-0.694656,1.064074,3.70214,1202,1970,768,1202,0,106.299,0,normal
1780597624.1375985,11.300060699999449,11534,0.037842,-0.036133,1.046387,2.358779,2.450382,-0.603053,1.047694,3.454256,1204,1975,771,1204,1,107.914,13,normal
1780597624.167543,11.330005199997686,11565,0.050537,0.009766,1.056152,1.419847,2.29771,-0.770992,1.057406,2.80889,1209,1982,773,1209,0,107.914,1,normal
1780597624.1990337,11.361495999997715,11595,0.034912,-0.017822,1.066406,1.114504,3.251908,-0.740458,1.067126,3.516434,1211,1986,775,1211,0,107.914,0,normal
1780597624.2281368,11.390598900004989,11626,0.029785,-0.056152,1.036377,2.541985,2.534351,-1.068702,1.038324,3.74523,1213,1991,778,1213,1,107.914,13,normal
1780597624.25943,11.421892200000002,11657,0.054199,-0.010986,1.055908,0.801527,2.732824,-0.984733,1.057355,3.013382,1218,1998,780,1218,0,107.914,1,normal
1780597624.2912366,11.453698800003622,11688,0.05249,-0.033447,1.054199,1.946565,2.0,-1.022901,1.056035,2.972447,1220,2002,782,1220,0,107.914,0,normal
1780597624.3213198,11.48378209999646,11718,0.04834,-0.006104,1.047852,3.21374,3.328244,-0.709924,1.048984,4.68074,1224,2008,784,1224,0,107.914,6,normal
1780597624.3503954,11.512857699999586,11749,0.03125,-0.009277,1.045898,0.412214,2.549618,-1.015267,1.046406,2.775111,1228,2014,786,1228,0,107.914,1,normal
1780597624.381719,11.54418139999325,11779,0.044922,-0.037842,1.051025,2.114504,2.29771,-1.274809,1.052665,3.372794,1230,2018,788,1230,0,107.914,0,normal
1780597624.4140365,11.57649870000023,11810,0.052002,-0.044922,1.050293,2.045802,3.328244,-0.541985,1.052538,3.944143,1234,2024,790,1234,0,108.696,6,normal
1780597624.4450634,11.607525700004771,11842,0.044189,-0.011963,1.061768,1.312977,3.366412,-1.015267,1.062754,3.75332,1238,2030,792,1238,0,108.696,1,normal
1780597624.476709,11.639171100003296,11873,0.027832,-0.032471,1.049561,1.839695,2.458015,-0.80916,1.050432,3.175068,1240,2035,795,1240,1,108.696,14,normal
1780597624.5064628,11.668925000005402,11904,0.032227,0.002441,1.05249,1.122137,2.274809,-1.099237,1.052986,2.764466,1245,2042,797,1245,0,108.696,0,normal
1780597624.5379484,11.7004106999957,11935,0.034668,-0.066895,1.043213,1.770992,2.29771,-0.694656,1.04593,2.983024,1247,2046,799,1247,0,108.696,1,normal
1780597624.5690665,11.73152869999467,11966,0.050537,-0.001465,1.053711,2.938931,2.80916,-0.450382,1.054923,4.090421,1251,2052,801,1251,0,108.696,5,normal
1780597624.6003199,11.762782100006007,11997,0.053711,-0.016357,1.056396,0.664122,2.977099,-1.08397,1.057887,3.237154,1255,2058,803,1255,0,108.696,0,normal
1780597624.6318932,11.794355399993947,12028,0.054932,-0.037598,1.051758,2.458015,2.687023,-0.572519,1.053862,3.686422,1257,2063,806,1257,1,108.696,13,normal
1780597624.662435,11.824897200000123,12059,0.0354,-0.044922,1.041016,1.480916,2.312977,-0.938931,1.042586,2.90251,1262,2070,808,1262,0,108.696,1,normal
1780597624.6936476,11.856109899992589,12090,0.036377,-0.01709,1.068115,1.183206,3.664122,-0.419847,1.068871,3.873247,1264,2074,810,1264,0,107.143,0,normal
1780597624.7246346,11.887096899998141,12121,0.053711,-0.045654,1.044922,2.358779,2.687023,-0.847328,1.047297,3.674492,1266,2079,813,1266,1,107.143,13,normal
1780597624.7546604,11.917122700004256,12152,0.045654,0.000244,1.053223,0.954198,3.0,-0.549618,1.054212,3.195712,1271,2086,815,1271,0,107.143,1,normal
1780597624.7851405,11.94760280000628,12182,0.017822,-0.042969,1.046631,1.137405,2.343511,-1.10687,1.047664,2.830353,1273,2090,817,1273,0,107.143,0,normal
1780597624.8172908,11.979753099993104,12213,0.036377,-0.016846,1.051514,3.244275,3.656489,-0.358779,1.052278,4.901424,1277,2096,819,1277,0,107.143,6,normal
1780597624.847391,12.00985309999669,12244,0.053223,-0.022705,1.050293,0.358779,3.152672,-1.030534,1.051886,3.336175,1281,2102,821,1281,0,107.143,1,normal
1780597624.8783717,12.040833899998688,12275,0.048828,-0.041748,1.066894,2.396947,2.59542,-0.48855,1.068827,3.566544,1283,2107,824,1283,1,107.143,14,normal
1780597624.9095213,12.071983600006206,12306,0.054199,-0.046631,1.057617,1.519084,2.580153,-1.10687,1.060031,3.192172,1287,2112,825,1287,1,107.143,6,normal
1780597624.93963,12.102092300003278,12337,0.056885,-0.009277,1.07251,1.290076,3.419847,-0.900763,1.074057,3.764442,1291,2118,827,1291,0,107.143,1,normal
1780597624.9701288,12.132591000001412,12368,0.035645,-0.061279,1.054199,2.083969,2.59542,-0.564886,1.05658,3.376126,1293,2123,830,1293,1,104.317,14,normal
1780597625.0017414,12.164203599997563,12399,0.023682,0.0,1.053223,1.030534,2.549618,-0.480916,1.053489,2.791744,1298,2130,832,1298,0,104.317,0,normal
1780597625.031669,12.194131199998083,12429,0.047363,-0.059814,1.058106,1.122137,2.664122,-0.923664,1.060852,3.034781,1300,2134,834,1300,0,104.317,1,normal
1780597625.0625646,12.225026800006162,12460,0.036865,-0.005859,1.044189,3.053435,3.083969,-0.503817,1.044856,4.369,1303,2139,836,1303,1,104.317,14,normal
1780597625.0947073,12.257169599994086,12491,0.024414,-0.019287,1.048584,0.603053,2.954198,-1.175572,1.049045,3.236191,1308,2146,838,1308,0,104.317,0,normal
1780597625.1408367,12.303298900005757,12522,0.017822,-0.036133,1.044678,1.816794,2.824427,-0.732824,1.045454,3.437319,1310,2150,840,1310,0,104.317,1,normal
1780597625.1568718,12.31933410000056,12553,0.021484,-0.045166,1.054199,1.526718,2.549618,-0.541985,1.055385,3.020789,1315,2156,841,1315,0,104.317,5,normal
1780597625.1870942,12.349556500004837,12584,0.049072,-0.021973,1.063965,1.068702,3.480916,-0.80916,1.065322,3.7301,1319,2162,843,1319,0,104.317,0,normal
1780597625.2183976,12.380859900003998,12615,0.038086,-0.037109,1.050537,2.480916,2.656489,-0.587786,1.051882,3.682033,1321,2167,846,1321,1,104.317,13,normal
1780597625.249409,12.411871200005407,12646,0.048096,-0.010986,1.046875,1.21374,1.923664,-0.80916,1.048037,2.414206,1326,2174,848,1326,0,118.705,1,normal
1780597625.2796304,12.44209260000207,12677,0.045166,-0.060547,1.05249,1.312977,1.961832,-1.21374,1.055197,2.654404,1328,2178,850,1328,0,118.705,0,normal
1780597625.3105204,12.472982599996612,12708,0.04126,0.008545,1.052246,3.038168,3.419847,-0.671756,1.053089,4.623535,1331,2183,852,1331,1,118.705,13,normal
1780597625.342957,12.505419299995992,12739,0.026367,-0.011719,1.043701,0.389313,2.229008,-0.847328,1.0441,2.416196,1336,2190,854,1336,0,118.705,1,normal
1780597625.3729706,12.535432699994999,12770,0.027832,-0.045166,1.05542,2.038168,2.763359,-0.801527,1.056752,3.526007,1338,2194,856,1338,1,118.705,0,normal
1780597625.405412,12.567874100001063,12801,0.054932,-0.059326,1.050781,1.465649,2.671756,-0.816794,1.053887,3.154926,1343,2201,858,1343,1,118.705,3,normal
1780597625.4353395,12.597801700001583,12832,0.059082,-0.015869,1.064941,1.526718,3.801527,-1.045802,1.066697,4.228022,1346,2206,860,1346,0,118.705,1,normal
1780597625.4673967,12.629858899992541,12864,0.037598,-0.049805,1.05542,2.549618,3.351145,-1.030534,1.057263,4.335058,1348,2211,863,1348,1,118.705,14,normal
1780597625.4977632,12.660225400002673,12896,0.031006,-0.030518,1.057129,0.320611,2.610687,-1.0,1.058024,2.813979,1353,2218,865,1353,0,108.0,0,normal
1780597625.5292528,12.691715099994326,12926,0.006836,-0.050781,1.049316,1.847328,1.519084,-0.732824,1.050567,2.501453,1355,2222,867,1355,0,108.0,0,normal
1780597625.5592806,12.721742900001118,12956,0.039551,-0.001709,1.051758,3.580153,3.267176,-0.679389,1.052502,4.894232,1359,2228,869,1359,0,108.0,5,normal
1780597625.5894647,12.751926800003275,12987,0.03125,-0.018555,1.057617,-0.038168,3.152672,-1.145038,1.058242,3.354386,1363,2234,871,1363,0,108.0,0,normal
1780597625.6199594,12.782421500000055,13017,0.037354,-0.02417,1.060059,2.061069,2.320611,-0.862595,1.060992,3.221383,1365,2238,873,1365,0,108.0,0,normal
1780597625.650597,12.813059299995075,13048,0.041992,-0.026367,1.055908,1.862595,2.732824,-0.877863,1.057072,3.42173,1370,2244,874,1370,0,108.0,6,normal
1780597625.6813176,12.843779899994843,13079,0.041504,-0.004639,1.051514,0.900763,3.435115,-1.007634,1.052343,3.691438,1374,2250,876,1374,0,108.0,0,normal
1780597625.7137008,12.8761630999943,13110,0.031982,-0.031006,1.032471,2.358779,2.664122,-0.89313,1.033431,3.66866,1376,2255,879,1376,1,108.0,14,normal
1780597625.74471,12.907172299994272,13141,0.026367,0.015137,1.049805,1.48855,1.923664,-0.625954,1.050245,2.51159,1381,2262,881,1381,0,108.0,0,normal
1780597625.776128,12.938590199992177,13172,0.041748,-0.057861,1.049805,1.366412,2.419847,-0.961832,1.052227,2.940725,1383,2266,883,1383,0,108.696,1,normal
1780597625.8070853,12.969547600005171,13203,0.057129,-0.028076,1.053467,2.755725,3.10687,-0.541985,1.055388,4.188127,1386,2271,885,1386,1,108.696,14,normal
1780597625.837897,13.000359300000127,13234,0.041748,-0.02832,1.050293,0.480916,2.541985,-1.122137,1.051504,2.819957,1391,2278,887,1391,0,108.696,0,normal
1780597625.8684626,13.030924899998354,13265,0.033447,-0.025391,1.05542,2.335878,2.167939,-0.992366,1.056255,3.337825,1393,2282,889,1393,0,108.696,0,normal
1780597625.8993378,13.061799999995856,13296,0.029541,-0.046631,1.040772,1.618321,2.343511,-0.709924,1.042234,2.935132,1398,2288,890,1398,0,108.696,5,normal
1780597625.930873,13.093335099998512,13327,0.03833,-0.013916,1.059814,1.320611,3.748092,-0.396947,1.060599,3.993716,1402,2294,892,1402,0,108.696,0,normal
1780597625.9618137,13.124275900001521,13358,0.025879,-0.029297,1.050781,2.412214,2.358779,-0.938931,1.051508,3.502028,1404,2299,895,1404,1,108.696,13,normal
1780597625.9912558,13.153718100002152,13389,0.057617,0.00415,1.058594,1.290076,2.755725,-0.343511,1.060169,3.062077,1409,2306,897,1409,0,108.696,1,normal
1780597626.0233052,13.185767400005716,13420,0.040039,-0.055664,1.062744,1.465649,2.21374,-0.954198,1.064954,2.821217,1411,2310,899,1411,0,108.696,0,normal
1780597626.05352,13.21598229999654,13451,0.051025,-0.006104,1.049316,3.320611,3.351145,-0.603053,1.050574,4.75608,1415,2316,901,1415,0,114.695,6,normal
1780597626.0845768,13.247038999994402,13482,0.046631,-0.021973,1.054932,0.160305,2.679389,-1.19084,1.05619,2.936482,1419,2322,903,1419,0,114.695,1,normal
1780597626.1162868,13.27874900000461,13513,0.029297,-0.034668,1.055176,2.206107,2.610687,-0.694656,1.056152,3.487856,1421,2327,906,1421,1,114.695,14,normal
1780597626.1488392,13.31130149999808,13545,0.038818,-0.016113,1.05542,1.725191,2.519084,-0.526718,1.056256,3.098306,1426,2334,908,1426,0,114.695,0,normal
1780597626.1788423,13.341304500005208,13576,0.052002,-0.023193,1.074219,0.961832,2.282443,-0.89313,1.075727,2.632935,1428,2338,910,1428,0,114.695,1,normal
1780597626.2108319,13.373294100005296,13607,0.041748,-0.022461,1.049072,2.832061,2.709924,-0.793893,1.050143,3.999315,1430,2343,913,1430,1,114.695,14,normal
1780597626.2405665,13.403028700005962,13638,0.030029,-0.017578,1.048584,0.412214,3.229008,-0.587786,1.049161,3.307855,1435,2350,915,1435,0,114.695,0,normal
1780597626.272654,13.435116199994809,13669,0.020996,-0.016602,1.053467,2.198473,2.21374,-1.137405,1.053807,3.320786,1437,2354,917,1437,0,114.695,1,normal
1780597626.304362,13.46682420000434,13700,0.040771,-0.001709,1.046143,2.061069,2.748092,-0.59542,1.046938,3.486336,1441,2360,919,1441,0,114.695,5,normal
1780597626.33493,13.497392200006288,13731,0.070557,0.015137,1.062012,1.091603,3.419847,-1.022901,1.06446,3.732731,1445,2366,921,1445,0,107.143,0,normal
1780597626.3659832,13.528445599993574,13762,0.056396,-0.044678,1.059082,2.328244,2.725191,-1.022901,1.061523,3.727427,1447,2371,924,1447,1,107.143,13,normal
1780597626.3957264,13.558188700000755,13793,0.04541,0.001221,1.044922,1.137405,2.450382,-0.70229,1.045909,2.791285,1452,2378,926,1452,0,107.143,0,normal
1780597626.4268215,13.589283699999214,13824,0.054688,-0.032959,1.05957,1.160305,2.732824,-1.21374,1.061492,3.20746,1454,2382,928,1454,0,107.143,0,normal
1780597626.4586635,13.6211256999959,13855,0.043945,-0.020264,1.048096,2.587786,3.389313,-0.839695,1.049212,4.346167,1457,2387,930,1457,1,107.143,13,normal
1780597626.48887,13.651332199995522,13886,0.016602,-0.017822,1.046875,0.610687,2.167939,-1.0,1.047158,2.464325,1462,2394,932,1462,0,107.143,1,normal
1780597626.5200303,13.682492499996442,13917,0.023926,-0.025879,1.048828,1.961832,2.167939,-0.877863,1.04942,3.052767,1464,2398,934,1464,0,107.143,0,normal
1780597626.5524518,13.714913999996497,13948,0.044189,-0.056885,1.04541,1.954198,2.580153,-0.564886,1.047889,3.285601,1468,2404,936,1468,0,107.143,6,normal
1780597626.5817697,13.744231999997282,13979,0.067383,-0.001221,1.0625,0.770992,2.938931,-0.832061,1.064635,3.15025,1472,2410,938,1472,0,107.143,1,normal
1780597626.612641,13.775103299994953,14009,0.044189,-0.028809,1.051025,2.580153,2.358779,-0.587786,1.052348,3.544928,1474,2415,941,1474,1,104.317,14,normal
1780597626.64499,13.80745229999593,14041,0.036865,0.004395,1.050537,1.221374,2.450382,-0.51145,1.051193,2.785266,1479,2422,943,1479,0,104.317,1,normal
1780597626.67628,13.83874229999492,14072,0.016602,-0.055664,1.048096,1.152672,2.320611,-0.587786,1.049704,2.656949,1481,2426,945,1481,0,104.317,1,normal
1780597626.7060246,13.868486799998209,14104,0.061035,0.0,1.044678,3.076336,3.580153,-0.549618,1.046459,4.752201,1485,2432,947,1485,0,104.317,5,normal
1780597626.7388115,13.901273800001945,14135,0.065674,-0.026855,1.053955,0.51145,3.351145,-0.931298,1.056341,3.515547,1489,2438,949,1489,0,104.317,0,normal
1780597626.769193,13.931655099993804,14166,0.050781,-0.042969,1.060303,2.541985,2.633588,-0.877863,1.062387,3.764056,1491,2443,952,1491,1,104.317,13,normal
1780597626.801161,13.963623200004804,14197,0.007813,-0.026123,1.050293,1.549618,2.137405,-0.633588,1.050647,2.715004,1496,2450,954,1496,0,104.317,1,normal
1780597626.8322155,13.994677800001227,14228,0.019287,-0.025635,1.056152,1.061069,3.305344,-0.725191,1.056639,3.546416,1498,2454,956,1498,0,104.317,0,normal
1780597626.8621185,14.024580600002082,14259,0.026367,-0.05835,1.049561,2.152672,2.435115,-0.870229,1.051512,3.364681,1500,2459,959,1500,1,104.0,13,normal
1780597626.8934572,14.055919399994309,14290,0.045898,-0.02124,1.055908,0.740458,2.038168,-0.89313,1.057119,2.345226,1505,2466,961,1505,0,104.0,1,normal
1780597626.9245296,14.086991899996065,14321,0.044434,-0.043213,1.057861,1.725191,1.732824,-0.59542,1.059675,2.516642,1507,2470,963,1507,0,104.0,0,normal
1780597626.954702,14.117164099996444,14352,0.053955,0.004395,1.05957,2.564885,3.267176,-0.694656,1.060952,4.211368,1511,2476,965,1511,0,104.0,6,normal
1780597626.9865463,14.149008599997615,14383,0.046875,-0.026611,1.056885,0.824427,3.251908,-0.801527,1.058258,3.449208,1515,2482,967,1515,0,104.0,1,normal
1780597627.0172682,14.17973040000652,14414,0.041992,-0.032715,1.053467,2.641221,2.557252,-0.366412,1.054811,3.69457,1517,2487,970,1517,1,104.0,14,normal
1780597627.0475194,14.209981599997263,14445,0.019287,-0.002686,1.050781,1.679389,2.496183,-0.549618,1.050962,3.058326,1522,2494,972,1522,0,104.0,0,normal
1780597627.079334,14.241796300004353,14476,0.026123,-0.014893,1.062256,1.068702,3.137405,-1.152672,1.062681,3.509143,1524,2498,974,1524,0,104.0,1,normal
1780597627.1102214,14.272683599992888,14507,0.040771,-0.064697,1.041748,2.603053,2.908397,-0.679389,1.044551,3.961846,1526,2503,977,1526,1,104.0,14,normal
1780597627.1409748,14.30343709999579,14538,0.058838,-0.026367,1.055664,0.51145,3.198473,-0.984733,1.057631,3.385486,1531,2510,979,1531,0,111.111,0,normal
1780597627.1724346,14.3348968999926,14569,0.033936,-0.018066,1.055664,1.954198,1.793893,-1.312977,1.056364,2.959874,1533,2514,981,1533,0,111.111,1,normal
1780597627.2030697,14.365531899995403,14600,0.058105,-0.007568,1.067383,2.167939,3.167939,-0.816794,1.06899,3.924659,1536,2520,984,1536,0,111.111,6,normal
1780597627.2342844,14.396746600003098,14630,0.058838,-0.019531,1.053223,0.725191,3.236641,-0.923664,1.055046,3.443095,1540,2526,986,1540,0,111.111,0,normal
1780597627.265282,14.427744200002053,14662,0.032715,-0.038574,1.042725,2.465649,2.519084,-0.503817,1.043951,3.560764,1542,2531,989,1542,1,111.111,14,normal
1780597627.2967093,14.459171499998774,14693,0.019287,0.009766,1.046143,1.465649,2.229008,-0.396947,1.046366,2.697066,1547,2538,991,1547,0,111.111,1,normal
1780597627.3278186,14.490280900005018,14724,0.01709,-0.051758,1.053467,0.671756,2.549618,-0.763359,1.054876,2.744909,1549,2542,993,1549,0,111.111,0,normal
1780597627.3580966,14.520558899996104,14755,0.059814,-0.021729,1.044189,2.503817,2.931298,-0.664122,1.046127,3.911862,1552,2547,995,1552,1,111.111,13,normal
1780597627.388834,14.551296299992828,14786,0.046875,-0.030273,1.05249,0.236641,2.221374,-1.282443,1.053968,2.575881,1557,2554,997,1557,0,111.111,1,normal
1780597627.4189966,14.581458899992867,14817,0.030273,-0.017822,1.050049,1.938931,2.198473,-1.0,1.050636,3.097215,1559,2558,999,1559,0,100.358,0,normal
1780597627.4520233,14.614485600002808,14848,0.040039,-0.03833,1.052002,1.801527,3.114504,-0.442748,1.053461,3.625142,1563,2564,1001,1563,0,100.358,6,normal
1780597627.4826028,14.645065000004251,14879,0.056396,-0.008789,1.05957,0.969466,3.885496,-0.801527,1.061106,4.08404,1567,2570,1003,1567,0,100.358,1,normal
1780597627.5130873,14.675549399995361,14910,0.032471,-0.026123,1.037109,2.625954,2.374046,-0.641221,1.037946,3.597623,1569,2575,1006,1569,1,100.358,14,normal
1780597627.5439568,14.7064190999954,14941,0.04248,0.022217,1.043213,1.396947,2.580153,-0.496183,1.044314,2.97571,1574,2582,1008,1574,0,100.358,0,normal
1780597627.5758977,14.738360000003013,14973,0.053223,-0.062256,1.042969,1.366412,2.320611,-0.80916,1.04618,2.811949,1576,2586,1010,1576,0,100.358,1,normal
1780597627.6076665,14.770128799995291,15004,0.043213,0.004395,1.058838,3.045802,3.022901,-0.519084,1.059728,4.322532,1580,2592,1012,1580,0,100.358,5,normal
1780597627.6376624,14.800124700006563,15035,0.036621,-0.03125,1.046631,0.450382,3.061069,-1.099237,1.047738,3.28349,1584,2598,1014,1584,0,100.358,0,normal
1780597627.6699982,14.83246049999434,15066,0.039795,-0.045166,1.052246,2.259542,2.801527,-0.770992,1.053966,3.68083,1586,2603,1017,1586,1,100.358,14,normal
1780597627.7008212,14.86328340000182,15097,0.025391,-0.044678,1.044189,1.48855,2.259542,-0.938931,1.045453,2.864071,1590,2608,1018,1590,0,110.714,5,normal
1780597627.7323186,14.894780899994657,15128,0.029785,-0.030273,1.057617,1.129771,2.114504,-0.877863,1.05847,2.553067,1592,2612,1020,1592,0,110.714,0,normal
1780597627.7630932,14.925555399997393,15159,0.049561,-0.062012,1.048828,2.526718,2.343511,-1.183206,1.051828,3.643669,1594,2617,1023,1594,1,110.714,14,normal
1780597627.7924097,14.95487200000207,15190,0.050537,-0.002441,1.062256,0.877863,2.229008,-0.839695,1.06346,2.538544,1599,2624,1025,1599,0,110.714,0,normal
1780597627.8241608,14.98662310000509,15220,0.037354,-0.073242,1.055664,1.259542,2.045802,-1.015267,1.058861,2.608164,1600,2626,1026,1600,0,110.714,5,normal
1780597627.8537714,15.016233799993643,15251,0.040527,0.008545,1.050537,3.335878,3.389313,-0.740458,1.051353,4.812879,1604,2632,1028,1604,0,110.714,6,normal
1780597627.8842847,15.046747000000323,15282,0.029541,-0.00415,1.04541,0.641221,2.801527,-0.778626,1.045836,2.977579,1607,2636,1029,1607,0,110.714,5,normal
1780597627.9174247,15.079886999999871,15313,0.030518,-0.037109,1.05957,2.251908,2.687023,-0.78626,1.060659,3.592964,1609,2641,1032,1609,1,110.714,14,normal
1780597627.947016,15.109478300000774,15344,0.055176,-0.034912,1.050049,1.427481,2.343511,-0.740458,1.052077,2.842187,1614,2648,1034,1614,0,110.714,0,normal
1780597627.9778829,15.140345199994044,15375,0.052979,-0.003662,1.057373,1.343511,2.885496,-0.572519,1.058706,3.23402,1616,2652,1036,1616,0,93.525,0,normal
1780597628.0084932,15.170955399997183,15406,0.044678,-0.047607,1.053467,1.900763,2.465649,-0.916031,1.055488,3.245218,1617,2655,1038,1617,1,93.525,17,normal
1780597628.0398374,15.202299500000663,15437,0.056396,0.002441,1.050049,1.389313,2.564885,-0.778626,1.051565,3.01912,1622,2662,1040,1622,0,93.525,0,normal
1780597628.0684807,15.230943000002299,15467,0.059326,-0.062012,1.052246,1.312977,2.51145,-1.045802,1.05574,3.02076,1623,2664,1041,1623,0,93.525,5,normal
1780597628.1005793,15.263041400001384,15497,0.043701,-0.038818,1.047607,2.709924,2.832061,-0.572519,1.049237,3.961317,1625,2669,1044,1625,1,93.525,13,normal
1780597628.1309218,15.293384100004914,15528,0.046875,-0.017578,1.052734,0.618321,2.740458,-0.954198,1.053924,2.966972,1630,2676,1046,1630,0,93.525,0,normal
1780597628.1629016,15.32536390000314,15559,0.044678,-0.025146,1.053955,2.076336,2.458015,-0.763359,1.055201,3.306921,1632,2680,1048,1632,0,93.525,0,normal
1780597628.193563,15.356025100001716,15590,0.040039,-0.038574,1.057617,2.412214,2.793893,-0.847328,1.059078,3.78716,1635,2684,1049,1635,0,93.525,6,normal
1780597628.224203,15.38666540000122,15621,0.056152,0.005615,1.061523,1.045802,3.480916,-0.755725,1.063022,3.712357,1639,2690,1051,1639,0,93.525,1,normal
1780597628.2549176,15.417379799997434,15651,0.050049,-0.032227,1.057129,2.465649,2.541985,-0.51145,1.058804,3.578085,1641,2695,1054,1641,1,90.58,14,normal
1780597628.2857502,15.448212400006014,15683,0.040039,-0.00293,1.054932,1.389313,2.221374,-0.389313,1.055695,2.648822,1646,2702,1056,1646,0,90.58,0,normal
1780597628.3155932,15.478055500003393,15713,0.034424,-0.031738,1.05957,1.122137,2.503817,-0.854962,1.060604,2.873891,1648,2706,1058,1648,0,90.58,0,normal
1780597628.3462377,15.508699800004251,15744,0.043213,-0.0625,1.051758,2.175573,2.755725,-0.625954,1.054499,3.566364,1650,2711,1061,1650,1,90.58,14,normal
1780597628.3755934,15.538055600001826,15774,0.057861,0.005127,1.051025,1.229008,2.40458,-0.503817,1.052629,2.747052,1653,2716,1063,1653,0,90.58,0,normal
1780597628.4076495,15.570111799999722,15804,0.020508,-0.046387,1.050293,0.877863,3.083969,-0.748092,1.051517,3.29259,1655,2720,1065,1655,0,90.58,0,normal
1780597628.4376922,15.600154500003555,15835,0.065918,-0.015869,1.056641,2.824427,3.648855,-1.007634,1.058814,4.723014,1657,2723,1066,1657,1,90.58,16,normal
1780597628.4692461,15.631708300003083,15866,0.065918,-0.031494,1.048096,0.732824,3.251908,-1.045802,1.050639,3.493657,1662,2730,1068,1662,0,90.58,0,normal
1780597628.4995265,15.661988699997892,15897,0.040771,-0.013916,1.058106,2.114504,2.29771,-0.992366,1.058982,3.27649,1664,2734,1070,1664,0,90.58,1,normal
1780597628.5314775,15.693939599994337,15927,0.046631,-0.033936,1.061523,2.045802,3.167939,-0.89313,1.063089,3.875412,1667,2740,1073,1667,0,94.203,5,normal
1780597628.5618725,15.724334600003203,15959,0.037354,-0.012207,1.0625,0.877863,3.267176,-0.824427,1.063226,3.482062,1669,2744,1075,1669,0,94.203,0,normal
1780597628.5923963,15.754858400003286,15989,0.05127,-0.032959,1.062744,2.480916,2.366412,-0.618321,1.06449,3.483844,1671,2749,1078,1671,1,94.203,13,normal
1780597628.6230707,15.785532900001272,16020,0.03125,0.01416,1.057861,1.40458,2.259542,-0.770992,1.058418,2.769982,1676,2756,1080,1676,0,94.203,1,normal
1780597628.6552422,15.817704500004766,16051,0.015137,-0.055908,1.047119,0.961832,2.679389,-0.793893,1.04872,2.955421,1678,2760,1082,1678,0,94.203,0,normal
1780597628.6857646,15.848226799993427,16082,0.05249,-0.036621,1.053711,2.625954,3.305344,-0.954198,1.055653,4.327982,1681,2765,1084,1681,1,94.203,13,normal
1780597628.7153063,15.877768599995761,16113,0.036133,-0.028076,1.051514,0.40458,3.0,-1.0,1.052509,3.188053,1685,2770,1085,1685,0,94.203,5,normal
1780597628.746351,15.908813200003351,16143,0.04248,-0.054199,1.047852,1.442748,2.312977,-1.030534,1.050112,2.914342,1687,2774,1087,1687,0,94.203,0,normal
1780597628.777814,15.940276099994662,16174,0.058838,-0.004395,1.048584,2.076336,3.21374,-0.618321,1.050243,3.875773,1691,2780,1089,1691,0,94.203,6,normal
1780597628.8078003,15.970262500006356,16204,0.019775,-0.013672,1.052734,0.076336,2.984733,-1.21374,1.053009,3.222984,1695,2786,1091,1695,0,101.083,1,normal
1780597628.8387907,16.001252899994142,16235,0.063232,-0.043213,1.061768,2.480916,2.923664,-0.793893,1.064526,3.91574,1697,2791,1094,1697,1,101.083,14,normal
1780597628.8693352,16.031797300005564,16266,0.043701,-0.051025,1.044189,1.366412,2.251908,-0.954198,1.046348,2.801548,1702,2798,1096,1702,0,101.083,0,normal
1780597628.9017587,16.064220999993267,16298,0.031982,-0.031738,1.05249,1.053435,2.465649,-1.19084,1.053454,2.933812,1703,2800,1097,1703,0,101.083,5,normal
1780597628.9328601,16.095322399996803,16330,0.055664,-0.01416,1.05542,3.030534,3.458015,-0.358779,1.056982,4.61202,1706,2805,1099,1706,1,101.083,14,normal
1780597628.9649785,16.127440700001898,16361,0.041748,-0.012695,1.056885,0.641221,2.923664,-1.038168,1.057785,3.168086,1711,2812,1101,1711,0,101.083,0,normal
1780597628.9951012,16.15756350000447,16392,0.036377,-0.047119,1.047363,1.977099,2.251908,-0.89313,1.049054,3.12693,1713,2816,1103,1713,0,101.083,1,normal
1780597629.0278807,16.190342799993232,16423,0.024414,-0.046631,1.049072,1.633588,2.725191,-0.748092,1.050392,3.264187,1718,2822,1104,1718,0,101.083,5,normal
1780597629.0600152,16.222477499992237,16455,0.042969,-0.034912,1.05957,1.267176,3.007634,-1.061069,1.061016,3.431831,1722,2828,1106,1722,0,107.57,0,normal
1780597629.0902965,16.2527587999939,16486,0.060547,-0.057617,1.049805,2.389313,2.564885,-0.961832,1.053127,3.63491,1723,2831,1108,1723,1,107.57,17,normal
1780597629.1223295,16.28479160000279,16518,0.036865,-0.020752,1.052246,0.633588,2.847328,-1.061069,1.053096,3.103962,1728,2838,1110,1728,0,107.57,1,normal
1780597629.152684,16.31514609999431,16549,0.019775,-0.014893,1.056396,1.51145,3.068702,-0.610687,1.056686,3.474817,1730,2842,1112,1730,0,107.57,0,normal
1780597629.1837611,16.346223300002748,16580,0.041016,-0.049561,1.058106,1.923664,2.435115,-0.862595,1.060059,3.220922,1735,2848,1113,1735,0,107.57,6,normal
1780597629.214319,16.37678120000055,16611,0.063965,-0.006348,1.063721,0.732824,3.236641,-0.847328,1.065661,3.425032,1739,2854,1115,1739,0,107.57,1,normal
1780597629.2445736,16.40703580000263,16642,0.04248,-0.034424,1.048584,2.679389,2.221374,-0.389313,1.050008,3.50217,1741,2859,1118,1741,1,107.57,14,normal
1780597629.2756526,16.438114899996435,16673,0.012939,0.00293,1.051758,1.335878,2.038168,-0.824427,1.051842,2.572621,1744,2864,1120,1744,0,107.57,1,normal
1780597629.3127952,16.475257500002044,16704,0.017334,-0.062012,1.037598,1.251908,2.389313,-0.847328,1.039594,2.827376,1746,2868,1122,1746,0,107.57,1,normal
1780597629.3444505,16.50691260000167,16741,0.045654,-0.005859,1.050293,1.755725,2.274809,-0.496183,1.051301,2.91608,1752,2876,1124,1752,0,104.895,1,normal
1780597629.3754728,16.537934899999527,16772,0.033936,-0.063232,1.047607,1.198473,2.717557,-0.763359,1.050063,3.066622,1754,2880,1126,1754,0,104.895,0,normal
1780597629.4077873,16.5702495000005,16803,0.056885,-0.018311,1.053467,3.015267,2.854962,-0.862595,1.05516,4.241074,1757,2885,1128,1757,1,104.895,13,normal
1780597629.4372082,16.599670499999775,16834,0.031738,-0.018799,1.042725,0.603053,2.885496,-0.740458,1.043377,3.039414,1761,2890,1129,1761,0,104.895,5,normal
1780597629.4689097,16.631371900002705,16865,0.030762,-0.032227,1.058106,2.396947,3.022901,-0.870229,1.059043,3.954817,1763,2895,1132,1763,1,104.895,14,normal
1780597629.500255,16.662717400002293,16897,0.041992,-0.043213,1.047119,1.748092,2.0,-0.519084,1.048851,2.706524,1768,2902,1134,1768,0,104.895,0,normal
1780597629.5313234,16.693785700001172,16927,0.050049,-0.014404,1.059326,0.916031,3.343511,-0.687023,1.060606,3.534145,1770,2906,1136,1770,0,104.895,1,normal
1780597629.5630858,16.725548100002925,16958,0.050049,-0.04248,1.060791,2.137405,2.458015,-0.778626,1.06282,3.349119,1772,2911,1139,1772,1,104.895,14,normal
1780597629.5923898,16.75485199999821,16989,0.055908,0.00708,1.051025,1.374046,2.572519,-1.030534,1.052535,3.093196,1777,2918,1141,1777,0,104.895,0,normal
1780597629.6250584,16.78752060000261,17020,0.038818,-0.053711,1.05957,1.587786,1.793893,-0.885496,1.061641,2.55406,1779,2922,1143,1779,0,96.774,1,normal
1780597629.6548936,16.81735579999804,17051,0.053955,0.006592,1.053467,2.740458,3.839695,-0.625954,1.054868,4.758696,1783,2928,1145,1783,0,96.774,5,normal
1780597629.6861637,16.848625900005572,17082,0.027588,-0.021973,1.061035,0.305344,3.007634,-1.122137,1.061621,3.224638,1787,2934,1147,1787,0,96.774,0,normal
1780597629.7170525,16.87951470000553,17113,0.032471,-0.040039,1.059814,2.427481,2.847328,-1.076336,1.061067,3.893384,1789,2939,1150,1789,1,96.774,14,normal
1780597629.74847,16.91093240000191,17144,0.042725,-0.025391,1.05249,1.335878,2.656489,-0.885496,1.053663,3.102516,1794,2946,1152,1794,0,96.774,1,normal
1780597629.7777586,16.940220799995586,17175,0.031738,-0.010986,1.070557,1.244275,3.053435,-1.015267,1.071083,3.449993,1796,2950,1154,1796,0,96.774,0,normal
1780597629.8090916,16.971553700001095,17206,0.049316,-0.069092,1.053955,2.236641,2.412214,-0.572519,1.057368,3.339029,1798,2955,1157,1798,1,96.774,13,normal
1780597629.841062,17.003524200001266,17237,0.042969,0.00415,1.048584,0.625954,2.51145,-0.862595,1.049472,2.728236,1803,2962,1159,1803,0,96.774,1,normal
1780597629.8721151,17.03457740000158,17268,0.029053,-0.030273,1.056396,1.725191,2.007634,-0.961832,1.057229,2.81638,1805,2966,1161,1805,0,96.774,0,normal
1780597629.9015672,17.064029500004835,17299,0.043701,-0.001953,1.055908,2.610687,4.007634,-0.580153,1.056814,4.818028,1809,2972,1163,1809,0,107.527,6,normal
1780597629.932922,17.095384100000956,17330,0.026855,-0.026855,1.044678,0.351145,3.267176,-0.916031,1.045368,3.411283,1813,2978,1165,1813,0,107.527,1,normal
1780597629.9658852,17.1283473999938,17361,0.053467,-0.038086,1.05249,2.229008,2.832061,-0.755725,1.054535,3.682413,1815,2983,1168,1815,1,107.527,14,normal
1780597629.9937723,17.15623439999763,17392,0.051514,-0.006836,1.049805,1.778626,2.061069,-0.801527,1.05109,2.83795,1820,2990,1170,1820,0,107.527,1,normal
1780597630.0257893,17.18825150000339,17422,0.03125,-0.012207,1.057373,0.938931,3.557252,-0.51145,1.057905,3.71446,1822,2994,1172,1822,0,107.527,1,normal
1780597630.055946,17.21840830000292,17452,0.047363,-0.040039,1.057129,2.603053,2.175573,-0.465649,1.058947,3.4243,1824,2999,1175,1824,1,107.527,14,normal
1780597630.0879908,17.2504528999998,17484,0.05542,0.002441,1.051025,1.389313,2.633588,-0.78626,1.052488,3.07964,1829,3006,1177,1829,0,107.527,0,normal
1780597630.1182978,17.28076009999495,17515,0.051025,-0.063721,1.043457,1.122137,2.59542,-0.564886,1.046645,2.883486,1831,3010,1179,1831,0,107.527,1,normal
1780597630.1485221,17.310984399999143,17545,0.032471,-0.008545,1.050049,2.610687,3.244275,-0.610687,1.050586,4.208794,1834,3015,1181,1834,1,107.527,14,normal
1780597630.1810253,17.34348759999557,17576,0.050049,-0.026611,1.055908,0.335878,2.954198,-1.030534,1.057429,3.146761,1839,3022,1183,1839,0,108.303,0,normal
1780597630.2101672,17.372629299992695,17607,0.026855,-0.015381,1.058594,1.839695,2.778626,-0.816794,1.059046,3.431092,1841,3026,1185,1841,0,108.303,1,normal
1780597630.2425277,17.40498999999545,17638,0.033936,-0.051514,1.054443,1.671756,2.465649,-0.618321,1.056246,3.042452,1845,3032,1187,1845,0,108.303,5,normal
1780597630.271407,17.433869200001936,17669,0.060547,-0.001953,1.07373,1.198473,2.824427,-0.763359,1.075438,3.161716,1849,3038,1189,1849,0,108.303,0,normal
1780597630.3041656,17.46662789999391,17700,0.031738,-0.034912,1.049805,2.473282,2.351145,-0.503817,1.050864,3.449469,1851,3043,1192,1851,1,108.303,13,normal
1780597630.3342252,17.496687299993937,17731,0.02002,0.00293,1.044189,1.396947,2.274809,-0.580153,1.044385,2.731811,1856,3050,1194,1856,0,108.303,1,normal
1780597630.3656433,17.528105499994126,17762,0.007813,-0.049805,1.046631,1.145038,2.48855,-0.916031,1.047844,2.888443,1858,3054,1196,1858,0,108.303,0,normal
1780597630.3966222,17.55908449999697,17793,0.047363,-0.016846,1.043945,2.832061,3.290076,-0.526718,1.045155,4.37294,1861,3059,1198,1861,1,108.303,13,normal
1780597630.442279,17.604741300005116,17824,0.030518,-0.02417,1.040527,0.259542,2.427481,-1.221374,1.041255,2.729795,1866,3066,1200,1866,0,108.303,1,normal
1780597630.45837,17.62083220000204,17855,0.056641,-0.039307,1.068359,2.40458,2.633588,-0.519084,1.070582,3.603781,1868,3071,1203,1868,1,103.943,14,normal
1780597630.490373,17.6528352000023,17886,0.032227,-0.052734,1.044434,1.603053,2.160305,-1.167939,1.04626,2.932709,1872,3076,1204,1872,1,103.943,6,normal
1780597630.5212045,17.683666800003266,17917,0.038818,-0.015625,1.05957,1.312977,3.053435,-0.832061,1.060396,3.426325,1876,3082,1206,1876,0,103.943,1,normal
1780597630.5523937,17.714855900005205,17948,0.037354,-0.061035,1.036621,2.022901,2.648855,-0.603053,1.039088,3.387068,1878,3087,1209,1878,1,103.943,14,normal
1780597630.581906,17.74436820000119,17979,0.03833,0.002441,1.056152,1.167939,2.900763,-0.671756,1.05685,3.1984,1883,3094,1211,1883,0,103.943,0,normal
1780597630.613448,17.775910099997418,18010,0.030518,-0.047852,1.046631,1.351145,2.206107,-0.839695,1.048168,2.719851,1885,3098,1213,1885,0,103.943,1,normal
1780597630.6437986,17.806260900004418,18041,0.064209,0.003662,1.050049,2.900763,3.816794,-0.435114,1.052016,4.813696,1889,3104,1215,1889,0,103.943,5,normal
1780597630.6748111,17.83727329999965,18072,0.053711,-0.025635,1.052002,0.679389,3.152672,-1.007634,1.053684,3.378792,1893,3110,1217,1893,0,103.943,0,normal
1780597630.7069566,17.869418899994344,18103,0.054199,-0.035889,1.062012,2.679389,2.564885,-0.519084,1.063999,3.745292,1895,3115,1220,1895,1,103.943,13,normal
1780597630.737761,17.900223300006473,18134,0.027588,-0.046875,1.050537,1.160305,2.465649,-0.778626,1.051944,2.834077,1900,3122,1222,1900,0,114.695,1,normal
1780597630.7702365,17.932698699994944,18166,0.031494,-0.056885,1.049561,0.946565,2.519084,-0.961832,1.051573,2.857777,1902,3126,1224,1902,0,114.695,0,normal
1780597630.8014388,17.96390099999553,18197,0.059326,-0.025146,1.05542,2.832061,2.862595,-0.870229,1.057385,4.119748,1905,3131,1226,1905,1,114.695,13,normal
1780597630.8309853,17.99344760000531,18228,0.048584,-0.035889,1.047852,0.625954,2.0,-0.824427,1.049591,2.251999,1910,3138,1228,1910,0,114.695,1,normal
1780597630.8622174,18.02467969999998,18258,0.041504,-0.066406,1.058106,1.610687,1.862595,-1.038168,1.060999,2.672334,1912,3142,1230,1912,0,114.695,0,normal
1780597630.8934193,18.05588159999752,18289,0.043213,-0.022949,1.059326,2.717557,2.625954,-0.641221,1.060455,3.833004,1916,3148,1232,1916,0,114.695,6,normal
1780597630.92401,18.086472199996933,18320,0.051025,-0.01001,1.064697,0.954198,3.007634,-0.732824,1.065966,3.23935,1920,3154,1234,1920,0,114.695,1,normal
1780597630.9548917,18.117353800000274,18351,0.055176,-0.025146,1.070068,2.465649,2.541985,-0.419847,1.071785,3.566144,1922,3159,1237,1922,1,114.695,14,normal
1780597630.987184,18.1496463999938,18382,0.049316,0.011719,1.052246,1.534351,2.290076,-0.70229,1.053466,2.844626,1927,3166,1239,1927,0,114.695,0,normal
1780597631.018183,18.18064520000189,18414,0.030762,-0.052246,1.043213,1.21374,2.679389,-0.89313,1.044973,3.074081,1929,3170,1241,1929,0,103.571,1,normal
1780597631.04973,18.212192299994058,18445,0.040771,-0.011475,1.048828,2.824427,3.160305,-0.778626,1.049683,4.309429,1932,3175,1243,1932,1,103.571,14,normal
1780597631.079733,18.242195099999662,18476,0.043701,-0.026611,1.053955,0.320611,2.29771,-1.129771,1.055196,2.580435,1937,3182,1245,1937,0,103.571,0,normal
1780597631.1133053,18.275767500002985,18507,0.028564,-0.039307,1.049805,1.763359,2.763359,-0.954198,1.050929,3.4141,1939,3186,1247,1939,0,103.571,1,normal
1780597631.1488135,18.311275700005353,18538,0.023926,-0.048096,1.047119,1.351145,2.931298,-0.671756,1.048496,3.29687,1944,3192,1248,1944,0,103.571,5,normal
1780597631.1723404,18.33480260000215,18569,0.035889,-0.010254,1.059326,0.977099,2.923664,-0.80916,1.059984,3.187048,1948,3198,1250,1948,0,103.571,0,normal
1780597631.2027705,18.36523280000256,18600,0.023926,-0.039551,1.044434,2.267176,2.465649,-0.954198,1.045456,3.482816,1950,3203,1253,1950,1,103.571,14,normal
1780597631.2341785,18.39664079999784,18631,0.039551,0.002197,1.05249,1.068702,2.236641,-1.022901,1.053235,2.681607,1955,3210,1255,1955,0,103.571,0,normal
1780597631.2649395,18.427401900000405,18662,0.026855,-0.051514,1.052002,1.259542,1.687023,-1.206107,1.053605,2.426352,1957,3214,1257,1957,0,103.571,0,normal
1780597631.2955787,18.458041000005323,18693,0.037598,-0.007813,1.045166,3.389313,3.022901,-0.419847,1.045871,4.560882,1961,3220,1259,1961,0,114.695,6,normal
1780597631.3273218,18.489784000004875,18724,0.039795,-0.029297,1.049805,-0.045802,2.839695,-1.221374,1.050967,3.091556,1965,3226,1261,1965,0,114.695,1,normal
1780597631.3592663,18.521728499996243,18755,0.051025,-0.036865,1.049805,2.480916,3.053435,-0.618321,1.05169,3.982553,1967,3231,1264,1967,1,114.695,14,normal
1780597631.3895085,18.55197080000653,18786,0.033936,-0.04248,1.047607,1.656489,2.152672,-0.709924,1.049017,2.80748,1972,3238,1266,1972,0,114.695,0,normal
1780597631.4214475,18.583909699998912,18818,0.048828,-0.026855,1.056396,0.877863,2.633588,-1.206107,1.057865,3.026734,1974,3242,1268,1974,0,114.695,0,normal
1780597631.4521408,18.61460299999453,18849,0.034912,-0.022949,1.046387,2.610687,2.656489,-0.778626,1.04722,3.805112,1977,3247,1270,1977,1,114.695,14,normal
1780597631.4833713,18.64583359999233,18880,0.02832,-0.020996,1.043701,0.137405,2.374046,-1.450382,1.044296,2.785423,1982,3254,1272,1982,0,114.695,0,normal
1780597631.5143073,18.676769500001683,18911,0.026123,-0.027832,1.044434,1.549618,2.59542,-0.603053,1.045131,3.082401,1984,3258,1274,1984,0,114.695,0,normal
1780597631.5466638,18.7091259000008,18942,0.048584,-0.013428,1.050781,1.89313,2.977099,-0.549618,1.05199,3.570594,1988,3264,1276,1988,0,114.695,5,normal
1780597631.576175,18.738637200003723,18973,0.066406,0.005859,1.062988,1.038168,3.175573,-1.145038,1.065077,3.531737,1992,3270,1278,1992,0,110.714,0,normal
1780597631.6080441,18.770506500004558,19004,0.016602,-0.031006,1.046387,2.748092,2.335878,-0.534351,1.046978,3.646075,1994,3275,1281,1994,1,110.714,14,normal
1780597631.6399634,18.802425600006245,19036,0.0354,0.004395,1.048096,1.763359,2.374046,-0.694656,1.048702,3.037775,1999,3282,1283,1999,0,110.714,0,normal
1780597631.6713674,18.833829600000172,19067,0.05835,-0.051514,1.042725,1.442748,2.442748,-0.824427,1.045626,2.954356,2001,3286,1285,2001,0,110.714,0,normal
1780597631.7024238,18.86488599999575,19098,0.058838,0.005859,1.056396,3.114504,3.160305,-0.465649,1.05805,4.461446,2005,3292,1287,2005,0,110.714,6,normal
1780597631.7327807,18.895243000006303,19129,0.053467,-0.0271,1.053711,0.51145,2.442748,-0.839695,1.055415,2.63319,2009,3298,1289,2009,0,110.714,0,normal
1780597631.7641478,18.92660999999498,19160,0.060303,-0.045654,1.04834,2.053435,2.770992,-0.450382,1.051065,3.478194,2011,3303,1292,2011,1,110.714,14,normal
1780597631.7945406,18.957002900002408,19191,0.024902,-0.043945,1.042969,1.358779,2.534351,-0.984733,1.044191,3.039558,2016,3310,1294,2016,0,110.714,0,normal
1780597631.827368,18.989830299993628,19223,0.04126,-0.04834,1.051514,0.847328,1.931298,-0.870229,1.053432,2.281485,2018,3314,1296,2018,0,104.0,0,normal
1780597631.857254,19.019716199996765,19254,0.06543,-0.058105,1.05835,2.534351,2.48855,-0.770992,1.061961,3.63459,2020,3319,1299,2020,1,104.0,14,normal
1780597631.887075,19.049537300001248,19284,0.051025,0.002686,1.047852,1.198473,2.503817,-0.679389,1.049097,2.857798,2025,3326,1301,2025,0,104.0,0,normal
1780597631.9187706,19.081232700002147,19314,0.032715,-0.060059,1.057129,1.290076,2.618321,-0.732824,1.059339,3.009474,2027,3330,1303,2027,0,104.0,0,normal
1780597631.9499483,19.112410500005353,19345,0.034424,-0.019531,1.048828,3.007634,3.343511,-0.198473,1.049575,4.501591,2030,3335,1305,2030,1,104.0,13,normal
1780597631.9792662,19.14172850000614,19376,0.040527,-0.028076,1.050537,0.167939,2.40458,-0.89313,1.051693,2.570582,2035,3342,1307,2035,0,104.0,0,normal
1780597632.0121605,19.17462279999745,19406,0.016846,-0.020264,1.05542,2.160305,2.366412,-1.076336,1.055749,3.380136,2037,3346,1309,2037,0,104.0,0,normal
1780597632.042021,19.204483199995593,19437,0.048828,-0.041992,1.05957,1.755725,2.290076,-0.587786,1.061526,2.944913,2041,3352,1311,2041,0,104.0,6,normal
1780597632.0710096,19.233471800005645,19468,0.058105,0.00293,1.057129,0.732824,3.938931,-0.847328,1.058729,4.095141,2045,3358,1313,2045,0,104.0,1,normal
1780597632.1028717,19.265333899995312,19499,0.018066,-0.035156,1.040039,2.48855,2.343511,-0.938931,1.04079,3.544928,2047,3363,1316,2047,1,105.072,14,normal
1780597632.1342847,19.296747000000323,19531,0.045166,0.006836,1.047119,1.343511,2.526718,-0.816794,1.048115,2.975983,2052,3370,1318,2052,0,105.072,0,normal
1780597632.165798,19.328260099995532,19562,0.049072,-0.052979,1.045654,1.473282,2.618321,-0.618321,1.048145,3.067325,2054,3374,1320,2054,0,105.072,1,normal
1780597632.1961129,19.358575000005658,19593,0.05542,-0.003174,1.062012,2.984733,3.251908,-0.496183,1.063462,4.441817,2058,3380,1322,2058,0,105.072,5,normal
1780597632.2282171,19.390679300006013,19624,0.043457,-0.022949,1.057617,0.648855,3.114504,-0.725191,1.058758,3.262982,2062,3386,1324,2062,0,105.072,0,normal
1780597632.2587836,19.421245899997302,19655,0.063965,-0.04248,1.056641,2.366412,3.099237,-0.625954,1.059427,3.949303,2064,3391,1327,2064,1,105.072,14,normal
1780597632.2904665,19.452928900005645,19687,0.033447,-0.007324,1.040527,1.145038,2.137405,-0.717557,1.04109,2.528735,2069,3398,1329,2069,0,105.072,1,normal
1780597632.321139,19.483601400002954,19718,0.023438,-0.031982,1.05249,0.526718,2.664122,-1.419847,1.053237,3.064465,2071,3402,1331,2071,0,105.072,0,normal
1780597632.352972,19.515434200002346,19749,0.046387,-0.022949,1.05542,2.984733,2.458015,-0.687023,1.056688,3.927145,2074,3407,1333,2074,1,108.0,13,normal
1780597632.3834727,19.54593500000192,19780,0.043457,-0.033447,1.049316,0.59542,2.305344,-1.137405,1.050748,2.638716,2079,3414,1335,2079,0,108.0,1,normal
1780597632.414294,19.576756199996453,19811,0.016602,-0.014404,1.049316,1.51145,2.328244,-0.70229,1.049547,2.863288,2081,3418,1337,2081,0,108.0,0,normal
1780597632.4465606,19.609022799995728,19842,0.033447,-0.04541,1.042725,2.030534,2.977099,-0.801527,1.044249,3.691698,2085,3424,1339,2085,0,108.0,6,normal
1780597632.4760592,19.63852140000381,19873,0.062256,0.008789,1.061523,1.038168,4.007634,-0.610687,1.063384,4.184718,2089,3430,1341,2089,0,108.0,1,normal
1780597632.5076683,19.670130600003176,19904,0.021484,-0.031494,1.040283,2.183206,2.351145,-0.412214,1.040982,3.23484,2091,3435,1344,2091,1,108.0,14,normal
1780597632.5379038,19.70036610000534,19935,0.036621,0.008789,1.040527,1.603053,1.992366,-0.748092,1.041209,2.664385,2096,3442,1346,2096,0,108.0,0,normal
1780597632.5695033,19.731965600003605,19966,0.036621,-0.056152,1.061768,1.458015,2.007634,-0.763359,1.063882,2.595981,2098,3446,1348,2098,0,108.0,1,normal
1780597632.601086,19.763548200004152,19997,0.036377,-0.013184,1.039795,3.022901,3.259542,-0.763359,1.040514,4.510572,2100,3449,1349,2100,1,108.0,16,normal
1780597632.631948,19.794410200003767,20028,0.035156,-0.019043,1.056641,0.496183,2.244275,-1.442748,1.057397,2.713759,2105,3456,1351,2105,0,111.111,0,normal
1780597632.6620588,19.82452110000304,20059,0.016357,-0.014893,1.050537,1.923664,2.618321,-0.725191,1.05077,3.328962,2107,3460,1353,2107,0,111.111,1,normal
1780597632.6941826,19.85664490000636,20090,0.028809,-0.048584,1.049072,1.679389,3.320611,-0.328244,1.050592,3.735579,2112,3466,1354,2112,0,111.111,5,normal
1780597632.7239447,19.886406999998144,20121,0.042236,-0.010986,1.066894,0.908397,3.40458,-0.748092,1.067787,3.60222,2114,3470,1356,2114,0,111.111,0,normal
1780597632.7561336,19.9185959000024,20152,0.020752,-0.030029,1.039062,2.068702,2.709924,-1.259542,1.039704,3.63451,2116,3475,1359,2116,1,111.111,13,normal
1780597632.7862082,19.948670500001754,20183,0.036865,0.013672,1.057861,1.396947,1.900763,-0.824427,1.058592,2.498808,2119,3480,1361,2119,0,111.111,0,normal
1780597632.816852,19.979314299998805,20214,0.034912,-0.054443,1.054932,1.396947,2.450382,-1.29771,1.056912,3.104816,2121,3484,1363,2121,0,111.111,0,normal
1780597632.848033,20.010495299997274,20245,0.042725,-0.006348,1.047607,3.19084,3.687023,-0.305344,1.048497,4.885574,2125,3490,1365,2125,0,111.111,6,normal
1780597632.87848,20.04094219999388,20276,0.052002,-0.03125,1.052246,0.129771,3.389313,-0.610687,1.053994,3.446335,2128,3494,1366,2128,0,111.111,5,normal
1780597632.910559,20.073021200005314,20307,0.052002,-0.04248,1.061523,2.312977,3.022901,-0.351145,1.063645,3.822446,2130,3499,1369,2130,1,89.606,14,normal
1780597632.9413667,20.103828999999678,20338,0.046387,-0.048584,1.052002,1.541985,2.656489,-0.755725,1.054144,3.16319,2134,3504,1370,2134,0,89.606,6,normal
1780597632.972428,20.1348902000027,20369,0.046387,-0.003906,1.060303,1.022901,3.381679,-0.679389,1.061324,3.597728,2136,3508,1372,2136,0,89.606,1,normal
1780597633.0031176,20.16557969999849,20400,0.05127,-0.064941,1.049561,1.862595,2.427481,-0.938931,1.052817,3.200549,2138,3513,1375,2138,1,89.606,14,normal
1780597633.033954,20.196416099992348,20431,0.046631,0.00293,1.053223,1.541985,2.137405,-0.70229,1.054258,2.727531,2143,3520,1377,2143,0,89.606,0,normal
1780597633.0656984,20.228160700004082,20462,0.037842,-0.049805,1.045654,1.549618,2.557252,-0.908397,1.047523,3.125066,2144,3522,1378,2144,0,89.606,5,normal
1780597633.0957913,20.2582534999965,20493,0.037598,-0.001709,1.05249,2.671756,3.633588,-0.572519,1.053163,4.546319,2148,3528,1380,2148,0,89.606,5,normal
1780597633.128001,20.290463199999067,20524,0.041748,-0.020996,1.056641,0.541985,3.137405,-0.89313,1.057673,3.306772,2151,3532,1381,2151,0,89.606,6,normal
1780597633.159112,20.321574300003704,20555,0.056396,-0.040283,1.052978,2.503817,2.534351,-0.755725,1.055257,3.641862,2153,3537,1384,2153,1,89.606,13,normal
1780597633.1901639,20.352625999992597,20586,0.049561,-0.052979,1.049072,1.534351,1.687023,-1.198473,1.051578,2.576164,2158,3544,1386,2158,0,100.358,1,normal
1780597633.2221515,20.38461369999277,20618,0.015381,-0.04834,1.042969,0.70229,2.419847,-0.870229,1.044202,2.66574,2160,3548,1388,2160,0,100.358,0,normal
1780597633.2540708,20.41653299999598,20650,0.056885,-0.002441,1.051025,3.496183,3.374046,-0.656489,1.052566,4.902903,2163,3552,1389,2163,0,100.358,6,normal
1780597633.2852757,20.447737900001812,20681,0.046631,-0.01709,1.049805,0.374046,2.251908,-1.236641,1.050979,2.596206,2167,3558,1391,2167,0,100.358,1,normal
1780597633.3166952,20.479157399997348,20712,0.052002,-0.051758,1.058106,2.358779,2.80916,-0.648855,1.060646,3.725082,2168,3561,1393,2168,1,100.358,17,normal
1780597633.3482814,20.510743499995442,20744,0.027344,-0.050049,1.039307,1.503817,2.274809,-0.679389,1.04087,2.810301,2173,3568,1395,2173,0,100.358,0,normal
1780597633.399415,20.56187730000238,20775,0.034424,-0.050293,1.069336,0.839695,2.816794,-0.961832,1.071071,3.092658,2175,3572,1397,2175,0,100.358,1,normal
1780597633.4090075,20.571469799993793,20806,0.06543,-0.057861,1.053223,2.709924,2.679389,-0.755725,1.056838,3.885091,2177,3577,1400,2177,1,100.358,14,normal
1780597633.4405012,20.60296350000135,20837,0.057129,0.009766,1.046143,0.59542,1.564886,-0.89313,1.047747,1.897649,2180,3582,1402,2180,0,87.649,0,normal
1780597633.4706504,20.63311260000046,20868,0.03125,-0.022217,1.063721,1.832061,2.290076,-1.007634,1.064412,3.101004,2182,3586,1404,2182,0,87.649,1,normal
1780597633.5025733,20.665035500001977,20899,0.029053,-0.024902,1.047852,2.206107,3.312977,-0.503817,1.04855,4.012051,2185,3590,1405,2185,0,87.649,5,normal
1780597633.5333412,20.695803499998874,20930,0.046387,0.0,1.04834,0.923664,3.877863,-0.740458,1.049366,4.054535,2189,3596,1407,2189,0,87.649,0,normal
1780597633.5641866,20.726648900003056,20960,0.041992,-0.045654,1.057861,2.282443,2.78626,-0.770992,1.059678,3.68337,2191,3601,1410,2191,1,87.649,14,normal
1780597633.594768,20.757230200004415,20991,0.024414,-0.032227,1.044922,1.480916,1.946565,-0.625954,1.045704,2.524687,2195,3606,1411,2195,0,87.649,5,normal
1780597633.6254308,20.787893000000622,21022,0.038086,-0.013428,1.061768,1.206107,2.923664,-0.839695,1.062535,3.272246,2197,3610,1413,2197,0,87.649,0,normal
1780597633.6558464,20.818308600006276,21053,0.043945,-0.052734,1.051514,2.183206,2.725191,-1.221374,1.053752,3.699298,2199,3615,1416,2199,1,87.649,13,normal
1780597633.6870034,20.84946559999662,21084,0.049316,-0.002686,1.054199,1.091603,2.381679,-0.877863,1.055356,2.763085,2202,3620,1418,2202,0,87.649,1,normal
1780597633.7189345,20.88139680000313,21115,0.053955,-0.036133,1.057861,1.908397,2.564885,-0.832061,1.059852,3.303474,2204,3624,1420,2204,0,86.331,0,normal
1780597633.7488894,20.911351599992486,21146,0.05835,0.007324,1.054932,2.587786,3.40458,-0.519084,1.056569,4.307812,2208,3630,1422,2208,0,86.331,6,normal
1780597633.7798922,20.942354500002693,21176,0.041748,-0.023438,1.041992,0.473282,2.977099,-0.870229,1.043092,3.137581,2211,3634,1423,2211,0,86.331,5,normal
1780597633.8104193,20.9728815999988,21207,0.046387,-0.033936,1.054932,2.251908,2.854962,-0.442748,1.056496,3.663048,2213,3639,1426,2213,1,86.331,14,normal
1780597633.8417745,21.004236699998728,21238,0.039307,-0.042236,1.050049,1.671756,2.412214,-0.564886,1.051633,2.988752,2217,3644,1427,2217,0,86.331,6,normal
1780597633.8721375,21.03459969999676,21269,0.035645,-0.009033,1.063721,1.045802,3.015267,-0.587786,1.064356,3.245155,2219,3648,1429,2219,0,86.331,1,normal
1780597633.904189,21.066651400004048,21300,0.049805,-0.065674,1.039307,2.206107,2.709924,-0.603053,1.04257,3.546022,2221,3653,1432,2221,1,86.331,14,normal
1780597633.934204,21.096666299999924,21331,0.04834,0.001709,1.05127,0.916031,2.259542,-0.900763,1.052382,2.599234,2226,3660,1434,2226,0,86.331,0,normal
1780597633.9656835,21.12814570000046,21362,0.043701,-0.054199,1.047363,1.442748,2.389313,-0.946565,1.049675,2.947257,2227,3662,1435,2227,0,86.331,5,normal
1780597633.9958816,21.158343799994327,21393,0.047852,-0.008057,1.057373,3.076336,2.877863,-0.648855,1.058486,4.26227,2231,3668,1437,2231,0,97.122,5,normal
1780597634.0272815,21.18974380000145,21424,0.045654,-0.026367,1.046631,0.167939,2.984733,-0.687023,1.047958,3.067382,2234,3672,1438,2234,0,97.122,6,normal
1780597634.058353,21.22081509999407,21455,0.054199,-0.043701,1.051025,2.160305,2.679389,-0.80916,1.053329,3.535645,2236,3677,1441,2236,1,97.122,14,normal
1780597634.0898638,21.25232590000087,21486,0.024902,-0.043457,1.049561,1.48855,2.412214,-0.351145,1.050755,2.856196,2242,3684,1442,2242,0,97.122,0,normal
1780597634.1210284,21.28349060000619,21518,0.044678,-0.027832,1.044189,1.328244,2.557252,-0.938931,1.045515,3.030736,2244,3688,1444,2244,0,97.122,0,normal
1780597634.1534185,21.31588069999998,21549,0.058105,-0.018066,1.054443,2.78626,2.969466,-1.320611,1.056198,4.280769,2246,3691,1445,2246,1,97.122,16,normal
1780597634.183762,21.34622429999581,21580,0.044922,-0.027588,1.048096,0.770992,2.541985,-1.152672,1.049421,2.895646,2251,3698,1447,2251,0,97.122,1,normal
1780597634.2145412,21.37700350000523,21611,0.037842,-0.020508,1.048828,1.900763,2.519084,-0.618321,1.049711,3.215744,2252,3700,1448,2252,0,97.122,5,normal
1780597634.2455087,21.407970800006296,21642,0.04248,-0.018555,1.063721,2.244275,2.427481,-0.671756,1.06473,3.373528,2256,3706,1450,2256,0,97.122,6,normal
1780597634.276758,21.439220100000966,21673,0.042725,0.01001,1.056885,1.145038,2.916031,-0.534351,1.057795,3.17803,2260,3712,1452,2260,0,103.571,0,normal
1780597634.3075075,21.469969700003276,21704,0.022461,-0.038086,1.047119,2.19084,2.580153,-0.480916,1.048052,3.418808,2262,3717,1455,2262,1,103.571,14,normal
1780597634.337881,21.500343399995472,21735,0.023682,-0.00293,1.047607,1.381679,2.320611,-0.969466,1.047879,2.869518,2265,3722,1457,2265,0,103.571,0,normal
1780597634.369324,21.531786299994565,21766,0.022949,-0.046631,1.053223,0.778626,2.48855,-0.954198,1.054504,2.776622,2267,3726,1459,2267,0,103.571,1,normal
1780597634.400525,21.562987299999804,21797,0.049561,-0.009521,1.055908,2.946565,2.763359,-1.129771,1.057114,4.194613,2269,3729,1460,2269,1,103.571,16,normal
1780597634.4312506,21.59371289999399,21828,0.049561,-0.036377,1.053467,0.625954,1.977099,-0.923664,1.055259,2.270219,2274,3736,1462,2274,0,103.571,0,normal
1780597634.4622939,21.62475610000547,21859,0.028076,-0.026611,1.063965,1.91603,2.587786,-0.931298,1.064668,3.351884,2276,3740,1464,2276,0,103.571,0,normal
1780597634.4941494,21.65661160000309,21890,0.046631,-0.044189,1.050781,1.954198,2.900763,-0.335878,1.052743,3.513706,2281,3746,1465,2281,0,103.571,5,normal
1780597634.5260828,21.688544999997248,21922,0.054443,-0.023438,1.069336,1.320611,3.320611,-0.969466,1.070977,3.702747,2283,3750,1467,2283,0,103.571,0,normal
1780597634.556727,21.719189099996584,21953,0.049805,-0.050293,1.046387,2.122137,2.732824,-0.969466,1.048778,3.59328,2285,3755,1470,2285,1,89.286,14,normal
1780597634.5871372,21.749599400005536,21984,0.04248,0.001953,1.050781,1.366412,2.709924,-0.70229,1.051641,3.115121,2288,3760,1472,2288,0,89.286,0,normal
1780597634.6193352,21.781797300005564,22015,0.025635,-0.047852,1.054443,1.755725,2.305344,-0.832061,1.05584,3.014881,2290,3764,1474,2290,0,89.286,0,normal
1780597634.6488826,21.811344899993856,22046,0.043945,-0.004639,1.055908,3.198473,3.137405,-0.664122,1.056832,4.529304,2294,3770,1476,2294,0,89.286,6,normal
1780597634.6814294,21.843891700002132,22077,0.023926,-0.024658,1.047852,0.541985,3.015267,-0.755725,1.048415,3.155424,2297,3774,1477,2297,0,89.286,5,normal
1780597634.7111073,21.8735694999923,22108,0.052734,-0.033447,1.058838,2.335878,2.366412,-0.832061,1.060678,3.427617,2299,3779,1480,2299,1,89.286,14,normal
1780597634.7426472,21.90510930000164,22139,0.040771,-0.019287,1.055176,1.374046,2.099237,-0.732824,1.056139,2.613777,2303,3784,1481,2303,0,89.286,6,normal
1780597634.7728863,21.935348400002113,22170,0.035156,-0.015869,1.06665,0.938931,3.083969,-1.0,1.067348,3.375272,2305,3788,1483,2305,0,89.286,1,normal
1780597634.8036768,21.966138999996474,22200,0.064941,-0.073486,1.050537,1.847328,2.473282,-0.801527,1.055105,3.189387,2307,3793,1486,2307,1,89.286,14,normal
1780597634.8342848,21.99674689999665,22231,0.044434,0.004395,1.049072,1.381679,2.587786,-1.0,1.050022,3.099302,2312,3800,1488,2312,0,97.122,0,normal
1780597634.8649144,22.027376600002754,22261,0.03418,-0.05127,1.05957,1.122137,2.152672,-0.717557,1.06136,2.531418,2313,3802,1489,2313,0,97.122,5,normal
1780597634.9019442,22.064406299992697,22293,0.044189,-0.000732,1.053955,3.343511,3.007634,-0.351145,1.054881,4.510902,2317,3808,1491,2317,0,97.122,5,normal
1780597634.9333649,22.095827199998894,22330,0.05542,-0.038574,1.056885,1.59542,2.664122,-1.129771,1.05904,3.304436,2321,3814,1493,2321,0,97.122,0,normal
1780597634.964232,22.126694199992926,22361,0.056885,0.001221,1.054199,2.442748,2.839695,-0.541985,1.055734,3.78479,2325,3820,1495,2325,0,97.122,6,normal
1780597634.9968207,22.159282900000107,22392,0.049561,-0.027832,1.050049,1.053435,2.877863,-1.038168,1.051586,3.235678,2329,3826,1497,2329,0,97.122,1,normal
1780597635.0272071,22.189669400002458,22423,0.02124,-0.033691,1.042969,2.496183,2.244275,-0.564886,1.043729,3.403938,2331,3831,1500,2331,1,97.122,14,normal
1780597635.0578918,22.220354100005352,22455,0.051514,-0.000488,1.056641,1.335878,2.129771,-0.923664,1.057896,2.678367,2334,3836,1502,2334,0,97.122,0,normal
1780597635.0894217,22.251883999997517,22486,0.045898,-0.071045,1.056396,1.175572,2.572519,-0.755725,1.059777,2.927618,2336,3840,1504,2336,0,94.118,1,normal
1780597635.1200104,22.282472599996254,22517,0.036377,-0.002441,1.054688,3.007634,3.038168,-0.664122,1.055317,4.326359,2338,3843,1505,2338,1,94.118,16,normal
1780597635.1512835,22.313745699997526,22548,0.025879,-0.016602,1.043213,0.587786,2.045802,-1.129771,1.043666,2.409809,2343,3850,1507,2343,0,94.118,0,normal
1780597635.1821122,22.344574500006274,22579,0.022461,-0.034668,1.046143,2.061069,2.160305,-1.274809,1.046958,3.246546,2345,3854,1509,2345,0,94.118,1,normal
1780597635.2138667,22.37632900000608,22610,0.031006,-0.03418,1.045166,1.832061,2.763359,-0.732824,1.046184,3.395531,2350,3860,1510,2350,0,94.118,5,normal
1780597635.2447658,22.407227999996394,22641,0.047607,0.010742,1.057373,1.320611,3.51145,-0.618321,1.058499,3.802186,2352,3864,1512,2352,0,94.118,0,normal
1780597635.2751172,22.437579499994172,22672,0.036377,-0.039062,1.045654,2.152672,2.412214,-0.832061,1.047016,3.338428,2354,3869,1515,2354,1,94.118,13,normal
1780597635.3059814,22.468443699995987,22703,0.058594,-0.000977,1.057861,1.473282,2.236641,-0.694656,1.059483,2.766889,2357,3874,1517,2357,0,94.118,1,normal
1780597635.337643,22.500105099999928,22734,0.040283,-0.048584,1.052734,1.137405,2.312977,-1.045802,1.054624,2.781592,2359,3878,1519,2359,0,94.118,0,normal
1780597635.3683465,22.530808700001216,22765,0.058838,-0.013916,1.04834,2.977099,3.137405,-0.519084,1.050082,4.35613,2362,3883,1521,2362,1,93.19,13,normal
1780597635.3993866,22.561848900004406,22796,0.03125,-0.017578,1.051758,0.458015,2.847328,-1.236641,1.052369,3.137888,2366,3888,1522,2366,0,93.19,5,normal
1780597635.4300852,22.592547299995204,22826,0.054199,-0.031494,1.054932,1.816794,3.114504,-0.664122,1.056792,3.666324,2368,3892,1524,2368,0,93.19,0,normal
1780597635.4605021,22.62296449999849,22857,0.031738,-0.049805,1.044678,1.908397,3.10687,-0.496183,1.046346,3.679785,2372,3898,1526,2372,0,93.19,6,normal
1780597635.4912758,22.65373799999361,22888,0.054688,0.000488,1.059326,1.053435,2.885496,-1.076336,1.060737,3.254891,2374,3902,1528,2374,0,93.19,1,normal
1780597635.522806,22.68526810000185,22919,0.017822,-0.03833,1.041016,2.328244,2.458015,-0.748092,1.041873,3.467304,2376,3907,1531,2376,1,93.19,14,normal
1780597635.554587,22.717049200000474,22951,0.057617,-0.003174,1.058594,1.274809,2.427481,-0.633588,1.060165,2.814114,2381,3914,1533,2381,0,93.19,0,normal
1780597635.5852246,22.747686899994733,22982,0.047607,-0.058838,1.054688,1.221374,1.572519,-1.076336,1.0574,2.26342,2382,3916,1534,2382,0,93.19,5,normal
1780597635.617176,22.779638299994986,23013,0.041504,0.013184,1.059326,3.290076,3.725191,-0.801527,1.060221,5.034292,2386,3922,1536,2386,0,93.19,5,normal
1780597635.647269,22.809731300003477,23044,0.02832,-0.017334,1.048584,0.748092,3.229008,-0.877863,1.049109,3.428815,2389,3926,1537,2389,0,96.774,6,normal
1780597635.6777668,22.840228999993997,23075,0.041992,-0.033936,1.053223,2.458015,2.48855,-0.770992,1.054606,3.58178,2391,3931,1540,2391,1,96.774,14,normal
1780597635.7098083,22.872270599997137,23106,0.026123,-0.046631,1.053711,1.389313,2.473282,-0.473282,1.055066,2.875989,2396,3938,1542,2396,0,96.774,0,normal
1780597635.7405877,22.903049999993527,23137,0.044922,-0.017822,1.055664,1.343511,3.442748,-0.618321,1.05677,3.74698,2398,3942,1544,2398,0,96.774,0,normal
1780597635.771215,22.933677199995145,23168,0.056152,-0.053711,1.052734,2.083969,2.419847,-0.671756,1.055598,3.26341,2399,3945,1546,2399,1,96.774,17,normal
1780597635.8021615,22.964623799998662,23199,0.05835,-0.002197,1.052978,1.282443,2.229008,-0.832061,1.054596,2.702862,2404,3952,1548,2404,0,96.774,0,normal
1780597635.8343055,22.996767799995723,23230,0.026611,-0.045166,1.053711,1.572519,2.305344,-0.908397,1.055014,2.934725,2405,3954,1549,2405,0,96.774,5,normal
1780597635.8645978,23.02705999999307,23261,0.041016,0.003418,1.053223,2.908397,3.099237,-0.541985,1.054026,4.284599,2409,3960,1551,2409,0,96.774,5,normal
1780597635.8955312,23.05799339999794,23292,0.032959,-0.022705,1.053223,0.412214,2.885496,-0.610687,1.053983,2.978078,2413,3966,1553,2413,0,96.774,0,normal
1780597635.926631,23.089093300004606,23323,0.029297,-0.032959,1.058838,2.572519,3.099237,-0.877863,1.059756,4.122349,2415,3971,1556,2415,1,93.19,13,normal
1780597635.9586585,23.121120800002245,23354,0.04126,-0.028564,1.053223,1.687023,2.328244,-0.59542,1.054418,2.936204,2418,3976,1558,2418,0,93.19,1,normal
1780597635.989043,23.15150530000392,23386,0.044922,-0.054932,1.053223,1.015267,2.259542,-1.045802,1.05561,2.688866,2420,3980,1560,2420,0,93.19,0,normal
1780597636.0205758,23.183038100003614,23417,0.046631,-0.02832,1.047119,2.679389,3.091603,-0.916031,1.048539,4.192404,2422,3983,1561,2422,1,93.19,16,normal
1780597636.0517967,23.214258799998788,23448,0.049561,-0.031494,1.057861,0.450382,2.885496,-0.755725,1.05949,3.016629,2427,3990,1563,2427,0,93.19,1,normal
1780597636.082978,23.245440200000303,23479,0.039551,-0.024414,1.064941,1.877863,2.343511,-0.732824,1.065955,3.091188,2429,3994,1565,2429,0,93.19,0,normal
1780597636.113229,23.275691200004076,23510,0.047852,-0.037598,1.052246,2.0,2.541985,-0.328244,1.054004,3.251066,2433,4000,1567,2433,0,93.19,6,normal
1780597636.1433923,23.305854599995655,23540,0.029297,-0.023682,1.051758,1.152672,3.603053,-0.832061,1.052432,3.873367,2435,4004,1569,2435,0,93.19,1,normal
1780597636.1758184,23.33828060000087,23571,0.066406,-0.034912,1.05127,2.389313,2.564885,-0.648855,1.053943,3.564894,2437,4009,1572,2437,1,93.19,14,normal
1780597636.205224,23.36768630000006,23602,0.046387,-0.006592,1.056885,1.89313,1.984733,-0.694656,1.057923,2.829426,2441,4014,1573,2441,0,93.19,0,normal
1780597636.2366703,23.399132599995937,23633,0.046143,-0.022949,1.053467,0.923664,2.908397,-1.007634,1.054726,3.213604,2443,4018,1575,2443,0,93.19,1,normal
1780597636.2672796,23.429741800006013,23664,0.073242,-0.070312,1.046143,2.48855,2.954198,-0.778626,1.051058,3.940359,2445,4023,1578,2445,1,93.19,14,normal
1780597636.2984653,23.460927499996615,23695,0.031006,-0.021484,1.038574,0.59542,2.465649,-0.977099,1.039259,2.718211,2449,4028,1579,2449,0,93.19,6,normal
1780597636.3290582,23.49152039999899,23726,0.023438,-0.023193,1.049561,2.160305,2.251908,-1.076336,1.050078,3.300986,2451,4032,1581,2451,0,93.19,1,normal
1780597636.3593206,23.521782800002256,23757,0.040527,-0.009521,1.05542,2.061069,3.0,-0.343511,1.056241,3.655955,2455,4038,1583,2455,0,93.19,5,normal
1780597636.3894224,23.551884600004996,23787,0.032959,-0.006348,1.05127,0.832061,3.0,-0.549618,1.051805,3.161393,2457,4042,1585,2457,0,93.19,0,normal
1780597636.4205375,23.582999599995674,23817,0.042725,-0.046631,1.065918,1.931298,2.473282,-0.877863,1.067792,3.258478,2459,4046,1587,2459,0,93.19,1,normal
1780597636.4517057,23.614167899999302,23848,0.031982,-0.044189,1.046875,1.89313,3.206107,-0.59542,1.048295,3.770622,2464,4052,1588,2464,0,93.19,5,normal
1780597636.4822109,23.644673100003274,23879,0.056152,0.005371,1.067139,0.877863,2.89313,-0.984733,1.068628,3.179708,2467,4056,1589,2467,0,93.863,6,normal
1780597636.5143669,23.676829000003636,23910,0.020996,-0.046143,1.042236,2.045802,2.671756,-0.992366,1.043468,3.508329,2469,4061,1592,2469,1,93.863,13,normal
1780597636.5441852,23.706647500002873,23941,0.041016,-0.00708,1.053955,1.152672,2.221374,-0.618321,1.054777,2.577882,2473,4066,1593,2473,0,93.863,5,normal
1780597636.574372,23.73683429999801,23971,0.031494,-0.040283,1.05249,1.022901,2.78626,-0.969466,1.053732,3.122408,2475,4070,1595,2475,0,93.863,0,normal
1780597636.6059375,23.768399699998554,24002,0.057861,-0.043945,1.046631,2.717557,3.343511,-0.587786,1.04915,4.348526,2478,4075,1597,2478,1,93.863,13,normal
1780597636.6366827,23.799144899996463,24033,0.043457,-0.034912,1.043457,0.198473,3.206107,-1.145038,1.044945,3.410224,2483,4082,1599,2483,0,93.863,1,normal
1780597636.6699243,23.832386599999154,24064,0.03418,-0.035645,1.068359,1.862595,2.450382,-0.931298,1.0695,3.215734,2484,4084,1600,2484,0,93.863,6,normal
1780597636.704973,23.8674350999936,24095,0.051025,-0.041504,1.054932,2.007634,2.48855,-0.938931,1.05698,3.332426,2489,4090,1601,2489,0,93.863,6,normal
1780597636.7297251,23.892187299992656,24126,0.044678,-0.012695,1.061279,0.832061,2.541985,-1.068702,1.062295,2.880302,2492,4094,1602,2492,0,93.863,5,normal
1780597636.7599216,23.922383700002683,24157,0.015137,-0.030029,1.040283,2.229008,2.29771,-0.847328,1.040827,3.311482,2494,4099,1605,2494,1,97.122,14,normal
1780597636.7925313,23.954993399995146,24188,0.02124,0.018066,1.048584,1.51145,2.312977,-0.557252,1.048955,2.818666,2499,4106,1607,2499,0,97.122,0,normal
1780597636.8236165,23.986078799993265,24219,0.038086,-0.056396,1.050537,1.366412,2.259542,-0.931298,1.052739,2.799987,2501,4110,1609,2501,0,97.122,1,normal
1780597636.8551626,24.01762480000616,24250,0.046387,-0.016113,1.047607,2.755725,3.175573,-0.877863,1.048758,4.295222,2503,4113,1610,2503,1,97.122,16,normal
1780597636.8861592,24.0486213999975,24281,0.045898,-0.027588,1.054932,0.335878,2.977099,-0.824427,1.05629,3.107348,2508,4120,1612,2508,0,97.122,0,normal
1780597636.9165692,24.07903150000493,24312,0.049805,-0.031982,1.054443,2.290076,2.832061,-0.541985,1.056103,3.682223,2509,4122,1613,2509,0,97.122,4,normal
1780597636.9474907,24.1099530000065,24343,0.029297,-0.041992,1.050537,1.89313,2.572519,-0.778626,1.051784,3.28756,2514,4128,1614,2514,0,97.122,5,normal
1780597636.9782968,24.140758900000947,24374,0.035889,-0.010986,1.069336,1.282443,2.824427,-0.603053,1.069994,3.160019,2518,4134,1616,2518,0,97.122,0,normal
1780597637.0093954,24.171857699999237,24405,0.008057,-0.037354,1.048096,2.175573,2.725191,-0.885496,1.048792,3.597761,2520,4139,1619,2520,1,97.122,13,normal
1780597637.0396302,24.202092299994547,24436,0.02124,0.007813,1.05249,1.51145,2.244275,-0.580153,1.052733,2.767278,2523,4144,1621,2523,0,103.943,1,normal
1780597637.070611,24.23307329999807,24467,0.027588,-0.054199,1.053467,1.251908,2.427481,-0.59542,1.055221,2.795436,2525,4148,1623,2525,0,103.943,0,normal
1780597637.101901,24.264363299997058,24498,0.057373,-0.008789,1.055664,3.091603,3.847328,-0.534351,1.057258,4.964421,2528,4152,1624,2528,0,103.943,6,normal
1780597637.1332378,24.29570010000316,24529,0.047607,-0.024902,1.05542,0.305344,2.51145,-0.908397,1.056787,2.688085,2532,4158,1626,2532,0,103.943,1,normal
1780597637.1656342,24.328096299999743,24560,0.04248,-0.030762,1.05957,2.343511,2.549618,-0.694656,1.060868,3.532017,2534,4163,1629,2534,1,103.943,14,normal
