host_epoch_s,host_elapsed_s,time_ms,ax,ay,az,gx,gy,gz,acc_mag,gyro_mag,pulse_count,edge_count,rise_count,fall_count,state,pulse_rate_hz,last_edge_dt_ms,label
1780596805.9748669,0.009417000008397736,345743,0.046387,-0.033447,1.053223,0.450382,3.129771,-0.70229,1.054774,3.239062,12683,20763,8079,12683,0,100.719,6,normal
1780596806.0060048,0.04055489999882411,345774,0.043945,-0.031006,1.04248,2.610687,2.671756,-0.351145,1.043867,3.751969,12685,20768,8082,12685,1,100.719,13,normal
1780596806.0369363,0.07148650000453927,345805,0.041016,-0.006836,1.049805,1.687023,2.564885,-0.633588,1.050628,3.134664,12690,20775,8084,12690,0,100.719,1,normal
1780596806.0737932,0.10834340000292286,345842,0.053223,-0.032227,1.063477,0.725191,3.549618,-0.641221,1.065295,3.679247,12692,20780,8087,12692,1,100.719,14,normal
1780596806.1049325,0.13948270000400953,345873,0.024902,0.001221,1.052246,1.137405,2.59542,-0.748092,1.052541,2.930791,12698,20787,8088,12698,0,100.719,1,normal
1780596806.1345532,0.16910340001049917,345903,0.0354,-0.051025,1.058106,0.824427,3.320611,-0.885496,1.059926,3.534154,12700,20791,8090,12700,0,100.719,0,normal
1780596806.1660016,0.20055170000705402,345934,0.039795,-0.030518,1.052246,2.526718,2.885496,-0.503817,1.05344,3.868362,12702,20796,8093,12702,1,103.175,14,normal
1780596806.1968281,0.23137839999981225,345965,0.036133,-0.011719,1.050537,0.351145,3.030534,-0.572519,1.051224,3.104065,12707,20803,8095,12707,0,103.175,0,normal
1780596806.2279067,0.262456900003599,345996,0.032959,-0.037354,1.049316,1.946565,2.152672,-0.679389,1.050498,2.980718,12709,20807,8097,12709,0,103.175,0,normal
1780596806.258785,0.29333510001015384,346027,0.049561,-0.045898,1.060791,1.816794,2.847328,-0.969466,1.06294,3.513955,12714,20813,8098,12714,0,103.175,6,normal
1780596806.2915413,0.326091599999927,346059,0.042969,-0.010742,1.077637,1.145038,3.992366,-0.48855,1.078546,4.181959,12718,20819,8100,12718,0,103.175,1,normal
1780596806.3214579,0.3560081000032369,346090,0.036865,-0.050537,1.052002,1.984733,2.175573,-0.541985,1.05386,2.994333,12720,20824,8103,12720,1,103.175,14,normal
1780596806.3524795,0.387029600009555,346121,0.06543,0.00415,1.054199,1.290076,2.580153,-0.725191,1.056236,2.974456,12725,20831,8105,12725,0,103.175,0,normal
1780596806.3849955,0.41954570000234526,346152,0.033691,-0.040283,1.052002,1.694656,2.160305,-1.21374,1.053312,3.00199,12727,20835,8107,12727,0,103.175,0,normal
1780596806.4138634,0.4484136000100989,346183,0.046631,0.003174,1.067139,2.526718,3.618321,-0.396947,1.068162,4.43104,12731,20841,8109,12731,0,103.175,6,normal
1780596806.4481037,0.4826539000059711,346213,0.055176,-0.016357,1.05542,0.274809,3.480916,-1.045802,1.056988,3.644996,12735,20847,8111,12735,0,118.28,0,normal
1780596806.4752579,0.509808000002522,346244,0.035889,-0.04834,1.046387,2.51145,2.29771,-0.618321,1.048117,3.459649,12737,20852,8114,12737,1,118.28,13,normal
1780596806.50634,0.5408902000053786,346275,0.020752,-0.032227,1.051025,1.053435,2.648855,-0.694656,1.051724,2.93406,12742,20859,8116,12742,0,118.28,1,normal
1780596806.5379946,0.572544900001958,346307,0.037354,-0.059082,1.062744,1.206107,2.320611,-0.824427,1.06504,2.742191,12743,20861,8117,12743,0,118.28,6,normal
1780596806.5690608,0.6036109999986365,346338,0.050781,-0.014648,1.057617,2.641221,3.541985,-0.564886,1.058937,4.454302,12746,20866,8119,12746,1,118.28,14,normal
1780596806.6002526,0.6348028000065824,346369,0.048584,-0.016357,1.05249,0.78626,2.473282,-0.954198,1.053738,2.765108,12751,20873,8121,12751,0,118.28,0,normal
1780596806.6319544,0.666504699998768,346400,0.04126,-0.043213,1.049561,2.229008,2.648855,-0.625954,1.05126,3.518057,12753,20877,8123,12753,0,118.28,1,normal
1780596806.6627927,0.6973429000063334,346431,0.053467,-0.04248,1.060791,1.877863,2.450382,-0.938931,1.062987,3.226814,12758,20883,8124,12758,0,118.28,5,normal
1780596806.6937823,0.7283325000025798,346462,0.068359,-0.011963,1.071289,0.954198,3.938931,-0.587786,1.073534,4.095262,12762,20889,8126,12762,0,118.28,0,normal
1780596806.7270103,0.7615604000020539,346493,0.037842,-0.045898,1.041504,1.59542,2.587786,-0.648855,1.043201,3.108539,12764,20894,8129,12764,1,103.571,14,normal
1780596806.7552419,0.7897921000112547,346524,0.029053,0.004639,1.045654,1.152672,2.19084,-0.618321,1.046068,2.551617,12769,20901,8131,12769,0,103.571,0,normal
1780596806.7865782,0.8211282999982359,346555,0.03418,-0.052246,1.03418,1.343511,2.671756,-0.916031,1.036062,3.127685,12771,20905,8133,12771,0,103.571,1,normal
1780596806.8171256,0.8516758000041591,346586,0.061035,0.004639,1.055176,2.763359,3.374046,-0.557252,1.05695,4.396688,12775,20911,8135,12775,0,103.571,5,normal
1780596806.848275,0.8828251000086311,346617,0.054932,-0.003906,1.060791,0.908397,3.137405,-1.10687,1.06222,3.448718,12779,20917,8137,12779,0,103.571,1,normal
1780596806.8802583,0.9148086000059266,346648,0.046875,-0.023438,1.047607,2.282443,2.381679,-0.78626,1.048917,3.391186,12781,20922,8140,12781,1,103.571,14,normal
1780596806.91146,0.946010200001183,346680,0.055176,0.011963,1.053223,1.412214,2.221374,-0.641221,1.054735,2.709246,12786,20929,8142,12786,0,103.571,0,normal
1780596806.9420416,0.9765918000048259,346711,0.040771,-0.045654,1.048584,1.503817,2.610687,-0.839695,1.050369,3.127657,12788,20933,8144,12788,0,103.571,0,normal
1780596806.9732432,1.0077934000000823,346742,0.048584,0.004395,1.050537,2.832061,3.633588,-0.541985,1.051669,4.638672,12791,20938,8146,12791,1,103.571,13,normal
1780596807.0052083,1.0397584000020288,346773,0.033936,-0.016357,1.055664,0.198473,3.175573,-0.969466,1.056336,3.326186,12796,20945,8148,12796,0,114.286,1,normal
1780596807.0362022,1.0707523000019137,346804,0.025391,-0.048828,1.041992,2.175573,2.938931,-0.618321,1.043445,3.70847,12798,20950,8151,12798,1,114.286,14,normal
1780596807.066801,1.1013513000070816,346835,0.031006,-0.040283,1.056641,1.236641,2.40458,-0.793893,1.057863,2.818076,12803,20957,8153,12803,0,114.286,0,normal
1780596807.0974772,1.132027300001937,346866,0.052002,-0.024414,1.070068,1.145038,3.557252,-0.419847,1.071609,3.760508,12804,20959,8154,12804,0,114.286,5,normal
1780596807.128289,1.1628391000122065,346897,0.04541,-0.061279,1.046387,2.244275,2.78626,-0.763359,1.049163,3.658241,12806,20964,8157,12806,1,114.286,13,normal
1780596807.1591432,1.1936933000106364,346928,0.028564,-0.001465,1.043457,0.961832,2.519084,-0.603053,1.043849,2.763074,12810,20969,8158,12810,0,114.286,5,normal
1780596807.2063353,1.2408855000103358,346959,0.043945,-0.032715,1.05249,1.931298,2.328244,-0.839695,1.053915,3.139382,12812,20973,8160,12812,0,114.286,0,normal
1780596807.2216587,1.2562088000122458,346990,0.067871,-0.030273,1.065674,2.351145,3.381679,-0.442748,1.068262,4.142422,12816,20979,8162,12816,0,114.286,5,normal
1780596807.2537355,1.2882858000084525,347022,0.05835,-0.005859,1.071533,0.954198,4.038168,-0.503817,1.073137,4.179848,12820,20985,8164,12820,0,114.286,0,normal
1780596807.284744,1.3192942000023322,347053,0.016846,-0.032471,1.037598,2.145038,2.633588,-0.557252,1.038242,3.44202,12821,20988,8166,12821,1,89.286,17,normal
1780596807.315315,1.3498652999987826,347084,0.029785,0.006348,1.051514,1.526718,2.290076,-0.687023,1.051954,2.836779,12826,20995,8168,12826,0,89.286,0,normal
1780596807.3459842,1.3805342999985442,347115,0.043457,-0.047607,1.055908,1.458015,2.709924,-0.824427,1.057874,3.185777,12828,20999,8170,12828,0,89.286,0,normal
1780596807.37664,1.4111903000011807,347146,0.067139,0.003174,1.062012,2.610687,3.679389,-0.503817,1.064136,4.53954,12832,21005,8172,12832,0,89.286,5,normal
1780596807.4074063,1.4419564999989234,347176,0.036133,-0.033203,1.053955,0.320611,2.778626,-0.770992,1.055097,2.901376,12836,21011,8174,12836,0,89.286,0,normal
1780596807.4389343,1.4734845000057248,347207,0.042236,-0.037598,1.047363,1.801527,2.358779,-0.709924,1.048889,3.051774,12838,21015,8176,12838,0,89.286,0,normal
1780596807.4688306,1.5033806999999797,347238,0.031982,-0.041016,1.047119,1.572519,2.648855,-0.793893,1.04841,3.181118,12843,21021,8177,12843,0,89.286,6,normal
1780596807.4996943,1.5342445999995107,347268,0.060303,0.008057,1.074463,1.198473,3.282443,-0.656489,1.076184,3.555523,12847,21027,8179,12847,0,89.286,1,normal
1780596807.530987,1.565537200003746,347299,0.048096,-0.038574,1.049072,2.40458,2.061069,-1.137405,1.050882,3.36507,12849,21032,8182,12849,1,89.286,14,normal
1780596807.5608902,1.595440500008408,347330,0.041992,0.005859,1.043945,1.450382,2.198473,-0.519084,1.044806,2.684463,12854,21039,8184,12854,0,119.134,0,normal
1780596807.593564,1.6281143000087468,347361,0.025391,-0.037842,1.050293,1.549618,2.839695,-0.80916,1.051281,3.334655,12856,21043,8186,12856,0,119.134,0,normal
1780596807.6237087,1.6582590000034543,347392,0.056152,-0.007324,1.053955,2.977099,3.740458,-0.709924,1.055475,4.833026,12860,21049,8188,12860,0,119.134,6,normal
1780596807.6544838,1.6890339000092354,347423,0.044678,-0.024414,1.055908,0.458015,3.076336,-1.29771,1.057135,3.370114,12864,21055,8190,12864,0,119.134,1,normal
1780596807.6861317,1.720681800012244,347454,0.045166,-0.035889,1.047852,2.343511,2.80916,-0.854962,1.049438,3.756912,12866,21060,8193,12866,1,119.134,14,normal
1780596807.718341,1.752891299998737,347486,0.033936,-0.010254,1.055664,1.366412,2.259542,-0.740458,1.056259,2.742424,12872,21067,8194,12872,0,119.134,0,normal
1780596807.7482028,1.7827531000075396,347517,0.042725,-0.052979,1.057129,1.480916,2.465649,-0.877863,1.059318,3.007188,12874,21071,8196,12874,0,119.134,0,normal
1780596807.7803314,1.8148815000022296,347548,0.060059,-0.052246,1.050537,2.870229,3.503817,-0.732824,1.053549,4.588244,12876,21076,8199,12876,1,119.134,13,normal
1780596807.810194,1.8447443000040948,347579,0.030273,-0.024414,1.052002,0.343511,3.091603,-1.022901,1.052721,3.274498,12881,21083,8201,12881,0,119.134,0,normal
1780596807.841753,1.876303299999563,347610,0.030518,-0.035156,1.056641,1.938931,2.755725,-1.045802,1.057666,3.528056,12882,21085,8202,12882,0,100.0,5,normal
1780596807.8726416,1.9071918000117876,347641,0.057373,-0.035645,1.05957,1.725191,2.969466,-0.679389,1.061721,3.500797,12887,21091,8203,12887,0,100.0,5,normal
1780596807.9034107,1.9379609000025084,347672,0.058105,-0.006836,1.076416,1.160305,3.877863,-0.89313,1.078005,4.145094,12890,21095,8204,12890,0,100.0,6,normal
1780596807.9333482,1.9678983000048902,347703,0.03125,-0.043945,1.043213,2.0,2.282443,-0.885496,1.044606,3.161273,12892,21100,8207,12892,1,100.0,14,normal
1780596807.964288,1.9988383000018075,347733,0.05542,0.005615,1.056152,1.450382,2.717557,-0.412214,1.05762,3.107836,12897,21107,8209,12897,0,100.0,0,normal
1780596807.9964817,2.0310318999981973,347764,0.053467,-0.052979,1.056396,1.351145,2.755725,-0.633588,1.059074,3.133855,12899,21111,8211,12899,0,100.0,1,normal
1780596808.0257177,2.060268000001088,347795,0.051025,-0.005859,1.051514,3.045802,3.29771,-0.854962,1.052767,4.569766,12902,21116,8213,12902,1,100.0,14,normal
1780596808.0565324,2.091082600003574,347825,0.055664,-0.024902,1.055664,0.778626,2.374046,-0.473282,1.057424,2.542902,12907,21123,8215,12907,0,100.0,0,normal
1780596808.0864275,2.120977700004005,347856,0.042725,-0.038574,1.056396,1.847328,2.40458,-1.145038,1.057964,3.241256,12909,21127,8217,12909,0,100.0,0,normal
1780596808.116732,2.1512820000061765,347886,0.071289,0.004639,1.051514,2.458015,3.648855,-0.442748,1.053938,4.421765,12913,21133,8219,12913,0,112.319,6,normal
1780596808.1483493,2.1828994000097737,347917,0.052979,-0.003174,1.063232,0.931298,3.656489,-0.89313,1.064556,3.877487,12917,21139,8221,12917,0,112.319,1,normal
1780596808.195721,2.2302711000083946,347948,0.043945,-0.017578,1.044434,2.419847,2.740458,-0.603053,1.045506,3.705326,12919,21144,8224,12919,1,112.319,14,normal
1780596808.2115538,2.2461039000045275,347979,0.011719,-0.018555,1.053711,1.389313,2.335878,-0.541985,1.053939,2.771329,12924,21151,8226,12924,0,112.319,0,normal
1780596808.2426245,2.277174800008652,348010,0.030762,-0.033691,1.058594,0.801527,2.717557,-0.816794,1.059576,2.94868,12926,21155,8228,12926,0,112.319,0,normal
1780596808.2727468,2.3072971000074176,348041,0.057861,-0.014648,1.0625,2.694656,3.282443,-0.931298,1.064175,4.347749,12929,21160,8230,12929,1,112.319,13,normal
1780596808.3041847,2.3387348000105703,348072,0.044678,-0.033936,1.047607,0.374046,2.419847,-0.770992,1.049109,2.5671,12934,21167,8232,12934,0,112.319,1,normal
1780596808.3349898,2.3695398999989266,348103,0.034912,-0.023926,1.050293,2.091603,2.549618,-1.045802,1.051145,3.459632,12936,21171,8234,12936,0,112.319,0,normal
1780596808.3666334,2.4011836999998195,348134,0.05957,-0.041016,1.064209,1.51145,3.030534,-0.580153,1.066664,3.435869,12941,21177,8235,12941,0,112.319,5,normal
1780596808.3977344,2.432284599999548,348166,0.036621,-0.013184,1.073975,0.946565,3.305344,-0.641221,1.07468,3.497492,12945,21183,8237,12945,0,114.286,0,normal
1780596808.4289536,2.463503800012404,348197,0.032715,-0.063232,1.046387,2.152672,2.992366,-0.664122,1.048806,3.745572,12947,21188,8240,12947,1,114.286,13,normal
1780596808.460362,2.494912200010731,348228,0.047607,-0.032227,1.052978,0.396947,2.259542,-0.671756,1.054547,2.390471,12952,21195,8242,12952,0,114.286,0,normal
1780596808.4899733,2.5245234000030905,348259,0.041748,-0.033447,1.051514,1.740458,2.824427,-1.259542,1.052874,3.548666,12954,21199,8244,12954,0,114.286,1,normal
1780596808.5220358,2.556586000006064,348290,0.054932,-0.041992,1.05835,1.977099,3.122137,-0.763359,1.060606,3.77351,12958,21205,8246,12958,0,114.286,5,normal
1780596808.5518596,2.5864097000012407,348321,0.054199,0.007324,1.068604,1.08397,3.648855,-0.603053,1.070002,3.853934,12962,21211,8248,12962,0,114.286,1,normal
1780596808.5838125,2.6183626999991247,348352,0.032471,-0.033936,1.052734,2.419847,2.328244,-0.641221,1.053782,3.418706,12963,21214,8250,12963,1,114.286,17,normal
1780596808.6144314,2.6489815000095405,348383,0.054443,0.002197,1.050781,1.412214,2.167939,-0.496183,1.052193,2.634484,12968,21221,8252,12968,0,114.286,1,normal
1780596808.646605,2.681155199999921,348414,0.048096,-0.044434,1.061279,1.251908,2.51145,-0.923664,1.063297,2.954287,12970,21225,8254,12970,0,114.286,0,normal
1780596808.6758022,2.7103524999984074,348445,0.067139,-0.011719,1.05957,3.045802,3.427481,-0.435114,1.06176,4.60585,12974,21231,8256,12974,0,103.943,6,normal
1780596808.706006,2.740556300006574,348475,0.040527,-0.016357,1.036621,0.580153,3.19084,-0.885496,1.037542,3.361866,12978,21237,8258,12978,0,103.943,0,normal
1780596808.7383192,2.772869400010677,348506,0.048828,-0.055664,1.042725,1.755725,2.419847,-0.862595,1.04535,3.11164,12980,21241,8260,12980,0,103.943,0,normal
1780596808.769132,2.8036820999986958,348537,0.032471,-0.04248,1.054688,1.450382,2.51145,-0.854962,1.056042,3.023566,12985,21247,8261,12985,0,103.943,5,normal
1780596808.799911,2.8344611000065925,348568,0.060791,-0.01123,1.076416,1.183206,3.816794,-0.320611,1.07819,4.008826,12989,21253,8263,12989,0,103.943,0,normal
1780596808.8308601,2.8654103000008035,348599,0.047852,-0.069092,1.049561,1.80916,2.625954,-0.961832,1.05292,3.330738,12991,21258,8266,12991,1,103.943,14,normal
1780596808.8618948,2.8964450000057695,348630,0.054688,-0.00708,1.045898,1.175572,2.648855,-0.618321,1.047351,2.963228,12996,21265,8268,12996,0,103.943,0,normal
1780596808.8929133,2.9274636000045575,348661,0.047852,-0.059814,1.054932,1.450382,2.465649,-0.694656,1.057709,2.943736,12998,21269,8270,12998,0,103.943,0,normal
1780596808.9223661,2.956916300012381,348692,0.057129,0.005859,1.05127,2.877863,3.725191,-0.427481,1.052837,4.72672,13002,21275,8272,13002,0,103.943,6,normal
1780596808.95465,2.9892000000108965,348722,0.041992,-0.036621,1.060547,0.206107,2.671756,-0.778626,1.062009,2.790523,13005,21279,8273,13005,0,111.913,5,normal
1780596808.9863045,3.0208548000082374,348754,0.058105,-0.028809,1.050781,2.274809,2.480916,-0.236641,1.052781,3.37427,13007,21284,8276,13007,1,111.913,14,normal
1780596809.0174892,3.052039500005776,348785,0.029053,0.008545,1.047607,1.687023,1.885496,-0.625954,1.048045,2.606331,13012,21291,8278,13012,0,111.913,0,normal
1780596809.047172,3.081722200004151,348816,0.054443,-0.041016,1.056885,0.78626,2.610687,-0.587786,1.059081,2.789155,13014,21295,8280,13014,0,111.913,0,normal
1780596809.0788672,3.1134174000035273,348847,0.037598,-0.008301,1.05542,2.641221,3.458015,-0.641221,1.056122,4.398305,13017,21300,8282,13017,1,111.913,14,normal
1780596809.1101062,3.1446564000070794,348878,0.030518,-0.028076,1.045898,0.412214,3.152672,-0.648855,1.04672,3.245038,13022,21307,8284,13022,0,111.913,0,normal
1780596809.1405046,3.1750547000119695,348909,0.025879,-0.035156,1.049805,2.282443,2.633588,-0.908397,1.050712,3.60146,13024,21311,8286,13024,0,111.913,1,normal
1780596809.1714811,3.206031300011091,348940,0.043701,-0.039795,1.059326,1.145038,2.587786,-0.679389,1.060974,2.91021,13029,21317,8287,13029,0,111.913,6,normal
1780596809.2027664,3.2373167000041576,348971,0.053955,-0.008301,1.07251,1.374046,3.351145,-0.534351,1.073898,3.661107,13033,21323,8289,13033,0,111.913,1,normal
1780596809.2334888,3.2680391000030795,349002,0.028809,-0.045166,1.044189,1.80916,2.671756,-1.251908,1.045563,3.461014,13035,21328,8292,13035,1,107.143,14,normal
1780596809.2640665,3.2986167000053683,349033,0.030273,0.008057,1.039062,1.335878,2.778626,-0.351145,1.039535,3.103004,13040,21335,8294,13040,0,107.143,0,normal
1780596809.3055232,3.3400734000024386,349064,0.050049,-0.034912,1.065918,1.961832,2.312977,-0.801527,1.067663,3.137052,13042,21339,8296,13042,0,107.143,0,normal
1780596809.3265204,3.3610707000043476,349095,0.07373,-0.008545,1.061279,2.21374,3.526718,-0.541985,1.063872,4.199063,13046,21345,8298,13046,0,107.143,6,normal
1780596809.357479,3.392029200011166,349126,0.054443,-0.011475,1.070557,0.763359,3.442748,-0.946565,1.072001,3.651194,13050,21351,8300,13050,0,107.143,0,normal
1780596809.3892105,3.4237606000097003,349157,0.050293,-0.021729,1.048828,2.282443,2.374046,-0.664122,1.050258,3.359568,13052,21356,8303,13052,1,107.143,14,normal
1780596809.4198477,3.4543980000016745,349188,0.037842,0.005371,1.053223,1.290076,2.053435,-0.740458,1.053916,2.535581,13057,21363,8305,13057,0,107.143,1,normal
1780596809.4504595,3.485009700001683,349219,0.024902,-0.060791,1.061523,0.992366,3.175573,-0.664122,1.063554,3.392655,13059,21367,8307,13059,0,107.143,0,normal
1780596809.4824524,3.517002600012347,349250,0.061768,-0.021484,1.063477,2.816794,3.458015,-0.526718,1.065485,4.491061,13062,21372,8309,13062,1,107.143,14,normal
1780596809.5135877,3.5481379000120796,349281,0.031006,-0.016357,1.05249,0.381679,2.801527,-0.870229,1.053074,2.958298,13066,21377,8310,13066,0,111.111,6,normal
1780596809.5454984,3.5800486000080127,349313,0.055176,-0.020508,1.05127,2.335878,2.70229,-0.89313,1.052916,3.681899,13068,21382,8313,13068,1,111.111,13,normal
1780596809.577147,3.611697300002561,349344,0.040039,-0.029785,1.056885,1.251908,2.206107,-0.549618,1.058062,2.595431,13073,21389,8315,13073,0,111.111,1,normal
1780596809.6085863,3.643136400001822,349376,0.016846,-0.05249,1.057129,1.458015,2.679389,-0.70229,1.058565,3.130199,13075,21393,8317,13075,0,111.111,1,normal
1780596809.6385267,3.673076899998705,349407,0.057861,-0.003174,1.060547,2.78626,3.59542,-0.40458,1.062129,4.566615,13078,21398,8319,13078,1,111.111,14,normal
1780596809.6693404,3.7038905000081286,349437,0.037109,-0.030029,1.052002,0.496183,2.549618,-0.770992,1.053084,2.709461,13083,21405,8321,13083,0,111.111,0,normal
1780596809.700733,3.735283200003323,349468,0.031738,-0.022217,1.049316,1.908397,2.587786,-0.961832,1.050031,3.356149,13085,21409,8323,13085,0,111.111,0,normal
1780596809.730352,3.7649021000106586,349499,0.057617,-0.038818,1.059326,1.763359,2.824427,-0.519084,1.061602,3.369907,13089,21415,8325,13089,0,111.111,6,normal
1780596809.7615077,3.7960580000071786,349530,0.050293,-0.011475,1.062744,1.221374,3.442748,-0.519084,1.063995,3.689677,13093,21421,8327,13093,0,111.111,1,normal
1780596809.7932315,3.827781700005289,349561,0.028809,-0.049561,1.03833,1.977099,2.580153,-0.374046,1.039911,3.272006,13095,21426,8330,13095,1,103.571,13,normal
1780596809.8231008,3.857650999998441,349592,0.032715,0.001465,1.046143,1.427481,2.610687,-0.610687,1.046655,3.037487,13100,21433,8332,13100,0,103.571,1,normal
1780596809.8549192,3.8894694000046,349623,0.026367,-0.049072,1.040039,1.160305,2.862595,-0.900763,1.04153,3.217474,13102,21437,8334,13102,0,103.571,0,normal
1780596809.8851166,3.9196668000076897,349654,0.064209,0.000732,1.060791,2.832061,3.687023,-0.526718,1.062733,4.678904,13106,21443,8336,13106,0,103.571,6,normal
1780596809.9164345,3.9509846000000834,349685,0.044434,-0.021729,1.05249,0.458015,2.725191,-1.022901,1.053652,2.946654,13110,21449,8338,13110,0,103.571,0,normal
1780596809.9476304,3.9821806000109063,349716,0.044922,-0.043945,1.04248,2.335878,3.152672,-0.572519,1.044373,3.96528,13112,21454,8341,13112,1,103.571,13,normal
1780596809.979664,4.014214200011338,349747,0.04541,-0.011475,1.047852,1.625954,2.526718,-0.40458,1.048898,3.031784,13117,21461,8343,13117,0,103.571,1,normal
1780596810.0107512,4.045301500009373,349779,0.026367,-0.041992,1.045654,1.259542,2.221374,-0.992366,1.046829,2.73966,13119,21465,8345,13119,0,103.571,0,normal
1780596810.0417118,4.076262000002316,349810,0.044678,-0.004883,1.049316,2.801527,3.320611,-0.534351,1.050278,4.377276,13122,21470,8347,13122,1,103.571,14,normal
1780596810.0739079,4.10845810000319,349841,0.039551,-0.026367,1.039551,0.351145,2.847328,-0.862595,1.040637,2.995772,13126,21475,8348,13126,0,110.714,6,normal
1780596810.1039865,4.138536700003897,349872,0.065674,-0.036377,1.057861,2.305344,3.053435,-0.572519,1.060522,3.868572,13128,21480,8351,13128,1,110.714,14,normal
1780596810.1359324,4.170482600005926,349904,0.030029,-0.011719,1.048828,1.717557,2.374046,-0.557252,1.049323,2.982721,13133,21487,8353,13133,0,110.714,0,normal
1780596810.1706338,4.205183900005068,349936,0.025391,-0.052246,1.053223,1.412214,2.839695,-0.748092,1.054823,3.258505,13135,21491,8355,13135,0,110.714,1,normal
1780596810.2061193,4.24066940000921,349967,0.060059,-0.005127,1.049072,3.099237,3.48855,-0.648855,1.050802,4.711291,13138,21496,8357,13138,1,110.714,13,normal
1780596810.2314644,4.266014500011806,349998,0.033203,-0.017578,1.050781,0.236641,2.931298,-1.122137,1.051453,3.14765,13143,21503,8359,13143,0,110.714,1,normal
1780596810.261339,4.295889100001659,350029,0.050049,-0.032959,1.061279,2.519084,2.687023,-0.709924,1.06297,3.750982,13145,21508,8362,13145,1,110.714,14,normal
1780596810.2932942,4.327844400002505,350061,0.037354,-0.012451,1.054199,1.48855,2.335878,-0.793893,1.054934,2.881384,13150,21515,8364,13150,0,110.714,0,normal
1780596810.323326,4.357876400012174,350092,0.045654,-0.025391,1.063477,1.21374,3.366412,-0.732824,1.064759,3.652797,13152,21519,8366,13152,0,103.586,0,normal
1780596810.3543966,4.388946700011729,350123,0.053223,-0.006592,1.056152,2.534351,3.114504,-0.664122,1.057513,4.069905,13155,21524,8368,13155,1,103.586,13,normal
1780596810.385206,4.419756200004485,350154,0.048096,-0.025879,1.058106,0.496183,2.450382,-1.122137,1.059514,2.740394,13160,21531,8370,13160,0,103.586,1,normal
1780596810.4168887,4.451438800009782,350185,0.037354,-0.035156,1.056885,1.572519,2.839695,-0.725191,1.058129,3.326046,13162,21535,8372,13162,0,103.586,0,normal
1780596810.4476862,4.482236499999999,350216,0.025146,-0.032227,1.053467,1.480916,2.648855,-0.755725,1.05426,3.127406,13167,21541,8373,13167,0,103.586,5,normal
1780596810.47884,4.513390400010394,350247,0.039551,-0.003174,1.068604,1.259542,3.641221,-0.549618,1.06934,3.891917,13171,21547,8375,13171,0,103.586,0,normal
1780596810.5101056,4.544655800011242,350278,0.027832,-0.042236,1.047119,1.938931,3.038168,-0.473282,1.04834,3.635095,13173,21552,8378,13173,1,103.586,14,normal
1780596810.5407171,4.5752673000097275,350309,0.056152,0.013916,1.048584,1.572519,2.374046,-0.206107,1.050178,2.855064,13178,21559,8380,13178,0,103.586,0,normal
1780596810.5709555,4.605505700004869,350340,0.057129,-0.050537,1.054688,1.541985,2.59542,-1.198473,1.057442,3.248116,13180,21563,8382,13180,0,103.586,1,normal
1780596810.6018229,4.636373000001186,350371,0.053223,0.009033,1.057617,2.931298,3.709924,-0.916031,1.058994,4.816134,13184,21569,8384,13184,0,114.695,5,normal
1780596810.6342583,4.66880850000598,350402,0.041748,-0.016113,1.053223,1.068702,3.122137,-1.038168,1.054173,3.45943,13187,21573,8385,13187,0,114.695,5,normal
1780596810.6646154,4.699165500001982,350433,0.04541,-0.032715,1.039551,2.198473,2.557252,-0.358779,1.041056,3.391393,13189,21578,8388,13189,1,114.695,14,normal
1780596810.6953926,4.729942900012247,350464,0.051025,-0.007813,1.054443,1.335878,2.099237,-0.664122,1.055706,2.575349,13194,21585,8390,13194,0,114.695,0,normal
1780596810.7269585,4.761508600000525,350495,0.054443,-0.052979,1.059814,1.335878,2.305344,-0.954198,1.062534,2.830136,13196,21589,8392,13196,0,114.695,0,normal
1780596810.758261,4.7928112000081455,350526,0.063965,-0.033936,1.050537,2.450382,2.801527,-0.946565,1.05303,3.84043,13199,21594,8394,13199,1,114.695,13,normal
1780596810.789522,4.8240722000045935,350557,0.040527,-0.019043,1.032715,0.419847,3.465649,-0.801527,1.033685,3.581821,13204,21601,8396,13204,0,114.695,1,normal
1780596810.8193648,4.853914999999688,350588,0.033447,-0.039062,1.045654,1.748092,2.854962,-0.816794,1.046918,3.445836,13206,21605,8398,13206,0,114.695,0,normal
1780596810.8520856,4.886635700007901,350619,0.042725,-0.035889,1.058838,1.671756,3.015267,-0.564886,1.060307,3.493666,13211,21611,8399,13211,0,114.695,5,normal
1780596810.882651,4.917201300006127,350651,0.045898,-0.012695,1.067139,0.931298,3.89313,-0.59542,1.068201,4.047012,13215,21617,8401,13215,0,110.714,0,normal
1780596810.914561,4.949111300011282,350682,0.055176,-0.044922,1.040039,2.099237,2.870229,-0.549618,1.04247,3.598206,13217,21622,8404,13217,1,110.714,13,normal
1780596810.9436023,4.9781523999990895,350713,0.049561,-0.00415,1.053711,0.603053,2.557252,-0.526718,1.054884,2.679672,13222,21629,8406,13222,0,110.714,0,normal
1780596810.976142,5.010692200012272,350743,0.028809,-0.039551,1.040039,1.259542,2.610687,-0.740458,1.041189,2.991724,13224,21633,8408,13224,0,110.714,1,normal
1780596811.0056684,5.040218499998446,350774,0.041016,-0.003174,1.05542,2.900763,3.496183,-0.374046,1.056221,4.558249,13228,21639,8410,13228,0,110.714,5,normal
1780596811.0370796,5.071629700003541,350805,0.067627,-0.023926,1.0625,0.572519,3.664122,-0.587786,1.064919,3.754872,13232,21645,8412,13232,0,110.714,0,normal
1780596811.0680244,5.102574600008666,350835,0.036865,-0.050049,1.050049,2.022901,2.961832,-0.755725,1.051887,3.665474,13234,21650,8415,13234,1,110.714,14,normal
1780596811.100379,5.134929200008628,350867,0.029785,-0.033936,1.052246,1.259542,2.618321,-0.694656,1.053214,2.987406,13240,21657,8416,13240,0,110.714,0,normal
1780596811.130085,5.164635100009036,350898,0.036133,-0.018066,1.068848,0.916031,2.328244,-0.541985,1.069611,2.559996,13242,21661,8418,13242,0,110.714,1,normal
1780596811.1611178,5.195667899999535,350929,0.061035,-0.011475,1.064697,2.335878,3.198473,-0.450382,1.066507,3.986151,13244,21666,8421,13244,1,104.317,13,normal
1780596811.2055566,5.240106900004321,350960,0.069336,-0.032715,1.041748,0.40458,2.984733,-0.946565,1.044565,3.157261,13248,21671,8422,13248,0,104.317,5,normal
1780596811.223209,5.257759200001601,350991,0.056152,-0.033447,1.05835,2.19084,2.206107,-0.832061,1.060366,3.218542,13250,21675,8424,13250,0,104.317,0,normal
1780596811.2549164,5.289466700007324,351022,0.022217,-0.036621,1.059326,1.580153,2.641221,-0.564886,1.060192,3.129222,13255,21681,8425,13255,0,104.317,5,normal
1780596811.2856405,5.320190700003877,351054,0.052002,-0.023682,1.068115,1.282443,3.450382,-1.045802,1.069643,3.826682,13259,21687,8427,13259,0,104.317,0,normal
1780596811.3174036,5.3519538000109605,351085,0.052734,-0.070068,1.047119,2.038168,2.580153,-0.992366,1.050785,3.434546,13261,21692,8430,13261,1,104.317,13,normal
1780596811.3478026,5.38235290000739,351116,0.036133,0.003174,1.046387,1.038168,2.618321,-0.618321,1.047015,2.883698,13266,21699,8432,13266,0,104.317,0,normal
1780596811.3783238,5.412874100002227,351146,0.029541,-0.050537,1.054199,1.526718,2.450382,-1.015267,1.055823,3.060393,13268,21703,8434,13268,0,104.317,1,normal
1780596811.4083824,5.442932600009954,351177,0.059082,0.004639,1.053711,3.076336,3.618321,-0.396947,1.055376,4.765884,13272,21709,8436,13272,0,104.317,5,normal
1780596811.43997,5.474520300005679,351208,0.039795,-0.021973,1.046143,0.89313,3.160305,-0.793893,1.04713,3.37868,13276,21715,8438,13276,0,114.695,0,normal
1780596811.4709504,5.505500500003109,351239,0.057373,-0.038086,1.056885,2.167939,2.167939,-0.366412,1.059126,3.087746,13278,21720,8441,13278,1,114.695,14,normal
1780596811.503297,5.537847300001886,351271,0.022949,0.001465,1.047852,1.145038,2.175573,-0.717557,1.048104,2.561077,13284,21727,8442,13284,0,114.695,0,normal
1780596811.533847,5.568397399998503,351302,0.019043,-0.049072,1.050781,1.557252,2.496183,-0.839695,1.052099,3.059584,13286,21731,8444,13286,0,114.695,0,normal
1780596811.5650718,5.599622100009583,351333,0.053223,-0.014893,1.053223,2.740458,3.587786,-0.763359,1.054672,4.578759,13289,21736,8446,13289,1,114.695,13,normal
1780596811.5959988,5.630549000008614,351364,0.051025,-0.035889,1.062988,0.664122,3.40458,-0.854962,1.064817,3.57256,13294,21743,8448,13294,0,114.695,1,normal
1780596811.626826,5.661376200005179,351395,0.050781,-0.0354,1.05835,2.129771,2.755725,-0.709924,1.060158,3.554425,13296,21748,8451,13296,1,114.695,14,normal
1780596811.665047,5.699597200000426,351433,0.055664,-0.012451,1.053223,1.48855,2.419847,-0.70229,1.054766,2.926543,13301,21755,8453,13301,0,114.695,0,normal
1780596811.6961756,5.730725700006587,351464,0.041016,-0.04126,1.057129,2.198473,2.48855,-0.480916,1.058729,3.355212,13303,21760,8456,13303,1,105.469,14,normal
1780596811.7276511,5.762201300007291,351496,0.051758,-0.001709,1.047607,1.282443,2.534351,-0.557252,1.048887,2.894499,13308,21767,8458,13308,0,105.469,0,normal
1780596811.7587676,5.793317900010152,351527,0.040283,-0.051758,1.061523,1.832061,2.320611,-1.068702,1.063548,3.143852,13309,21769,8459,13309,0,105.469,5,normal
1780596811.7893438,5.82389410000178,351558,0.05957,0.001953,1.061768,2.763359,3.801527,-0.679389,1.063439,4.748614,13313,21775,8461,13313,0,105.469,6,normal
1780596811.82109,5.855640200010384,351589,0.040527,-0.027588,1.060791,0.755725,3.305344,-0.70229,1.061923,3.462604,13317,21781,8463,13317,0,105.469,1,normal
1780596811.8528843,5.887434500007657,351620,0.048584,-0.034912,1.053955,2.259542,2.290076,-0.51145,1.055652,3.257539,13319,21786,8466,13319,1,105.469,14,normal
1780596811.8838754,5.918425500000012,351652,0.035645,0.00415,1.047363,1.251908,2.335878,-0.916031,1.047978,2.804053,13324,21793,8468,13324,0,105.469,0,normal
1780596811.9152641,5.949814300009166,351683,0.019775,-0.042969,1.043945,1.458015,2.969466,-0.862595,1.045016,3.418714,13326,21797,8470,13326,0,105.469,0,normal
1780596811.9450817,5.9796320000023115,351714,0.065674,0.001953,1.062012,2.877863,3.70229,-0.435114,1.064042,4.709392,13330,21803,8472,13330,0,108.0,6,normal
1780596811.9758742,6.010424400010379,351744,0.032959,-0.033203,1.053467,0.251908,3.19084,-1.114504,1.054505,3.389253,13334,21809,8474,13334,0,108.0,0,normal
1780596812.0076456,6.0421959000086645,351775,0.024902,-0.049316,1.047119,1.885496,2.694656,-0.992366,1.048576,3.435267,13336,21813,8476,13336,0,108.0,1,normal
1780596812.0388196,6.073369700010517,351806,0.039307,-0.029541,1.062012,1.099237,2.748092,-0.717557,1.063149,3.045524,13341,21819,8477,13341,0,108.0,5,normal
1780596812.0691855,6.103735600001528,351837,0.046387,-0.017334,1.064453,1.251908,3.053435,-0.763359,1.065604,3.38725,13345,21825,8479,13345,0,108.0,0,normal
1780596812.1001737,6.134723800001666,351868,0.03833,-0.050781,1.054688,1.961832,2.549618,-0.679389,1.056605,3.287995,13347,21830,8482,13347,1,108.0,14,normal
1780596812.131029,6.16557900000771,351899,0.024658,0.016846,1.034424,1.358779,2.580153,-0.641221,1.034855,2.985738,13352,21837,8484,13352,0,108.0,0,normal
1780596812.1613796,6.195929800000158,351930,0.03125,-0.040283,1.056885,1.580153,2.557252,-0.923664,1.058114,3.14477,13354,21841,8486,13354,0,108.0,0,normal
1780596812.191461,6.226011200007633,351960,0.051025,-0.003174,1.052246,2.946565,4.045802,-0.427481,1.053487,5.023296,13357,21846,8488,13357,1,108.0,13,normal
1780596812.2228045,6.257354700006545,351991,0.049316,-0.023438,1.055908,0.40458,3.083969,-0.732824,1.057319,3.195557,13362,21853,8490,13362,0,115.523,1,normal
1780596812.25451,6.2890602000115905,352022,0.056885,-0.042236,1.058838,2.610687,2.862595,-0.770992,1.061206,3.950262,13364,21858,8493,13364,1,115.523,14,normal
1780596812.2859235,6.3204737000050955,352054,0.023926,-0.019775,1.05249,1.244275,2.48855,-0.740458,1.052948,2.879128,13369,21865,8495,13369,0,115.523,0,normal
1780596812.3167815,6.351331600002595,352085,0.034912,-0.046631,1.04834,1.068702,2.748092,-1.198473,1.049957,3.18284,13370,21867,8496,13370,0,115.523,6,normal
1780596812.3476899,6.382240100007039,352116,0.059082,-0.012207,1.053223,2.908397,3.145038,-0.564886,1.054949,4.32078,13372,21872,8499,13372,1,115.523,13,normal
1780596812.3786173,6.413167400009115,352147,0.056885,-0.037598,1.044678,0.847328,2.21374,-0.89313,1.046901,2.53304,13377,21879,8501,13377,0,115.523,0,normal
1780596812.4111502,6.445700500000385,352178,0.035645,-0.030518,1.055176,1.870229,2.78626,-0.89313,1.056219,3.472561,13379,21883,8503,13379,0,115.523,1,normal
1780596812.4406261,6.475176400010241,352209,0.03833,-0.034912,1.047852,1.320611,2.931298,-0.824427,1.049133,3.319066,13384,21889,8504,13384,0,115.523,5,normal
1780596812.4709876,6.5055377000098815,352240,0.051758,-0.01123,1.072022,1.251908,3.40458,-0.473282,1.073329,3.658201,13388,21895,8506,13388,0,115.523,0,normal
1780596812.5032506,6.537800700010848,352271,0.043213,-0.041748,1.041016,2.038168,2.603053,-0.824427,1.042748,3.4073,13390,21900,8509,13390,1,100.0,14,normal
1780596812.5338743,6.568424400000367,352302,0.046875,0.001465,1.046631,1.412214,2.419847,-0.648855,1.047681,2.875938,13395,21907,8511,13395,0,100.0,0,normal
1780596812.5653937,6.599943799999892,352333,0.037842,-0.04248,1.04541,1.633588,2.656489,-0.687023,1.046957,3.193359,13397,21911,8513,13397,0,100.0,0,normal
1780596812.596028,6.630578299998888,352364,0.054688,-0.001709,1.055908,2.801527,3.381679,-0.519084,1.057325,4.421963,13401,21917,8515,13401,0,100.0,6,normal
1780596812.6265697,6.661119900003541,352394,0.032715,-0.019287,1.061523,0.328244,3.343511,-1.053435,1.062203,3.520872,13405,21923,8517,13405,0,100.0,1,normal
1780596812.6568651,6.691415200009942,352425,0.042725,-0.051514,1.048584,2.580153,2.70229,-0.793893,1.050718,3.819663,13407,21928,8520,13407,1,100.0,13,normal
1780596812.6871467,6.721696799999336,352455,0.030273,-0.0354,1.062744,1.534351,2.931298,-0.770992,1.063764,3.39723,13411,21933,8521,13411,0,100.0,5,normal
1780596812.7190185,6.753568600004655,352486,0.036377,-0.012939,1.070557,1.229008,3.610687,-0.755725,1.071253,3.88827,13413,21937,8523,13413,0,100.0,0,normal
1780596812.7484667,6.783016900008079,352517,0.027344,-0.048828,1.034912,1.854962,2.572519,-0.969466,1.036424,3.316414,13415,21942,8526,13415,1,100.0,14,normal
1780596812.7813861,6.81593630000134,352548,0.044189,-0.004639,1.049316,1.366412,2.931298,-0.931298,1.050257,3.365547,13418,21947,8528,13418,0,101.083,0,normal
1780596812.8107252,6.84527540000272,352579,0.031982,-0.047363,1.058838,1.473282,2.282443,-1.10687,1.060379,2.933474,13420,21951,8530,13420,0,101.083,1,normal
1780596812.8416934,6.8762437000114005,352610,0.049072,0.000488,1.057617,2.541985,3.70229,-0.549618,1.058755,4.524458,13424,21957,8532,13424,0,101.083,5,normal
1780596812.8731802,6.907730300008552,352640,0.040283,-0.028809,1.045654,0.419847,2.832061,-0.961832,1.046826,3.020259,13428,21963,8534,13428,0,101.083,1,normal
1780596812.9041636,6.938713900002767,352672,0.051025,-0.040283,1.040527,2.206107,2.435115,-0.717557,1.042556,3.363269,13430,21968,8537,13430,1,101.083,14,normal
1780596812.935654,6.970204199998989,352704,0.03125,-0.000244,1.045654,1.19084,2.763359,-0.244275,1.046121,3.018927,13435,21975,8539,13435,0,101.083,0,normal
1780596812.9668102,7.001360300011584,352734,0.036621,-0.056396,1.061768,1.061069,2.633588,-0.938931,1.063895,2.990526,13437,21979,8541,13437,0,101.083,0,normal
1780596812.9982698,7.032819900006871,352765,0.047607,-0.034912,1.041748,2.603053,3.145038,-0.305344,1.04342,4.093945,13440,21984,8543,13440,1,101.083,13,normal
1780596813.0285974,7.063147600012599,352797,0.038574,-0.023438,1.046875,0.40458,2.725191,-0.839695,1.047848,2.88018,13445,21991,8545,13445,0,101.083,0,normal
1780596813.0591931,7.093743400007952,352828,0.055176,-0.025391,1.053955,2.503817,2.59542,-0.679389,1.055704,3.669724,13447,21996,8548,13447,1,103.571,14,normal
1780596813.091759,7.126309200000833,352859,0.023682,-0.041748,1.050293,1.305344,2.335878,-0.709924,1.051389,2.768436,13452,22003,8550,13452,0,103.571,1,normal
1780596813.122587,7.15713720000349,352891,0.047852,-0.049072,1.053955,1.312977,3.0,-0.374046,1.056181,3.296031,13454,22007,8552,13454,0,103.571,0,normal
1780596813.1535563,7.1881066000059946,352922,0.041748,-0.015381,1.059814,2.603053,3.068702,-0.801527,1.060748,4.10308,13456,22012,8555,13456,1,103.571,14,normal
1780596813.1854672,7.220017400002689,352953,0.027832,-0.023926,1.048096,0.305344,2.534351,-1.068702,1.048738,2.767362,13461,22019,8557,13461,0,103.571,0,normal
1780596813.2165346,7.251084900010028,352984,0.020264,-0.046875,1.050781,2.091603,2.725191,-0.984733,1.052021,3.573677,13463,22023,8559,13463,0,103.571,1,normal
1780596813.2470798,7.281630000012228,353015,0.033447,-0.037598,1.053711,1.656489,2.458015,-0.80916,1.054912,3.072545,13468,22029,8560,13468,0,103.571,5,normal
1780596813.2780933,7.312643500001286,353046,0.042969,-0.01709,1.067871,1.175572,3.007634,-1.007634,1.068872,3.382773,13470,22033,8562,13470,0,103.571,0,normal
1780596813.3087914,7.343341600004351,353077,0.043701,-0.05835,1.050049,1.992366,2.358779,-0.664122,1.052576,3.15823,13472,22038,8565,13472,1,103.571,14,normal
1780596813.3391802,7.373730400009663,353108,0.042969,0.006592,1.043701,1.145038,3.10687,-0.877863,1.044606,3.425551,13477,22045,8567,13477,0,107.143,0,normal
1780596813.3707628,7.40531300001021,353139,0.05127,-0.031494,1.050049,1.969466,2.740458,-0.961832,1.051771,3.509134,13479,22049,8569,13479,0,107.143,0,normal
1780596813.4014945,7.436044800007949,353170,0.071777,-0.003906,1.068359,2.671756,3.603053,-0.251908,1.070775,4.492631,13483,22055,8571,13483,0,107.143,6,normal
1780596813.434397,7.468947100001969,353201,0.072754,-0.019775,1.070312,0.89313,3.320611,-0.824427,1.072965,3.536074,13487,22061,8573,13487,0,107.143,1,normal
1780596813.46559,7.500140100004501,353232,0.070557,-0.03125,1.062012,2.099237,2.732824,-0.282443,1.064812,3.457586,13489,22066,8576,13489,1,107.143,14,normal
1780596813.49471,7.529260100011015,353263,0.033447,0.007813,1.046631,1.21374,2.51145,-1.015267,1.047194,2.968386,13495,22073,8577,13495,0,107.143,0,normal
1780596813.5263858,7.560936000008951,353294,0.021484,-0.050781,1.054688,1.076336,3.152672,-0.977099,1.056128,3.47168,13497,22077,8579,13497,0,107.143,0,normal
1780596813.5575013,7.592051600004197,353325,0.059814,-0.01709,1.050049,2.641221,3.091603,-0.78626,1.05189,4.141529,13499,22082,8582,13499,1,107.143,13,normal
1780596813.5884132,7.622963400004664,353356,0.044434,-0.022949,1.04248,0.48855,2.801527,-0.717557,1.043679,2.932937,13504,22089,8584,13504,0,107.143,0,normal
1780596813.618512,7.653062000012142,353387,0.03125,-0.028564,1.054199,1.633588,2.51145,-0.916031,1.055049,3.132907,13506,22093,8586,13506,0,103.943,1,normal
1780596813.6496985,7.684248800011119,353418,0.030762,-0.034912,1.058106,1.618321,2.977099,-0.618321,1.059128,3.444474,13510,22099,8588,13510,0,103.943,5,normal
1780596813.6816394,7.716189700004179,353449,0.047607,-0.00293,1.063721,0.969466,4.091603,-0.618321,1.06479,4.250106,13514,22105,8590,13514,0,103.943,0,normal
1780596813.7132397,7.747789900007774,353480,0.019531,-0.034424,1.045898,2.137405,2.396947,-0.877863,1.046647,3.329338,13516,22110,8593,13516,1,103.943,14,normal
1780596813.7428746,7.777424700005213,353511,0.05542,0.001221,1.037354,1.351145,2.572519,-0.877863,1.038834,3.035472,13521,22117,8595,13521,0,103.943,0,normal
1780596813.7742395,7.808789700007765,353542,0.058594,-0.045654,1.050537,1.48855,2.80916,-0.900763,1.05316,3.30432,13523,22121,8597,13523,0,103.943,1,normal
1780596813.8060482,7.840598300012061,353573,0.041016,0.003662,1.057861,2.923664,3.290076,-0.343511,1.058662,4.414795,13527,22127,8599,13527,0,103.943,5,normal
1780596813.8360028,7.870552899999893,353604,0.037109,-0.033203,1.059814,0.625954,3.099237,-0.236641,1.060984,3.17066,13529,22131,8601,13529,0,103.943,1,normal
1780596813.8664105,7.900960800005123,353635,0.057861,-0.032715,1.053955,2.160305,2.40458,-0.343511,1.056049,3.25068,13531,22136,8604,13531,1,103.943,14,normal
1780596813.8979588,7.932509000005666,353666,0.037354,-0.018066,1.045654,1.21374,2.229008,-0.80916,1.046477,2.663904,13535,22141,8605,13535,0,103.943,0,normal
1780596813.9298363,7.964386500010733,353698,0.022217,-0.046143,1.048584,1.48855,3.022901,-0.656489,1.049834,3.432883,13537,22145,8607,13537,0,103.943,0,normal
1780596813.9603288,7.994879100006074,353729,0.065674,0.000977,1.057129,2.862595,3.603053,-0.198473,1.059167,4.606065,13540,22150,8609,13540,1,103.943,13,normal
1780596813.9917283,8.026278400007868,353760,0.057861,-0.028076,1.065186,0.366412,2.778626,-1.015267,1.067125,2.980904,13544,22155,8610,13544,0,103.943,5,normal
1780596814.0235188,8.058069000006071,353791,0.063477,-0.046631,1.054443,2.450382,2.80916,-0.717557,1.057381,3.796135,13546,22160,8613,13546,1,103.943,14,normal
1780596814.0548134,8.089363600010984,353822,0.033691,-0.034668,1.051514,1.251908,2.465649,-0.870229,1.052624,2.898965,13551,22167,8615,13551,0,103.943,0,normal
1780596814.086295,8.120845000012196,353854,0.03833,-0.057617,1.056641,0.763359,2.954198,-0.59542,1.058904,3.108783,13553,22171,8617,13553,0,103.943,0,normal
1780596814.1168258,8.151376000008895,353885,0.063232,-0.011963,1.05249,2.70229,2.954198,-0.564886,1.054456,4.043359,13556,22176,8619,13556,1,103.943,13,normal
1780596814.1473558,8.181906099998741,353916,0.051514,-0.03125,1.051025,0.847328,2.282443,-0.633588,1.052751,2.515739,13561,22183,8621,13561,0,104.0,1,normal
1780596814.1785078,8.21305800000846,353946,0.054932,-0.054443,1.065918,2.160305,2.343511,-0.847328,1.06872,3.298019,13563,22187,8623,13563,0,104.0,0,normal
1780596814.2100291,8.2445793000079,353977,0.03833,-0.031738,1.062988,2.305344,3.335878,-0.625954,1.064152,4.102988,13567,22193,8625,13567,0,104.0,6,normal
1780596814.2412126,8.275762800010853,354008,0.053223,0.008789,1.069092,0.931298,3.656489,-0.251908,1.070452,3.781624,13571,22199,8627,13571,0,104.0,0,normal
1780596814.271237,8.305787000004784,354039,0.0271,-0.03125,1.044678,2.10687,2.854962,-0.732824,1.045496,3.623084,13573,22204,8630,13573,1,104.0,13,normal
1780596814.302084,8.336634100007359,354070,0.037354,0.00293,1.054443,1.305344,2.587786,-0.572519,1.055109,2.954376,13578,22211,8632,13578,0,104.0,0,normal
1780596814.3333855,8.367935600006604,354101,0.047607,-0.049072,1.054688,1.305344,2.748092,-0.633588,1.056901,3.10763,13580,22215,8634,13580,0,104.0,1,normal
1780596814.3630743,8.397624400007771,354131,0.057617,-0.037109,1.046387,2.625954,3.053435,-0.763359,1.048629,4.099002,13583,22220,8636,13583,1,104.0,14,normal
1780596814.393849,8.428399199998239,354162,0.057861,-0.007813,1.042969,0.755725,2.381679,-1.122137,1.044602,2.739107,13588,22227,8638,13588,0,104.0,0,normal
1780596814.4257083,8.460258600011002,354193,0.060059,-0.025391,1.041748,1.78626,2.847328,-0.862595,1.043787,3.470169,13590,22231,8640,13590,0,104.693,0,normal
1780596814.4657567,8.50030680000782,354224,0.029053,-0.035156,1.052734,1.687023,3.412214,-0.740458,1.053722,3.877825,13594,22237,8642,13594,0,104.693,6,normal
1780596814.4880552,8.522605400008615,354255,0.042725,0.014648,1.071289,0.931298,3.664122,-0.717557,1.072241,3.848116,13598,22243,8644,13598,0,104.693,1,normal
1780596814.5189302,8.553480300004594,354286,0.019775,-0.039551,1.03833,2.10687,2.183206,-0.351145,1.039271,3.054274,13600,22248,8647,13600,1,104.693,14,normal
1780596814.5493937,8.583943900011946,354317,0.054199,-0.001709,1.049561,1.267176,1.78626,-0.587786,1.05096,2.267587,13604,22253,8648,13604,0,104.693,5,normal
1780596814.5799124,8.614462600002298,354348,0.030762,-0.046631,1.050781,1.618321,2.709924,-0.656489,1.052265,3.223915,13606,22257,8650,13606,0,104.693,0,normal
1780596814.6108086,8.645358900001156,354379,0.044434,0.00415,1.056885,2.916031,3.641221,-0.51145,1.057826,4.6929,13610,22263,8652,13610,0,104.693,6,normal
1780596814.6420913,8.676641400001245,354410,0.030273,-0.019287,1.04541,0.480916,3.083969,-0.725191,1.046026,3.20438,13614,22269,8654,13614,0,104.693,0,normal
1780596814.6734312,8.707981300001848,354441,0.037598,-0.045166,1.051025,2.274809,2.931298,-0.687023,1.052667,3.773495,13616,22274,8657,13616,1,104.693,13,normal
1780596814.7049072,8.739457300005597,354472,0.033936,-0.026611,1.048096,1.732824,2.167939,-1.061069,1.048982,2.97128,13621,22281,8659,13621,0,111.111,1,normal
1780596814.7362552,8.770805400010431,354504,0.025146,-0.05249,1.046631,1.267176,2.450382,-0.679389,1.048248,2.841069,13623,22285,8661,13623,0,111.111,0,normal
1780596814.7671862,8.801736400011578,354535,0.052002,-0.015381,1.046387,2.664122,3.396947,-0.580153,1.047791,4.355843,13626,22290,8663,13626,1,111.111,14,normal
1780596814.798888,8.83343810000224,354567,0.041992,-0.02417,1.054932,0.358779,3.580153,-1.229008,1.056044,3.802193,13631,22297,8665,13631,0,111.111,0,normal
1780596814.8301573,8.864707400003681,354598,0.049561,-0.028564,1.046143,2.435115,2.366412,-0.732824,1.047705,3.473719,13633,22302,8668,13633,1,111.111,13,normal
1780596814.861475,8.896025200010627,354630,0.042969,0.004639,1.053711,1.450382,2.335878,-0.793893,1.054597,2.861852,13638,22309,8670,13638,0,111.111,0,normal
1780596814.8937495,8.928299600011087,354661,0.037354,-0.05249,1.049316,1.236641,2.419847,-1.030534,1.051292,2.906362,13640,22313,8672,13640,0,111.111,0,normal
1780596814.9241073,8.95865749999939,354692,0.037109,-0.017578,1.042969,2.48855,3.450382,-0.541985,1.043777,4.288562,13643,22318,8674,13643,1,111.111,14,normal
1780596814.9561517,8.990701900009299,354723,0.030273,-0.022705,1.03833,0.068702,2.015267,-0.916031,1.039019,2.214754,13648,22325,8676,13648,0,107.57,0,normal
1780596814.9864926,9.021042899999884,354754,0.04248,-0.053711,1.055176,1.793893,3.076336,-0.778626,1.057396,3.645292,13650,22329,8678,13650,0,107.57,1,normal
1780596815.0185707,9.053120900003705,354785,0.053467,-0.043213,1.055664,1.801527,2.916031,-0.717557,1.0579,3.501946,13655,22335,8679,13655,0,107.57,5,normal
1780596815.0488837,9.083433899999363,354816,0.044189,-0.001709,1.060547,1.412214,3.244275,-0.778626,1.061468,3.622972,13659,22341,8681,13659,0,107.57,1,normal
1780596815.0788288,9.113379000002169,354847,0.040039,-0.052734,1.049316,2.198473,2.763359,-0.732824,1.051403,3.606448,13661,22346,8684,13661,1,107.57,14,normal
1780596815.112163,9.146713200010709,354878,0.036865,0.006348,1.04126,1.267176,2.946565,-0.969466,1.041931,3.350797,13665,22351,8685,13665,0,107.57,6,normal
1780596815.141178,9.175728100002743,354909,0.029785,-0.046143,1.047607,1.694656,2.900763,-0.679389,1.049046,3.427515,13667,22355,8687,13667,0,107.57,0,normal
1780596815.1716628,9.206213099998422,354940,0.063965,-0.001953,1.063965,2.801527,3.412214,-0.526718,1.065888,4.446255,13671,22361,8689,13671,0,107.57,6,normal
1780596815.203457,9.238007300009485,354971,0.063477,-0.020752,1.067383,1.061069,3.21374,-0.938931,1.06947,3.512205,13673,22365,8691,13673,0,107.57,1,normal
1780596815.2349362,9.269486400007736,355002,0.059814,-0.023682,1.037354,2.244275,2.167939,-0.641221,1.039346,3.185576,13675,22370,8694,13675,1,96.774,14,normal
1780596815.2692382,9.303788500008523,355033,0.016357,-0.027344,1.046631,1.526718,2.114504,-0.587786,1.047116,2.673478,13680,22377,8696,13680,0,96.774,0,normal
1780596815.2961175,9.330667700007325,355064,0.03418,-0.061035,1.053223,0.816794,2.694656,-0.625954,1.055543,2.884466,13681,22379,8697,13681,0,96.774,5,normal
1780596815.3271163,9.361666500000865,355095,0.059326,-0.028076,1.050293,2.427481,3.076336,-1.10687,1.052342,4.07206,13683,22384,8700,13683,1,96.774,13,normal
1780596815.3583953,9.392945500003407,355126,0.059326,-0.026611,1.044678,0.320611,2.89313,-0.748092,1.046699,3.005434,13688,22391,8702,13688,0,96.774,1,normal
1780596815.3886547,9.423204800012172,355157,0.035156,-0.048584,1.042236,1.687023,2.564885,-0.984733,1.04396,3.224032,13690,22395,8704,13690,0,96.774,0,normal
1780596815.4200087,9.454558800003724,355188,0.044189,-0.035645,1.055908,1.78626,3.229008,-0.748092,1.057433,3.765216,13695,22401,8705,13695,0,96.774,5,normal
1780596815.4522047,9.486754800003837,355219,0.051514,-0.004883,1.072022,1.267176,3.89313,-0.793893,1.07327,4.170427,13699,22407,8707,13699,0,96.774,0,normal
1780596815.483043,9.517593100012164,355250,0.016113,-0.024414,1.04126,1.946565,2.167939,-0.916031,1.041671,3.054208,13701,22412,8710,13701,1,96.774,13,normal
1780596815.5129802,9.54753029999847,355281,0.053223,0.004883,1.051514,1.40458,2.618321,-0.328244,1.052871,2.989346,13706,22419,8712,13706,0,111.111,1,normal
1780596815.5434823,9.578032600009465,355312,0.037109,-0.04541,1.063721,1.51145,2.832061,-0.664122,1.065336,3.278126,13708,22423,8714,13708,0,111.111,0,normal
1780596815.5745327,9.60908290000225,355343,0.046387,-0.001709,1.055664,3.076336,3.770992,-0.526718,1.056684,4.895064,13712,22429,8716,13712,0,111.111,5,normal
1780596815.6062706,9.640820700005861,355374,0.031006,-0.023682,1.052978,0.114504,3.503817,-0.625954,1.053701,3.561132,13716,22435,8718,13716,0,111.111,0,normal
1780596815.6381276,9.67267780000111,355405,0.057861,-0.02832,1.055664,2.305344,2.427481,-0.648855,1.057628,3.410027,13718,22440,8721,13718,1,111.111,13,normal
1780596815.6694095,9.703959700011183,355437,0.026611,0.003418,1.046875,1.038168,2.145038,-0.824427,1.047219,2.521639,13723,22447,8723,13723,0,111.111,0,normal
1780596815.7007189,9.735269000011613,355468,0.036865,-0.062012,1.062988,1.351145,2.717557,-0.717557,1.065434,3.118589,13725,22451,8725,13725,0,111.111,1,normal
1780596815.7304828,9.765032900002552,355499,0.059082,-0.001709,1.060791,3.038168,3.572519,-0.312977,1.062436,4.70014,13728,22456,8727,13728,1,111.111,14,normal
1780596815.762817,9.797367200008011,355530,0.047607,-0.017334,1.050781,0.274809,3.145038,-1.305344,1.052002,3.416242,13733,22463,8729,13733,0,111.111,0,normal
1780596815.7937756,9.828325700000278,355561,0.044678,-0.041992,1.051025,2.343511,2.557252,-0.801527,1.052812,3.56006,13735,22468,8732,13735,1,103.571,14,normal
1780596815.826439,9.860989200009499,355593,0.023438,-0.03418,1.05127,1.343511,2.51145,-0.358779,1.052086,2.870737,13740,22475,8734,13740,0,103.571,0,normal
1780596815.8573048,9.891855100009707,355625,0.020752,-0.040039,1.041016,1.274809,2.320611,-0.618321,1.041992,2.718951,13741,22477,8735,13741,0,103.571,5,normal
1780596815.8877785,9.922328700005892,355656,0.042236,-0.004639,1.053955,2.687023,3.419847,-0.908397,1.054811,4.443043,13744,22482,8737,13744,1,103.571,14,normal
1780596815.9189553,9.953505500001484,355687,0.042236,-0.022949,1.050293,0.793893,2.793893,-0.847328,1.051392,3.02557,13748,22487,8738,13748,0,103.571,6,normal
1780596815.9505804,9.985130600005505,355718,0.033447,-0.040527,1.046875,2.427481,2.854962,-0.687023,1.048193,3.809918,13750,22491,8740,13750,1,103.571,0,normal
1780596815.9809182,10.015468300000066,355749,0.041016,-0.043213,1.055664,1.442748,2.618321,-0.664122,1.057344,3.062382,13755,22498,8742,13755,1,103.571,3,normal
1780596816.0113404,10.04589050001232,355780,0.041016,-0.006592,1.071777,1.419847,3.580153,-0.778626,1.072582,3.929341,13758,22503,8744,13758,0,103.571,1,normal
1780596816.0423841,10.076934400000027,355811,0.03418,-0.053711,1.042969,1.671756,2.183206,-0.824427,1.04491,2.870686,13760,22508,8747,13760,1,100.0,14,normal
1780596816.0720792,10.10662940000475,355841,0.040039,-0.000977,1.048584,1.656489,2.549618,-0.534351,1.049349,3.087076,13765,22515,8749,13765,0,100.0,1,normal
1780596816.104073,10.138623300008476,355871,0.045166,-0.046875,1.055664,0.946565,3.053435,-0.755725,1.057669,3.284901,13767,22519,8751,13767,0,100.0,0,normal
1780596816.1337376,10.168287799999234,355902,0.052002,-0.007568,1.051514,2.694656,3.145038,-0.671756,1.052826,4.195676,13770,22524,8753,13770,1,100.0,13,normal
1780596816.1650493,10.199599500003387,355933,0.042236,-0.008789,1.041992,0.80916,3.236641,-0.877863,1.042885,3.449816,13775,22531,8755,13775,0,100.0,0,normal
1780596816.1956198,10.230170100010582,355964,0.029053,-0.027832,1.049805,1.442748,2.748092,-0.801527,1.050575,3.205616,13777,22535,8757,13777,0,100.0,0,normal
1780596816.2283287,10.262878900000942,355995,0.060547,-0.040283,1.054199,1.801527,3.183206,-1.022901,1.056705,3.797976,13781,22541,8759,13781,0,100.0,5,normal
1780596816.2582712,10.292821499999263,356026,0.06665,-0.012939,1.063965,1.305344,3.335878,-0.244275,1.066129,3.590498,13785,22547,8761,13785,0,100.0,0,normal
1780596816.289578,10.324128100008238,356057,0.028564,-0.047852,1.048584,1.931298,1.778626,-0.671756,1.050064,2.710106,13787,22552,8764,13787,1,100.0,13,normal
1780596816.3206072,10.35515740000119,356088,0.048828,-0.019043,1.053467,1.29771,2.312977,-0.29771,1.05477,2.66881,13792,22559,8766,13792,0,115.523,0,normal
1780596816.3509011,10.38545120001072,356119,0.019287,-0.046631,1.047363,1.381679,2.839695,-0.48855,1.048578,3.195557,13794,22563,8768,13794,0,115.523,1,normal
1780596816.3832245,10.417774600005941,356150,0.05249,0.002441,1.056396,2.725191,3.51145,-0.541985,1.057703,4.4778,13798,22569,8770,13798,0,115.523,5,normal
1780596816.4148006,10.449350900002173,356181,0.049805,-0.0271,1.060547,0.908397,3.557252,-0.763359,1.062061,3.749926,13802,22575,8772,13802,0,115.523,0,normal
1780596816.4458566,10.480406800008495,356212,0.052979,-0.021484,1.04834,2.305344,2.145038,-0.656489,1.049897,3.21664,13804,22580,8775,13804,1,115.523,14,normal
1780596816.4768662,10.511416400011512,356244,0.034668,-0.002197,1.044434,0.961832,2.10687,-0.908397,1.045011,2.487812,13810,22587,8776,13810,0,115.523,0,normal
1780596816.5081732,10.542723500009743,356275,0.040527,-0.053955,1.049561,1.221374,2.961832,-0.80916,1.051728,3.304382,13812,22591,8778,13812,0,115.523,1,normal
1780596816.5375092,10.572059400001308,356306,0.055176,-0.009277,1.050293,2.832061,3.580153,-0.549618,1.051782,4.597841,13815,22596,8780,13815,1,115.523,14,normal
1780596816.57029,10.604840300002252,356337,0.037598,-0.028076,1.050537,0.419847,2.480916,-1.007634,1.051584,2.71045,13820,22603,8782,13820,0,115.523,0,normal
1780596816.6015663,10.636116400011815,356368,0.039795,-0.045654,1.047852,2.305344,2.564885,-1.038168,1.0496,3.601533,13821,22605,8783,13821,0,103.571,5,normal
1780596816.6319997,10.666549900008249,356399,0.032959,-0.026367,1.053467,1.587786,2.549618,-0.816794,1.054312,3.112679,13827,22613,8785,13827,0,103.571,0,normal
1780596816.6639087,10.69845890000579,356431,0.051758,-0.019775,1.064941,1.061069,3.48855,-0.091603,1.066382,3.647498,13829,22617,8787,13829,0,103.571,1,normal
1780596816.6945312,10.729081299999962,356462,0.033936,-0.00708,1.049316,2.770992,3.229008,-0.633588,1.049889,4.301898,13831,22622,8790,13831,1,103.571,14,normal
1780596816.725402,10.759952400010661,356493,0.038818,-0.020752,1.046875,0.641221,2.526718,-0.748092,1.0478,2.71203,13836,22629,8792,13836,0,103.571,1,normal
1780596816.757317,10.791867300009471,356524,0.031738,-0.032227,1.049316,1.641221,2.755725,-1.068702,1.050291,3.380792,13838,22633,8794,13838,0,103.571,0,normal
1780596816.7870376,10.821587900005397,356555,0.054688,-0.035645,1.059814,1.847328,3.152672,-0.862595,1.061823,3.754468,13842,22639,8796,13842,0,103.571,6,normal
1780596816.8183331,10.85288340000261,356586,0.049316,-0.014648,1.074707,0.908397,3.519084,-0.587786,1.075938,3.681661,13846,22645,8798,13846,0,103.571,0,normal
1780596816.8494883,10.88403840000683,356617,0.020264,-0.040771,1.046875,2.305344,1.633588,-0.931298,1.047865,2.974985,13848,22650,8801,13848,1,103.571,13,normal
1780596816.8800771,10.91462720000709,356648,0.032715,-0.004395,1.040772,1.419847,2.450382,-0.679389,1.041295,2.912371,13853,22657,8803,13853,0,114.286,1,normal
1780596816.9120893,10.946639600006165,356679,0.046387,-0.047119,1.04834,1.366412,3.10687,-0.70229,1.050423,3.465968,13855,22661,8805,13855,0,114.286,0,normal
1780596816.9433086,10.97785890000523,356710,0.064453,-0.001221,1.058838,2.328244,3.641221,-0.755725,1.060798,4.38752,13859,22667,8807,13859,0,114.286,5,normal
1780596816.9738905,11.008440800011158,356741,0.049072,-0.04126,1.05957,0.603053,3.610687,-0.778626,1.061508,3.742592,13863,22673,8809,13863,0,114.286,0,normal
1780596817.006373,11.040923200009274,356773,0.041504,-0.036133,1.046387,2.335878,2.381679,-0.854962,1.047833,3.443789,13865,22678,8812,13865,1,114.286,13,normal
1780596817.0369341,11.07148430000234,356804,0.048584,-0.014893,1.05249,1.145038,2.496183,-0.458015,1.053716,2.784209,13871,22685,8813,13871,0,114.286,0,normal
1780596817.0687354,11.103285600009258,356836,0.019775,-0.044189,1.042969,1.282443,2.984733,-0.656489,1.044092,3.314252,13873,22689,8815,13873,0,114.286,1,normal
1780596817.0981178,11.13266790000489,356867,0.053711,0.00293,1.063232,2.961832,3.778626,-0.419847,1.064592,4.819412,13877,22695,8817,13877,0,114.286,5,normal
1780596817.12804,11.162590200008708,356897,0.03125,-0.021973,1.04126,0.167939,3.167939,-0.977099,1.04196,3.319452,13881,22701,8819,13881,0,114.286,1,normal
1780596817.1604598,11.19501000001037,356927,0.036133,-0.031494,1.061279,2.099237,2.717557,-1.053435,1.062361,3.591885,13882,22703,8820,13882,0,103.943,5,normal
1780596817.1916597,11.226209800006473,356959,0.054688,-0.036377,1.056396,1.458015,2.541985,-0.969466,1.058436,3.086642,13888,22711,8822,13888,0,103.943,0,normal
1780596817.2234466,11.257996700005606,356991,0.031738,-0.043457,1.066162,0.717557,2.832061,-0.725191,1.067519,3.010209,13890,22715,8824,13890,0,103.943,0,normal
1780596817.260737,11.295287200002349,357028,0.05127,-0.04834,1.056152,2.251908,3.145038,-0.694656,1.0585,3.93,13896,22723,8826,13896,0,103.943,1,normal
1780596817.2916484,11.32619859999977,357059,0.032715,-0.051025,1.057373,1.458015,2.923664,-0.610687,1.059109,3.323636,13898,22727,8828,13898,0,103.943,1,normal
1780596817.3226128,11.357163000007858,357090,0.038086,-0.002441,1.056396,2.954198,3.877863,-0.328244,1.057086,4.885985,13901,22732,8830,13901,1,103.943,13,normal
1780596817.3547206,11.389270900006522,357121,0.039307,-0.015625,1.052978,0.152672,3.442748,-0.824427,1.053828,3.543374,13906,22739,8832,13906,0,103.943,1,normal
1780596817.3850832,11.419633299999987,357152,0.061768,-0.031494,1.050293,2.503817,2.694656,-0.816794,1.052579,3.767947,13908,22744,8835,13908,1,103.943,14,normal
1780596817.4171019,11.45165210000414,357184,0.024902,-0.007324,1.045654,1.427481,2.221374,-0.396947,1.045976,2.670163,13913,22751,8837,13913,0,120.623,0,normal
1780596817.4472086,11.481758800000534,357215,0.039795,-0.060059,1.058594,0.931298,2.259542,-0.854962,1.061043,2.589171,13915,22755,8839,13915,0,120.623,0,normal
1780596817.4781353,11.512685599998804,357246,0.060059,-0.034912,1.05127,2.374046,3.267176,-1.21374,1.053562,4.217072,13918,22760,8841,13918,1,120.623,13,normal
1780596817.5084655,11.543015700008254,357277,0.04126,-0.030029,1.052002,0.206107,2.480916,-0.793893,1.053239,2.612985,13923,22767,8843,13923,0,120.623,0,normal
1780596817.5403802,11.574930500006303,357308,0.032227,-0.046631,1.058594,1.885496,2.473282,-0.839695,1.06011,3.221383,13925,22771,8845,13925,0,120.623,1,normal
1780596817.5712397,11.605789799999911,357339,0.032959,-0.035156,1.054932,1.503817,3.015267,-0.580153,1.056032,3.419046,13930,22777,8846,13930,0,120.623,5,normal
1780596817.6015067,11.636057000010624,357370,0.053467,-0.000488,1.068848,1.519084,3.175573,-0.694656,1.070184,3.588095,13934,22783,8848,13934,0,120.623,0,normal
1780596817.632869,11.667419200006407,357401,0.052002,-0.067383,1.046631,2.0,2.793893,-0.80916,1.050086,3.529954,13936,22788,8851,13936,1,120.623,14,normal
1780596817.6636212,11.69817139999941,357431,0.049561,-0.00415,1.03833,1.480916,1.91603,-0.78626,1.03952,2.546074,13941,22795,8853,13941,0,120.623,0,normal
1780596817.696122,11.730672100005904,357462,0.054688,-0.054688,1.053223,1.320611,3.068702,-1.007634,1.056058,3.489452,13943,22799,8855,13943,0,107.914,0,normal
1780596817.7257447,11.760295000000042,357493,0.051514,-0.000732,1.049316,3.122137,3.358779,-0.847328,1.05058,4.663379,13946,22803,8856,13946,0,107.914,6,normal
1780596817.7575357,11.792085799999768,357525,0.057617,-0.006592,1.068359,0.847328,3.977099,-0.572519,1.069932,4.106466,13950,22809,8858,13950,0,107.914,0,normal
1780596817.7884874,11.823037599999225,357556,0.059326,-0.033447,1.04834,2.244275,1.51145,-0.534351,1.05055,2.75804,13952,22814,8861,13952,1,107.914,13,normal
1780596817.8199425,11.854492600003141,357587,0.035156,-0.002441,1.047119,1.068702,2.236641,-0.748092,1.047712,2.589272,13957,22821,8863,13957,0,107.914,1,normal
1780596817.8507628,11.885313000006136,357618,0.03418,-0.046143,1.040039,1.244275,2.618321,-0.832061,1.041623,3.015982,13959,22825,8865,13959,0,107.914,0,normal
1780596817.8816776,11.916227699999581,357649,0.05542,-0.006104,1.057617,2.770992,3.519084,-0.816794,1.059086,4.552966,13962,22830,8867,13962,1,107.914,14,normal
1780596817.9122682,11.946818299998995,357680,0.051514,-0.02002,1.043457,0.343511,3.290076,-1.114504,1.04492,3.490662,13967,22837,8869,13967,0,107.914,0,normal
1780596817.943689,11.978239200005191,357711,0.044189,-0.034668,1.054443,2.312977,2.755725,-0.740458,1.055938,3.673168,13969,22842,8872,13969,1,107.914,14,normal
1780596817.9752944,12.009844600004726,357743,0.027344,-0.009521,1.053711,1.503817,2.198473,-0.625954,1.054109,2.736159,13975,22849,8873,13975,0,113.879,0,normal
1780596818.0068176,12.041367800004082,357774,0.043701,-0.049805,1.061523,0.862595,2.648855,-0.435114,1.063589,2.819544,13977,22853,8875,13977,0,113.879,1,normal
1780596818.0376682,12.072218300003442,357805,0.069092,-0.043701,1.05957,2.717557,2.961832,-0.793893,1.06272,4.097296,13979,22858,8878,13979,1,113.879,13,normal
1780596818.0689127,12.103463000006741,357836,0.035645,-0.015625,1.049805,0.625954,2.427481,-0.862595,1.050526,2.651142,13984,22865,8880,13984,0,113.879,1,normal
1780596818.0995023,12.13405250001233,357867,0.03418,-0.037354,1.05249,1.557252,2.732824,-0.78626,1.053707,3.242155,13985,22867,8881,13985,0,113.879,6,normal
1780596818.1304529,12.165003000001889,357898,0.047852,-0.0354,1.065186,1.832061,2.305344,-1.038168,1.066847,3.122315,13990,22873,8882,13990,0,113.879,5,normal
1780596818.1604536,12.195003800006816,357929,0.078857,0.007324,1.078125,1.374046,3.183206,-0.877863,1.08103,3.576513,13994,22879,8884,13994,0,113.879,0,normal
1780596818.1921458,12.226695900011691,357960,0.036133,-0.040039,1.036377,2.083969,2.282443,-0.816794,1.037779,3.196815,13996,22884,8887,13996,1,113.879,13,normal
1780596818.2229986,12.257548800000222,357991,0.039307,0.005859,1.038574,1.152672,2.503817,-0.465649,1.039334,2.795457,14001,22891,8889,14001,0,113.879,0,normal
1780596818.254248,12.288798000008683,358022,0.023926,-0.040039,1.043701,1.572519,2.664122,-0.862595,1.044743,3.211609,14003,22895,8891,14003,0,100.358,1,normal
1780596818.2855062,12.320056399999885,358053,0.050781,-0.003418,1.054443,2.603053,3.984733,-0.755725,1.055671,4.819243,14007,22901,8893,14007,0,100.358,6,normal
1780596818.3160388,12.350589100009529,358084,0.044678,-0.034668,1.044678,0.694656,3.870229,-0.656489,1.046207,3.986502,14011,22907,8895,14011,0,100.358,1,normal
1780596818.3475146,12.382064900011756,358115,0.050781,-0.030029,1.049805,2.099237,2.053435,-0.854962,1.051461,3.058488,14013,22912,8898,14013,1,100.358,14,normal
1780596818.3782015,12.412751700001536,358146,0.022705,-0.008545,1.046875,1.343511,2.282443,-0.290076,1.047156,2.664341,14018,22919,8900,14018,0,100.358,0,normal
1780596818.4102983,12.444848600003752,358177,0.036865,-0.028809,1.056641,1.206107,3.10687,-0.412214,1.057676,3.358163,14020,22923,8902,14020,0,100.358,0,normal
1780596818.439674,12.474224200006574,358208,0.068848,-0.006592,1.052978,2.694656,3.328244,-0.839695,1.055247,4.363882,14023,22928,8904,14023,1,100.358,13,normal
1780596818.470877,12.505427200012491,358239,0.049805,-0.02124,1.045166,0.541985,2.862595,-0.618321,1.046568,2.978342,14028,22935,8906,14028,0,100.358,1,normal
1780596818.5026586,12.537208900001133,358270,0.047363,-0.030273,1.063965,1.832061,2.549618,-0.748092,1.065449,3.227482,14030,22939,8908,14030,0,100.358,0,normal
1780596818.535269,12.569819100011955,358301,0.039307,-0.036377,1.053711,1.725191,3.282443,-0.59542,1.055071,3.755694,14035,22945,8909,14035,0,114.695,5,normal
1780596818.566368,12.600918299998739,358333,0.034424,-0.027832,1.066162,0.916031,3.328244,-0.633588,1.067081,3.509666,14039,22951,8911,14039,0,114.695,0,normal
1780596818.597266,12.631816100009019,358364,0.048828,-0.055176,1.048584,2.351145,2.480916,-0.80916,1.051169,3.512488,14041,22956,8914,14041,1,114.695,13,normal
1780596818.6274073,12.661957600008463,358395,0.040771,0.009033,1.043701,0.793893,2.122137,-0.931298,1.044536,2.449704,14046,22963,8916,14046,0,114.695,0,normal
1780596818.6579366,12.692486800006009,358426,0.054932,-0.031738,1.052734,1.938931,2.885496,-1.221374,1.054644,3.684738,14047,22965,8917,14047,0,114.695,5,normal
1780596818.689099,12.723649200008367,358457,0.061279,-0.033936,1.067383,2.137405,3.114504,-0.534351,1.069679,3.814992,14051,22971,8919,14051,0,114.695,5,normal
1780596818.7203736,12.754923800006509,358488,0.072021,0.014648,1.075928,1.114504,3.236641,-0.740458,1.078435,3.50232,14055,22977,8921,14055,0,114.695,1,normal
1780596818.75054,12.78509020000638,358519,0.042725,-0.033691,1.046875,2.236641,2.51145,-0.694656,1.048288,3.43402,14057,22982,8924,14057,1,114.695,14,normal
1780596818.7822754,12.81682570000703,358550,0.03833,-0.003418,1.041992,1.442748,2.763359,-0.572519,1.042703,3.169456,14062,22989,8926,14062,0,114.695,0,normal
1780596818.8152514,12.849801600008504,358581,0.038086,-0.041016,1.050049,1.259542,2.534351,-0.80916,1.05154,2.943488,14064,22993,8928,14064,0,103.571,0,normal
1780596818.8444173,12.878967500000726,358612,0.054688,-0.009033,1.049805,2.832061,3.557252,-0.519084,1.051267,4.576468,14068,22999,8930,14068,0,103.571,6,normal
1780596818.8764572,12.911007500006235,358643,0.047119,-0.026611,1.061035,0.312977,3.290076,-1.007634,1.062414,3.455124,14072,23005,8932,14072,0,103.571,0,normal
1780596818.9064512,12.941001400002278,358674,0.045166,-0.05127,1.052246,2.664122,2.732824,-0.839695,1.054462,3.907808,14074,23010,8935,14074,1,103.571,14,normal
1780596818.9373443,12.971894500005874,358705,0.03125,-0.029785,1.040772,1.458015,2.732824,-0.961832,1.041666,3.243341,14079,23017,8937,14079,0,103.571,1,normal
1780596818.9680145,13.002564700000221,358736,0.034912,-0.016846,1.064941,1.08397,3.29771,-0.679389,1.065647,3.537153,14081,23021,8939,14081,0,103.571,0,normal
1780596818.9999804,13.034530700009782,358767,0.057129,-0.070801,1.053711,2.312977,2.80916,-0.51145,1.057631,3.674619,14083,23026,8942,14083,1,103.571,14,normal
1780596819.030325,13.064875200012466,358798,0.053223,-0.020264,1.055176,0.534351,2.496183,-0.641221,1.056711,2.632038,14087,23031,8943,14087,0,103.571,6,normal
1780596819.0617566,13.096306799998274,358829,0.026855,-0.027588,1.061279,1.740458,2.305344,-0.839695,1.061977,3.008137,14089,23035,8945,14089,0,103.571,0,normal
1780596819.0924947,13.12704500000109,358860,0.043457,-0.032227,1.061279,1.839695,3.015267,-0.885496,1.062657,3.641486,14093,23041,8947,14093,0,103.943,6,normal
1780596819.1248703,13.159420399999362,358892,0.035156,-0.019043,1.057861,1.335878,3.328244,-0.778626,1.058617,3.669882,14095,23045,8949,14095,0,103.943,1,normal
1780596819.1566648,13.19121499999892,358923,0.049805,-0.064209,1.048584,2.022901,2.328244,-0.70229,1.051728,3.163236,14097,23050,8952,14097,1,103.943,14,normal
1780596819.1868007,13.22135089999938,358954,0.029785,0.004395,1.044678,1.236641,2.526718,-0.419847,1.045111,2.844267,14102,23057,8954,14102,0,103.943,0,normal
1780596819.231921,13.266471100010676,358985,0.038818,-0.046875,1.062012,1.435114,3.183206,-0.526718,1.063754,3.531258,14103,23059,8955,14103,0,103.943,6,normal
1780596819.248355,13.282905000000028,359016,0.061279,-0.02417,1.067871,2.175573,3.603053,-0.740458,1.069901,4.273568,14107,23065,8957,14107,0,103.943,6,normal
1780596819.2795556,13.314105700002983,359048,0.049072,-0.008789,1.073486,0.877863,4.076336,-0.160305,1.074643,4.172871,14111,23071,8959,14111,0,103.943,1,normal
1780596819.3118007,13.34635100000014,359079,0.019043,-0.033691,1.043213,1.946565,2.549618,-0.664122,1.04393,3.275779,14113,23076,8962,14113,1,103.943,13,normal
1780596819.341854,13.376404399998137,359110,0.051025,-0.001221,1.050049,1.458015,1.801527,-0.748092,1.051288,2.435354,14118,23083,8964,14118,0,100.0,1,normal
1780596819.373989,13.408539299998665,359141,0.039551,-0.038574,1.056396,1.358779,2.748092,-0.763359,1.05784,3.159273,14120,23087,8966,14120,0,100.0,0,normal
1780596819.4048276,13.439377900009276,359172,0.044189,0.01001,1.061279,3.114504,3.610687,-0.564886,1.062246,4.801697,14124,23093,8968,14124,0,100.0,6,normal
1780596819.435396,13.469946199998958,359203,0.032471,-0.01709,1.065186,0.335878,3.114504,-1.091603,1.065817,3.31731,14128,23099,8970,14128,0,100.0,0,normal
1780596819.467093,13.50164329999825,359234,0.034912,-0.032715,1.056152,2.427481,2.656489,-0.458015,1.057236,3.627585,14130,23104,8973,14130,1,100.0,13,normal
1780596819.4973648,13.53191489999881,359265,0.050049,-0.021484,1.056152,1.732824,2.648855,-0.725191,1.057556,3.247309,14135,23111,8975,14135,0,100.0,1,normal
1780596819.5292456,13.563795800000662,359297,0.026855,-0.044434,1.053955,1.091603,2.48855,-0.961832,1.055233,2.882637,14137,23115,8977,14137,0,100.0,0,normal
1780596819.5598946,13.594444700007443,359328,0.045654,-0.01001,1.045654,2.755725,3.732824,-0.725191,1.046698,4.696158,14140,23120,8979,14140,1,100.0,14,normal
1780596819.5900378,13.624588100006804,359359,0.051025,-0.035889,1.062256,0.358779,3.0,-0.938931,1.064086,3.163908,14144,23125,8980,14144,0,100.0,6,normal
1780596819.6211627,13.655712799998582,359389,0.024658,-0.040771,1.059326,1.641221,2.412214,-1.099237,1.060397,3.117804,14146,23129,8982,14146,0,100.358,0,normal
1780596819.652151,13.686701400001766,359420,0.054932,-0.040527,1.067383,1.770992,2.778626,-0.587786,1.069563,3.347039,14150,23135,8984,14150,0,100.358,6,normal
1780596819.6835167,13.718066900008125,359451,0.069824,0.012207,1.07373,1.038168,2.984733,-0.564886,1.076068,3.210221,14152,23139,8986,14152,0,100.358,1,normal
1780596819.7150931,13.749643300005118,359482,0.039307,-0.039062,1.05127,2.328244,1.908397,-0.625954,1.052729,3.07482,14154,23144,8989,14154,1,100.358,14,normal
1780596819.7447145,13.779264600001625,359513,0.030273,0.001953,1.037354,1.328244,2.351145,-0.618321,1.037797,2.770277,14159,23151,8991,14159,0,100.358,1,normal
1780596819.7763066,13.81085670000175,359544,0.033691,-0.031738,1.046631,1.351145,2.832061,-0.778626,1.047654,3.23302,14160,23153,8992,14160,0,100.358,6,normal
1780596819.8076787,13.842228900000919,359575,0.058594,-0.007324,1.046875,3.175573,3.709924,-0.755725,1.048539,4.94155,14164,23159,8994,14164,0,100.358,6,normal
1780596819.8382883,13.87283860000025,359606,0.051025,-0.027588,1.050781,0.671756,2.526718,-0.870229,1.052381,2.755514,14168,23165,8996,14168,0,100.358,0,normal
1780596819.8700988,13.904649100004463,359637,0.045654,-0.015869,1.052002,2.671756,2.274809,-0.671756,1.053112,3.572715,14170,23170,8999,14170,1,100.358,13,normal
1780596819.900316,13.934866299998248,359668,0.014893,-0.039307,1.037354,1.633588,2.183206,-0.770992,1.038205,2.833624,14175,23177,9001,14175,0,103.943,1,normal
1780596819.932251,13.966801100003067,359699,0.026123,-0.019287,1.057861,1.068702,2.916031,-0.977099,1.05836,3.255777,14177,23181,9003,14177,0,103.943,0,normal
1780596819.9624555,13.997005600002012,359730,0.061035,-0.024658,1.049805,2.427481,2.763359,-0.839695,1.051866,3.772784,14179,23186,9006,14179,1,103.943,14,normal
1780596819.9944277,14.028977800000575,359761,0.048096,-0.019043,1.041504,0.442748,2.839695,-0.396947,1.042788,2.901286,14184,23193,9008,14184,0,103.943,0,normal
1780596820.0258465,14.060396600005333,359792,0.041992,-0.04126,1.047119,1.679389,2.687023,-0.755725,1.048773,3.257539,14186,23197,9010,14186,0,103.943,0,normal
1780596820.0569117,14.09146180000971,359823,0.040283,-0.037598,1.051758,1.908397,3.053435,-0.816794,1.0532,3.692235,14190,23203,9012,14190,0,103.943,6,normal
1780596820.0878987,14.122448900001473,359855,0.036133,-0.013916,1.057617,1.343511,2.977099,-0.587786,1.058326,3.31868,14194,23209,9014,14194,0,103.943,1,normal
1780596820.119436,14.153986300007091,359886,0.043701,-0.073242,1.039307,1.854962,2.870229,-0.900763,1.0428,3.534186,14196,23214,9017,14196,1,103.943,13,normal
1780596820.149849,14.184399200006737,359917,0.033691,0.01123,1.041992,1.351145,2.450382,-0.40458,1.042597,2.827304,14200,23219,9018,14200,0,103.943,5,normal
1780596820.1803017,14.214851800003089,359948,0.018066,-0.039062,1.045654,1.435114,2.908397,-0.709924,1.04654,3.319988,14202,23223,9020,14202,0,96.429,0,normal
1780596820.212207,14.246757200002321,359979,0.062988,-0.022949,1.066894,2.007634,3.541985,-0.763359,1.068999,4.142338,14206,23229,9022,14206,0,96.429,6,normal
1780596820.2418365,14.276386700003059,360010,0.062744,-0.007813,1.058106,1.160305,3.328244,-1.099237,1.059993,3.692132,14208,23233,9024,14208,0,96.429,0,normal
1780596820.2744257,14.308975899999496,360041,0.055908,-0.032959,1.04126,2.053435,2.229008,-0.770992,1.04328,3.127219,14210,23238,9027,14210,1,96.429,14,normal
1780596820.3037398,14.338289999999688,360072,0.059326,0.006104,1.04541,1.160305,2.572519,-0.618321,1.04711,2.889028,14216,23245,9028,14216,0,96.429,1,normal
1780596820.3340595,14.368609700002708,360102,0.033447,-0.032959,1.050537,0.847328,2.977099,-0.687023,1.051586,3.17066,14218,23249,9030,14218,0,96.429,0,normal
1780596820.374646,14.409196200009319,360132,0.034424,-0.046875,1.050293,1.679389,1.557252,-0.633588,1.051902,2.376303,14220,23254,9033,14220,1,96.429,14,normal
1780596820.3950284,14.42957860000024,360163,0.04834,-0.002197,1.048828,1.427481,2.183206,-0.618321,1.049944,2.680748,14225,23261,9035,14225,0,96.429,0,normal
1780596820.4267137,14.461263800010784,360194,0.030762,-0.044922,1.056396,1.557252,2.877863,-0.679389,1.057798,3.34196,14227,23265,9037,14227,0,96.429,0,normal
1780596820.4578295,14.492379600007553,360225,0.064697,-0.000732,1.064697,2.450382,4.030534,-0.603053,1.066661,4.755339,14231,23271,9039,14231,0,104.693,6,normal
1780596820.488341,14.522891300002811,360256,0.054688,-0.022461,1.078369,0.755725,3.755725,-0.824427,1.079988,3.918708,14235,23277,9041,14235,0,104.693,1,normal
1780596820.5196753,14.554225400002906,360287,0.062012,-0.018799,1.05127,2.152672,1.740458,-0.70229,1.053265,2.855942,14237,23282,9044,14237,1,104.693,14,normal
1780596820.5506644,14.585214600010659,360318,0.036133,-0.028076,1.049316,1.465649,2.389313,-0.587786,1.050314,2.863989,14242,23289,9046,14242,0,104.693,0,normal
1780596820.5811605,14.615710800004308,360349,0.032959,-0.052002,1.05249,1.045802,2.496183,-0.717557,1.054289,2.799914,14244,23293,9048,14244,0,104.693,0,normal
1780596820.6130233,14.647573400012334,360380,0.057129,-0.019775,1.051025,2.473282,3.198473,-0.748092,1.052763,4.111812,14247,23298,9050,14247,1,104.693,13,normal
1780596820.643042,14.677592300009564,360411,0.040283,-0.02002,1.038818,0.519084,2.78626,-1.007634,1.039792,3.007992,14252,23305,9052,14252,0,104.693,0,normal
1780596820.6750524,14.709602600007202,360442,0.029785,-0.051514,1.046387,1.587786,2.458015,-0.679389,1.048077,3.004076,14254,23309,9054,14254,0,104.693,0,normal
1780596820.706205,14.740755100006936,360473,0.039062,-0.036865,1.056396,1.435114,2.603053,-0.938931,1.057761,3.117215,14259,23315,9055,14259,0,104.693,5,normal
1780596820.7365136,14.771063899999717,360504,0.041016,-0.001709,1.061035,1.419847,3.374046,-0.816794,1.061829,3.750641,14261,23319,9057,14261,0,107.527,0,normal
1780596820.767539,14.802089200005867,360535,0.016357,-0.043701,1.035889,1.954198,2.763359,-0.885496,1.036939,3.498449,14263,23324,9060,14263,1,107.527,14,normal
1780596820.7977571,14.832307300006505,360566,0.056396,0.003662,1.049805,1.419847,2.381679,-0.694656,1.051325,2.85848,14266,23329,9062,14266,0,107.527,0,normal
1780596820.8298597,14.86441000000923,360597,0.055176,-0.042236,1.053467,1.709924,2.564885,-0.664122,1.055756,3.153337,14268,23333,9064,14268,0,107.527,1,normal
1780596820.8605356,14.895085900003323,360628,0.062744,0.003906,1.053711,2.656489,3.755725,-0.465649,1.055585,4.623768,14272,23339,9066,14272,0,107.527,5,normal
1780596820.8922136,14.926763700001175,360659,0.040771,-0.027344,1.053955,0.587786,3.664122,-0.633588,1.055098,3.764667,14275,23343,9067,14275,0,107.527,5,normal
1780596820.9234662,14.958016500007943,360690,0.050049,-0.030029,1.05542,2.412214,2.572519,-0.305344,1.057033,3.539755,14277,23348,9070,14277,1,107.527,14,normal
1780596820.9544547,14.989004900009604,360721,0.038818,-0.019043,1.045898,1.480916,1.992366,-1.0,1.046792,2.67631,14282,23355,9072,14282,0,107.527,0,normal
1780596820.9836712,15.018221300008008,360752,0.044922,-0.03125,1.059814,0.961832,2.885496,-0.687023,1.061226,3.118206,14284,23359,9074,14284,0,107.527,1,normal
1780596821.0154104,15.049960700009251,360782,0.062256,-0.059082,1.062012,1.885496,2.78626,-0.877863,1.065474,3.476921,14286,23364,9077,14286,1,89.928,13,normal
1780596821.04604,15.08059030000004,360813,0.053223,0.007568,1.043701,1.48855,2.564885,-0.832061,1.045085,3.080056,14291,23371,9079,14291,0,89.928,1,normal
1780596821.0776727,15.112222900002962,360844,0.043945,-0.055664,1.049805,1.503817,2.374046,-0.694656,1.052197,2.894841,14293,23375,9081,14293,0,89.928,0,normal
1780596821.1071146,15.141664700000547,360875,0.053711,0.009277,1.065918,2.152672,3.641221,-0.282443,1.067311,4.239371,14297,23381,9083,14297,0,89.928,6,normal
1780596821.1382241,15.172774400009075,360906,0.063721,0.010254,1.069824,0.977099,3.969466,-0.541985,1.071769,4.123728,14301,23387,9085,14301,0,89.928,0,normal
1780596821.1693516,15.20390180000686,360937,0.053467,-0.033936,1.047363,2.305344,2.007634,-0.610687,1.049276,3.117393,14303,23392,9088,14303,1,89.928,14,normal
1780596821.2000017,15.234551800007466,360968,0.041748,-0.003418,1.049561,1.40458,2.206107,-0.80916,1.050396,2.737607,14308,23399,9090,14308,0,89.928,1,normal
1780596821.232269,15.266819199998281,360999,0.054443,-0.048828,1.056396,1.40458,3.007634,-0.679389,1.058925,3.388255,14310,23403,9092,14310,0,89.928,0,normal
1780596821.2667284,15.30127860000357,361030,0.039062,-0.000244,1.050781,2.29771,3.068702,-0.480916,1.051507,3.863636,14313,23408,9094,14313,1,89.928,13,normal
1780596821.2917416,15.32629180001095,361060,0.051514,0.002686,1.05542,0.870229,2.816794,-0.80916,1.05668,3.057183,14318,23415,9096,14318,0,115.108,0,normal
1780596821.3226986,15.357248800006346,361091,0.026611,-0.0354,1.057373,1.847328,2.320611,-1.091603,1.0583,3.16061,14320,23419,9098,14320,0,115.108,1,normal
1780596821.3530781,15.38762819999829,361121,0.056885,-0.006836,1.060059,2.923664,3.358779,-0.312977,1.061606,4.463984,14324,23425,9100,14324,0,115.108,5,normal
1780596821.3858538,15.420403900003294,361152,0.038818,-0.021729,1.063232,0.694656,3.343511,-0.946565,1.064163,3.543671,14328,23431,9102,14328,0,115.108,0,normal
1780596821.415612,15.4501622000098,361183,0.044189,-0.016846,1.052246,2.229008,2.480916,-0.496183,1.053308,3.371886,14330,23436,9105,14330,1,115.108,13,normal
1780596821.4470987,15.481648900007713,361214,0.024658,-0.03418,1.044189,0.992366,2.549618,-0.793893,1.04504,2.848791,14334,23441,9106,14334,0,115.108,5,normal
1780596821.4773426,15.51189290000184,361245,0.040527,-0.014893,1.066894,0.931298,2.916031,-0.671756,1.067768,3.133976,14336,23445,9108,14336,0,115.108,1,normal
1780596821.5085783,15.543128600009368,361276,0.060303,-0.031738,1.046143,2.427481,3.198473,-0.748092,1.04836,4.084426,14338,23450,9111,14338,1,115.108,14,normal
1780596821.5392363,15.57378650001192,361307,0.04248,-0.017578,1.037354,0.839695,2.931298,-0.748092,1.038372,3.139623,14341,23455,9113,14341,0,115.108,0,normal
1780596821.5705972,15.605147400012356,361338,0.039795,-0.041992,1.057617,1.664122,2.80916,-1.10687,1.059198,3.447585,14343,23459,9115,14343,0,89.928,0,normal
1780596821.6017244,15.636274500007858,361369,0.043945,-0.039062,1.061279,1.854962,3.015267,-0.80916,1.062907,3.631454,14347,23465,9117,14347,0,89.928,6,normal
1780596821.6342535,15.668803799999296,361401,0.048584,-0.013184,1.052978,1.259542,3.564885,-0.717557,1.054181,3.848343,14351,23471,9119,14351,0,89.928,1,normal
1780596821.6647081,15.699258400010876,361432,0.041016,-0.05957,1.046631,1.618321,2.977099,-0.458015,1.049127,3.419336,14353,23476,9122,14353,1,89.928,14,normal
1780596821.6960733,15.730623399998876,361463,0.033447,0.004395,1.04248,1.732824,2.709924,-0.633588,1.043026,3.278384,14358,23483,9124,14358,0,89.928,0,normal
1780596821.7262433,15.760793400011607,361493,0.043457,-0.047852,1.05127,1.618321,2.854962,-0.854962,1.053255,3.391272,14360,23487,9126,14360,0,89.928,0,normal
1780596821.7557576,15.79030770000827,361524,0.043701,-0.00293,1.050049,2.687023,3.312977,-0.870229,1.050962,4.353528,14363,23492,9128,14363,0,89.928,13,normal
1780596821.7887359,15.823285999998916,361555,0.032471,-0.0271,1.061279,0.480916,3.259542,-0.679389,1.062122,3.364144,14368,23499,9130,14368,0,89.928,1,normal
1780596821.8200798,15.854630100002396,361586,0.032227,-0.049316,1.040772,2.458015,2.732824,-0.625954,1.042437,3.728537,14370,23504,9133,14370,1,89.928,14,normal
1780596821.851189,15.885739100005594,361617,0.029053,-0.036865,1.059326,1.053435,2.725191,-0.854962,1.060365,3.044232,14375,23511,9135,14375,0,114.695,0,normal
1780596821.8824832,15.917033500008984,361649,0.039551,-0.049805,1.052978,1.137405,2.854962,-0.549618,1.054897,3.121951,14377,23515,9137,14377,0,114.695,0,normal
1780596821.9139786,15.94852869999886,361680,0.056152,-0.014648,1.053467,2.641221,3.114504,-0.854962,1.055064,4.172187,14380,23520,9139,14380,1,114.695,13,normal
1780596821.9435635,15.978113700009999,361711,0.059814,-0.018555,1.057617,0.641221,2.503817,-0.442748,1.05947,2.622268,14385,23527,9141,14385,0,114.695,1,normal
1780596821.9751077,16.009657800008426,361742,0.037842,-0.046631,1.054199,1.89313,2.396947,-0.854962,1.055908,3.17179,14387,23531,9143,14387,0,114.695,0,normal
1780596822.0062878,16.040837900000042,361773,0.038574,-0.036865,1.052002,1.541985,2.732824,-0.473282,1.053354,3.173333,14392,23537,9144,14392,0,114.695,5,normal
1780596822.0377178,16.072268000003533,361805,0.037842,-0.017822,1.060791,0.89313,3.603053,-0.603053,1.061615,3.760764,14396,23543,9146,14396,0,114.695,0,normal
1780596822.0685143,16.103064499999164,361836,0.049805,-0.040039,1.052002,1.977099,2.145038,-0.801527,1.053941,3.025319,14398,23548,9149,14398,1,114.695,13,normal
1780596822.098781,16.13333140000759,361867,0.041504,0.005127,1.047607,1.419847,2.496183,-0.709924,1.048442,2.95819,14403,23555,9151,14403,0,112.0,1,normal
1780596822.1300318,16.16458200001216,361898,0.033936,-0.033936,1.053955,1.946565,2.816794,-0.770992,1.055047,3.509683,14405,23559,9153,14405,0,112.0,0,normal
1780596822.1620917,16.196642000009888,361929,0.054688,-0.000732,1.068848,1.977099,3.312977,-0.801527,1.070246,3.940455,14409,23565,9155,14409,0,112.0,5,normal
1780596822.192149,16.226699200007715,361960,0.075928,0.00708,1.094482,0.969466,3.778626,-0.59542,1.097136,3.946188,14412,23569,9156,14412,0,112.0,6,normal
1780596822.2230022,16.25755230001232,361990,0.061768,-0.012695,1.051025,2.366412,2.824427,-0.717557,1.052915,3.753956,14414,23574,9159,14414,1,112.0,13,normal
1780596822.2535548,16.288104999999632,362021,0.043213,-0.034912,1.059082,1.610687,2.435115,-0.725191,1.060538,3.008321,14418,23579,9160,14418,0,112.0,5,normal
1780596822.2841103,16.318660500008264,362052,0.036377,-0.015625,1.070068,1.267176,3.282443,-0.916031,1.0708,3.635832,14420,23583,9162,14420,0,112.0,0,normal
1780596822.3174686,16.352018800011138,362083,0.049805,-0.028076,1.046875,2.473282,2.78626,-0.687023,1.048435,3.788452,14422,23588,9165,14422,1,112.0,14,normal
1780596822.354086,16.388636000003316,362114,0.036377,-0.007568,1.041504,0.694656,2.709924,-1.099237,1.042166,3.005754,14427,23595,9167,14427,0,112.0,0,normal
1780596822.378544,16.41309430000547,362145,0.035645,-0.036133,1.043701,1.442748,2.633588,-0.763359,1.044934,3.09839,14428,23597,9168,14428,0,89.928,5,normal
1780596822.409397,16.44394700000703,362176,0.043701,-0.018066,1.061035,2.091603,3.183206,-0.70229,1.062088,3.873089,14432,23603,9170,14432,0,89.928,6,normal
1780596822.4394677,16.47401780000655,362207,0.055664,0.005371,1.073975,0.908397,3.961832,-0.717557,1.07543,4.127492,14436,23609,9172,14436,0,89.928,0,normal
1780596822.470259,16.504809200007003,362237,0.048584,-0.02124,1.04541,2.167939,2.396947,-0.381679,1.046754,3.25438,14438,23614,9175,14438,1,89.928,14,normal
1780596822.5015335,16.536083800005144,362268,0.027832,-0.031982,1.048828,1.519084,2.267176,-0.610687,1.049685,2.796541,14443,23621,9177,14443,0,89.928,0,normal
1780596822.5307775,16.56532760000846,362299,0.051025,-0.032471,1.070068,1.0,3.40458,-0.51145,1.071776,3.585073,14445,23625,9179,14445,0,89.928,1,normal
1780596822.5620885,16.59663860000728,362329,0.050537,-0.067627,1.05249,1.992366,2.083969,-1.099237,1.055871,3.085575,14447,23630,9182,14447,1,89.928,13,normal
1780596822.592776,16.627326200003154,362360,0.050781,0.006592,1.051514,1.030534,2.091603,-0.931298,1.05276,2.510801,14452,23637,9184,14452,0,89.928,1,normal
1780596822.6235244,16.65807470001164,362391,0.045898,-0.057129,1.048828,1.664122,2.526718,-0.862595,1.051385,3.146057,14454,23641,9186,14454,0,89.928,0,normal
1780596822.6549103,16.68946059999871,362422,0.050537,-0.025635,1.07251,2.274809,3.748092,-0.274809,1.074006,4.393002,14458,23647,9188,14458,0,108.303,6,normal
1780596822.6851683,16.719718500011368,362453,0.062744,0.000732,1.074951,1.10687,3.70229,-0.572519,1.076781,3.906391,14462,23653,9190,14462,0,108.303,0,normal
1780596822.7165706,16.751120800006902,362483,0.049561,-0.02002,1.04541,2.160305,2.854962,-0.70229,1.046776,3.648416,14464,23658,9193,14464,1,108.303,13,normal
1780596822.7477934,16.782343700004276,362515,0.04248,-0.009521,1.058594,1.274809,2.160305,-0.374046,1.059488,2.536132,14469,23665,9195,14469,0,108.303,1,normal
1780596822.7794456,16.81399580001016,362546,0.030762,-0.055664,1.04126,1.328244,2.366412,-0.824427,1.0432,2.836163,14471,23669,9197,14471,0,108.303,0,normal
1780596822.8089998,16.84354990000429,362577,0.048828,-0.001709,1.052978,2.679389,3.267176,-0.549618,1.054111,4.260944,14474,23674,9199,14474,1,108.303,13,normal
1780596822.8461585,16.880708700002288,362613,0.033203,-0.022949,1.042969,0.496183,2.244275,-0.946565,1.043749,2.48575,14479,23681,9201,14479,0,108.303,0,normal
1780596822.8779833,16.912533499998972,362645,0.053223,-0.010254,1.053223,3.030534,3.465649,-0.389313,1.054616,4.620219,14483,23687,9203,14483,0,108.303,6,normal
1780596822.9085329,16.943083100006334,362676,0.038574,-0.025635,1.052978,0.389313,2.862595,-0.832061,1.053997,3.006384,14487,23693,9205,14487,0,114.173,1,normal
1780596822.940081,16.974631000004592,362707,0.041016,-0.032227,1.049072,2.259542,3.129771,-0.465649,1.050368,3.888165,14488,23696,9207,14488,1,114.173,17,normal
1780596822.9716759,17.006226099998457,362739,0.040527,-0.006104,1.054199,1.229008,2.458015,-0.931298,1.054996,2.901657,14494,23703,9208,14494,0,114.173,0,normal
1780596823.0020683,17.036618500002078,362770,0.043701,-0.029297,1.059082,1.229008,2.335878,-0.603053,1.060388,2.707482,14495,23705,9209,14495,0,114.173,6,normal
1780596823.0341656,17.06871580000734,362801,0.044434,-0.010254,1.049805,2.748092,3.51145,-0.618321,1.050795,4.501623,14497,23710,9212,14497,1,114.173,13,normal
1780596823.0648744,17.099424600004568,362832,0.034912,-0.021484,1.041748,0.419847,2.389313,-1.175572,1.042554,2.695748,14502,23717,9214,14502,0,114.173,0,normal
1780596823.096694,17.13124410000455,362863,0.034668,-0.033691,1.049561,1.465649,2.496183,-0.992366,1.050673,3.06004,14504,23721,9216,14504,0,114.173,0,normal
1780596823.1266634,17.161213700004737,362894,0.03418,-0.034424,1.054688,1.343511,2.59542,-0.664122,1.055802,2.997046,14509,23727,9217,14509,0,114.173,5,normal
1780596823.156896,17.19144629999937,362925,0.042725,-0.008301,1.07373,1.114504,3.587786,-0.801527,1.074612,3.841454,14513,23733,9219,14513,0,114.173,0,normal
1780596823.1889987,17.223549000002095,362956,0.02124,-0.04248,1.035156,2.053435,2.725191,-0.694656,1.036245,3.482213,14515,23738,9222,14515,1,100.0,14,normal
1780596823.219061,17.25361110000813,362987,0.0354,0.00293,1.049805,1.633588,2.832061,-0.801527,1.050405,3.366248,14520,23745,9224,14520,0,100.0,0,normal
1780596823.2503908,17.284940900004585,363018,0.038574,-0.039795,1.050781,1.618321,3.412214,-0.854962,1.052242,3.872096,14522,23749,9226,14522,0,100.0,1,normal
1780596823.2810166,17.315566700010095,363049,0.079102,-0.002197,1.048584,3.030534,3.763359,-0.396947,1.051566,4.848152,14526,23755,9228,14526,0,100.0,5,normal
1780596823.3124554,17.34700550000707,363080,0.05957,-0.035156,1.056152,0.526718,3.122137,-0.580153,1.058415,3.218968,14530,23761,9230,14530,0,100.0,0,normal
1780596823.3442926,17.378842900012387,363111,0.057129,-0.0354,1.051025,2.312977,2.450382,-0.465649,1.053172,3.401626,14532,23766,9233,14532,1,100.0,14,normal
1780596823.3750422,17.409592399999383,363142,0.03125,-0.010742,1.049072,1.458015,2.679389,-0.320611,1.049592,3.067202,14538,23773,9234,14538,0,100.0,0,normal
1780596823.4064329,17.44098300000769,363173,0.039062,-0.045898,1.043945,0.984733,3.290076,-0.755725,1.045684,3.51645,14540,23777,9236,14540,0,100.0,1,normal
1780596823.4368527,17.471403000003193,363204,0.052246,-0.03418,1.053467,2.473282,2.80916,-1.21374,1.055315,3.934676,14542,23782,9239,14542,1,100.0,14,normal
1780596823.4673433,17.501893500011647,363235,0.054199,-0.00708,1.047119,0.732824,2.10687,-0.870229,1.048545,2.394417,14547,23789,9241,14547,0,114.695,1,normal
1780596823.498672,17.533222099998966,363266,0.030029,-0.035156,1.051514,1.961832,2.610687,-0.885496,1.05253,3.383574,14549,23793,9243,14549,0,114.695,0,normal
1780596823.5306954,17.565245600009803,363297,0.037598,-0.035156,1.06543,1.91603,2.938931,-0.419847,1.066672,3.533378,14553,23799,9245,14553,0,114.695,6,normal
1780596823.5612428,17.59579289999965,363328,0.053467,0.01123,1.074463,1.068702,3.717557,-0.534351,1.075851,3.904854,14557,23805,9247,14557,0,114.695,0,normal
1780596823.591451,17.626001199998427,363359,0.036621,-0.020508,1.044189,2.236641,1.992366,-0.717557,1.045033,3.080094,14559,23810,9250,14559,1,114.695,13,normal
1780596823.622716,17.65726620001078,363390,0.051758,-0.011719,1.046631,1.358779,2.022901,-0.801527,1.047975,2.565317,14564,23817,9252,14564,0,114.695,1,normal
1780596823.654253,17.688803100012592,363421,0.040039,-0.0354,1.046143,1.221374,2.740458,-0.854962,1.047507,3.119747,14566,23821,9254,14566,0,114.695,0,normal
1780596823.6848016,17.71935179999855,363452,0.056641,0.004883,1.057861,2.870229,3.351145,-0.305344,1.059388,4.422852,14569,23825,9255,14569,0,114.695,5,normal
1780596823.715423,17.74997340000118,363483,0.030518,-0.020996,1.047607,0.068702,3.946565,-0.770992,1.048262,4.021756,14573,23831,9257,14573,0,114.695,0,normal
1780596823.7480025,17.782552700009546,363514,0.066162,-0.0271,1.060303,2.10687,2.557252,-0.419847,1.06271,3.339867,14575,23836,9260,14575,1,100.358,13,normal
1780596823.7790234,17.813573700012057,363546,0.022461,0.006836,1.053955,1.320611,2.274809,-0.610687,1.054216,2.700316,14581,23843,9261,14581,0,100.358,1,normal
1780596823.8096385,17.84418880000885,363577,0.0354,-0.053711,1.048828,1.343511,2.664122,-0.870229,1.050799,3.108033,14583,23847,9263,14583,0,100.358,0,normal
1780596823.8409007,17.875450899999123,363608,0.065186,-0.005615,1.045654,2.877863,3.656489,-1.022901,1.047699,4.764276,14586,23852,9265,14586,1,100.358,14,normal
1780596823.8717177,17.906268000006094,363639,0.052002,-0.031006,1.049316,0.610687,3.412214,-1.0,1.051062,3.607789,14591,23859,9267,14591,0,100.358,0,normal
1780596823.9027715,17.937321600009454,363670,0.05127,-0.047607,1.054443,2.206107,2.679389,-0.80916,1.056762,3.563815,14593,23863,9269,14593,0,100.358,0,normal
1780596823.9348226,17.969372799998382,363701,0.017822,-0.041016,1.044678,1.465649,2.740458,-0.572519,1.045634,3.160066,14598,23870,9271,14598,1,100.358,3,normal
1780596823.966097,18.000647400011076,363733,0.052979,-0.054688,1.051025,0.70229,2.80916,-0.801527,1.05378,3.004503,14601,23875,9273,14601,0,100.358,1,normal
1780596823.9975832,18.032133300002897,363764,0.050293,-0.04248,1.05835,2.580153,2.946565,-1.152672,1.060395,4.082657,14604,23880,9275,14604,1,116.0,14,normal
1780596824.0272954,18.061845600008382,363795,0.046387,-0.003662,1.055908,0.59542,2.473282,-0.679389,1.056933,2.633101,14609,23887,9277,14609,0,116.0,0,normal
1780596824.0586636,18.09321390000696,363826,0.040283,-0.030029,1.049072,2.038168,2.664122,-1.08397,1.050275,3.525148,14611,23891,9279,14611,0,116.0,0,normal
1780596824.0893378,18.123888000001898,363857,0.05249,-0.037842,1.060303,1.885496,3.0,-0.732824,1.062275,3.618304,14614,23897,9282,14614,0,116.0,6,normal
1780596824.120035,18.15458520001266,363888,0.065186,0.005371,1.080811,1.061069,4.045802,-0.381679,1.082788,4.200007,14618,23903,9284,14618,0,116.0,1,normal
1780596824.1526444,18.1871947000036,363919,0.047119,-0.024414,1.05249,1.732824,2.519084,-0.557252,1.053827,3.107892,14620,23908,9287,14620,1,116.0,14,normal
1780596824.183795,18.218345100001898,363950,0.033447,-0.010498,1.049805,1.19084,2.480916,-0.648855,1.05039,2.827376,14625,23915,9289,14625,0,116.0,1,normal
1780596824.2137053,18.248255400001653,363981,0.032715,-0.03833,1.05542,1.549618,2.465649,-0.770992,1.056622,3.012502,14627,23919,9291,14627,0,116.0,0,normal
1780596824.2443702,18.278920500000822,364012,0.049072,-0.001953,1.053955,3.122137,3.664122,-0.259542,1.055099,4.820881,14630,23923,9292,14630,0,116.0,6,normal
1780596824.2862835,18.320833700010553,364043,0.030273,-0.024414,1.055176,0.19084,3.007634,-1.061069,1.055892,3.195019,14634,23929,9294,14634,0,107.527,1,normal
1780596824.3075228,18.342073000007076,364074,0.055908,-0.029053,1.053711,2.374046,2.290076,-0.519084,1.055593,3.33916,14635,23932,9296,14635,1,107.527,17,normal
1780596824.3382728,18.37282290001167,364105,0.031494,-0.04248,1.053711,1.465649,2.59542,-0.78626,1.055037,3.082618,14640,23939,9298,14640,0,107.527,0,normal
1780596824.368603,18.403153300008853,364136,0.04126,-0.008301,1.06665,1.366412,3.007634,-0.656489,1.06748,3.368074,14642,23943,9300,14642,0,107.527,0,normal
1780596824.399994,18.434544200004893,364167,0.03418,-0.06543,1.049561,1.946565,2.80916,-0.740458,1.052153,3.496966,14644,23948,9303,14644,1,107.527,13,normal
1780596824.4304383,18.464988500010804,364198,0.051514,0.002686,1.050049,0.725191,2.885496,-0.526718,1.051315,3.021493,14647,23953,9305,14647,0,107.527,0,normal
1780596824.4621174,18.496667600004002,364229,0.054199,-0.036377,1.051025,2.145038,2.503817,-0.870229,1.05305,3.409924,14649,23957,9307,14649,0,107.527,0,normal
1780596824.4940495,18.528599700002815,364260,0.043457,-0.044922,1.058106,1.885496,3.473282,-0.717557,1.05995,4.016674,14653,23963,9309,14653,0,107.527,6,normal
1780596824.5254073,18.55995760000951,364292,0.041748,-0.016357,1.077393,1.122137,3.427481,-0.51145,1.078325,3.642582,14657,23969,9311,14657,0,107.527,0,normal
1780596824.5566137,18.59116380001069,364323,0.041748,-0.054443,1.048096,2.053435,2.473282,-0.725191,1.050339,3.295394,14659,23974,9314,14659,1,89.286,13,normal
1780596824.5871985,18.621748700010357,364354,0.050781,-0.006592,1.050781,1.496183,1.923664,-0.938931,1.052028,2.611636,14664,23981,9316,14664,0,89.286,0,normal
1780596824.6176326,18.6521827000106,364385,0.036621,-0.046631,1.054443,1.305344,2.496183,-0.977099,1.056109,2.981539,14666,23985,9318,14666,0,89.286,1,normal
1780596824.6490517,18.68360190000385,364416,0.046631,0.003662,1.056152,2.908397,3.740458,-0.320611,1.057188,4.748956,14670,23991,9320,14670,0,89.286,5,normal
1780596824.6809647,18.715515000003506,364447,0.041748,-0.023438,1.058106,0.656489,3.900763,-0.557252,1.059188,3.994679,14674,23997,9322,14674,0,89.286,0,normal
1780596824.7114475,18.745997600010014,364478,0.063477,-0.027588,1.055664,2.816794,2.671756,-0.557252,1.05793,3.922134,14676,24002,9325,14676,1,89.286,13,normal
1780596824.7425148,18.7770651000028,364509,0.041992,-0.041992,1.051758,1.274809,2.435115,-0.969466,1.053433,2.914582,14681,24009,9327,14681,0,89.286,1,normal
1780596824.7732284,18.807778500005952,364540,0.042236,-0.045166,1.046631,1.099237,3.480916,-0.801527,1.048456,3.737318,14683,24013,9329,14683,0,89.286,1,normal
1780596824.8042772,18.83882740000263,364571,0.05127,-0.035889,1.046631,2.534351,3.022901,-0.801527,1.0485,4.025334,14685,24018,9332,14685,1,89.286,14,normal
1780596824.8338718,18.868422100000316,364602,0.031006,-0.001465,1.037354,0.70229,2.29771,-0.885496,1.037818,2.560622,14690,24025,9334,14690,0,111.111,0,normal
1780596824.8649907,18.89954100000614,364632,0.052979,-0.039795,1.050049,1.679389,2.381679,-0.801527,1.052137,3.022448,14692,24029,9336,14692,0,111.111,0,normal
1780596824.8955903,18.93014050000056,364663,0.046387,-0.011963,1.064941,2.549618,3.70229,-0.633588,1.066018,4.539706,14696,24035,9338,14696,0,111.111,6,normal
1780596824.9270568,18.96160690000397,364694,0.047363,-0.021484,1.060303,0.900763,3.923664,-0.587786,1.061577,4.068416,14700,24041,9340,14700,0,111.111,1,normal
1780596824.958205,18.992755100000068,364725,0.052246,-0.019531,1.057129,2.198473,2.335878,-0.572519,1.058599,3.258433,14702,24046,9343,14702,1,111.111,14,normal
1780596824.9891438,19.02369400000316,364756,0.028564,-0.04248,1.042236,1.167939,2.198473,-0.900763,1.043493,2.647402,14705,24051,9345,14705,0,111.111,0,normal
1780596825.0207772,19.055327499998384,364788,0.035156,-0.031982,1.042725,1.259542,2.328244,-0.717557,1.043807,2.742636,14707,24055,9347,14707,0,111.111,0,normal
1780596825.051654,19.086204400009592,364819,0.057617,-0.002197,1.051025,3.167939,3.435115,-0.175573,1.052606,4.676182,14710,24059,9348,14710,0,111.111,6,normal
1780596825.0829108,19.11746100000164,364850,0.05542,-0.025879,1.053711,0.40458,2.755725,-0.664122,1.055485,2.863348,14714,24065,9350,14714,0,111.111,1,normal
1780596825.11411,19.148660200007726,364881,0.053955,-0.019287,1.057373,2.473282,2.80916,-0.862595,1.058924,3.840908,14716,24070,9353,14716,1,93.19,14,normal
1780596825.1454911,19.180041300001903,364912,0.016357,-0.036865,1.039062,1.458015,2.526718,-0.70229,1.039845,3.000554,14721,24077,9355,14721,0,93.19,1,normal
1780596825.1770952,19.21164540000609,364944,0.046631,-0.057373,1.050781,1.015267,2.916031,-0.78626,1.053379,3.186253,14723,24081,9357,14723,0,93.19,0,normal
1780596825.2079518,19.242502000008244,364975,0.060059,-0.03833,1.055664,2.335878,2.70229,-0.78626,1.058066,3.657445,14726,24086,9359,14726,1,93.19,13,normal
1780596825.2373753,19.27192540001124,365005,0.036133,0.003418,1.047363,0.847328,2.290076,-0.824427,1.047992,2.577226,14731,24093,9361,14731,0,93.19,0,normal
1780596825.2678685,19.30241860001115,365035,0.043457,-0.060547,1.064453,1.290076,2.328244,-0.70229,1.067059,2.752858,14733,24097,9363,14733,0,93.19,1,normal
1780596825.300403,19.334953300000052,365066,0.059326,-0.006592,1.061523,2.801527,3.396947,-0.458015,1.0632,4.426915,14737,24103,9365,14737,0,93.19,5,normal
1780596825.3327992,19.367349500011187,365097,0.048828,-0.025879,1.05127,0.824427,2.954198,-0.541985,1.052721,3.114597,14741,24109,9367,14741,0,93.19,0,normal
1780596825.361305,19.395855200011283,365128,0.032959,-0.011963,1.046875,2.389313,2.366412,-0.732824,1.047462,3.441766,14743,24114,9370,14743,1,93.19,14,normal
1780596825.3929248,19.42747490000329,365159,0.022217,-0.013916,1.052734,1.503817,2.396947,-0.603053,1.053061,2.89318,14749,24121,9371,14749,0,118.705,0,normal
1780596825.424302,19.458852299998398,365191,0.044922,-0.05249,1.050293,1.389313,2.587786,-0.641221,1.052563,3.006326,14751,24125,9373,14751,0,118.705,1,normal
1780596825.4556725,19.490222600012203,365222,0.060791,-0.006836,1.055664,2.862595,3.053435,-0.534351,1.057435,4.219413,14754,24130,9375,14754,1,118.705,14,normal
1780596825.486369,19.520919200003846,365253,0.030762,-0.026855,1.053223,0.145038,3.343511,-1.068702,1.054014,3.513151,14759,24137,9377,14759,0,118.705,0,normal
1780596825.5177722,19.552322400006233,365284,0.033203,-0.044189,1.052978,1.824428,2.694656,-0.763359,1.054428,3.342518,14761,24141,9379,14761,0,118.705,0,normal
1780596825.548913,19.58346320000419,365315,0.051514,-0.033447,1.065918,1.129771,2.572519,-0.770992,1.067686,2.913532,14766,24148,9381,14766,1,118.705,3,normal
1780596825.578832,19.613382100011222,365346,0.057129,-0.012451,1.072998,1.160305,3.801527,-0.748092,1.07459,4.044448,14769,24153,9383,14769,0,118.705,1,normal
1780596825.6097407,19.64429100000416,365377,0.050537,-0.060059,1.043701,1.648855,2.679389,-0.358779,1.046648,3.166476,14771,24158,9386,14771,1,118.705,14,normal
1780596825.6411948,19.675745100001222,365408,0.030518,0.020996,1.059326,1.48855,2.480916,-0.793893,1.059974,3.000165,14776,24165,9388,14776,0,118.705,1,normal
1780596825.6713216,19.70587190000515,365439,0.036621,-0.04248,1.050537,2.0,3.022901,-0.664122,1.052033,3.684968,14778,24169,9390,14778,0,103.571,0,normal
1780596825.7024772,19.737027399998624,365470,0.047119,0.006592,1.056396,2.320611,3.916031,-0.358779,1.057467,4.566098,14782,24175,9392,14782,0,103.571,6,normal
1780596825.7334225,19.767972700006794,365501,0.067871,0.000732,1.072754,1.137405,3.091603,-0.732824,1.074899,3.374719,14784,24179,9394,14784,0,103.571,0,normal
1780596825.764673,19.79922310000984,365532,0.040283,-0.03418,1.036621,2.29771,2.068702,-0.916031,1.037966,3.22461,14786,24184,9397,14786,1,103.571,14,normal
1780596825.7960992,19.830649399998947,365563,0.027344,-0.009277,1.045166,1.007634,2.366412,-0.740458,1.045565,2.676473,14791,24191,9399,14791,0,103.571,1,normal
1780596825.8269527,19.86150300000736,365594,0.033691,-0.046631,1.047852,1.274809,2.977099,-0.709924,1.04943,3.315456,14793,24195,9401,14793,0,103.571,0,normal
1780596825.8585,19.89305020000029,365625,0.060791,-0.017578,1.060547,2.458015,2.908397,-0.847328,1.062433,3.9011,14796,24200,9403,14796,1,103.571,13,normal
1780596825.8887,19.923250100007863,365656,0.061523,-0.034424,1.049805,0.480916,2.450382,-1.152672,1.052169,2.750328,14801,24207,9405,14801,0,103.571,0,normal
1780596825.919572,19.954122200011625,365687,0.041504,-0.035156,1.050049,1.740458,2.59542,-0.862595,1.051457,3.241831,14803,24211,9407,14803,0,103.571,1,normal
1780596825.9506793,19.98522960000264,365717,0.053711,-0.042236,1.062256,2.076336,3.21374,-0.320611,1.064451,3.839543,14806,24217,9410,14806,0,100.719,5,normal
1780596825.980841,20.015391000008094,365748,0.061523,0.00708,1.077637,1.206107,3.328244,-0.572519,1.079415,3.58604,14810,24223,9412,14810,0,100.719,0,normal
1780596826.0113337,20.04588400000648,365779,0.042236,-0.034912,1.058106,2.0,2.129771,-0.740458,1.059523,3.014001,14812,24228,9415,14812,1,100.719,13,normal
1780596826.0425856,20.077135700004874,365810,0.019531,0.004639,1.052734,1.129771,2.473282,-0.290076,1.052926,2.73453,14817,24235,9417,14817,0,100.719,0,normal
1780596826.075442,20.109992199999397,365841,0.036865,-0.039062,1.056152,1.480916,2.618321,-0.541985,1.057517,3.056544,14819,24239,9419,14819,0,100.719,1,normal
1780596826.1055346,20.140084800004843,365872,0.063721,-0.012207,1.052246,2.763359,3.435115,-0.427481,1.054244,4.429323,14822,24244,9421,14822,1,100.719,14,normal
1780596826.136522,20.17107229999965,365903,0.057617,-0.027344,1.053223,0.374046,3.030534,-1.061069,1.055152,3.232633,14827,24251,9423,14827,0,100.719,0,normal
1780596826.1674685,20.202018800002406,365934,0.031738,-0.049561,1.049072,2.221374,2.916031,-0.770992,1.050722,3.745953,14829,24255,9425,14829,1,100.719,0,normal
1780596826.1981392,20.232689299999038,365965,0.021484,-0.045654,1.048828,1.335878,2.70229,-0.450382,1.050041,3.047915,14834,24262,9427,14834,1,100.719,3,normal
1780596826.229169,20.26371910001035,365996,0.040283,-0.015381,1.067871,1.374046,3.458015,-0.458015,1.068741,3.749087,14837,24267,9429,14837,0,111.111,1,normal
1780596826.2605326,20.295082900003763,366027,0.037109,-0.060791,1.052002,1.801527,2.099237,-0.778626,1.05441,2.87377,14839,24272,9432,14839,1,111.111,13,normal
1780596826.3124526,20.347002700000303,366058,0.046387,-0.003174,1.053711,1.274809,2.648855,-0.671756,1.054736,3.015432,14844,24279,9434,14844,0,111.111,1,normal
1780596826.3215735,20.35612380001112,366089,0.03833,-0.035645,1.066406,1.564886,2.442748,-0.824427,1.06769,3.015886,14846,24283,9436,14846,0,111.111,0,normal
1780596826.3519704,20.386520600004587,366119,0.059814,-0.004883,1.055664,3.053435,3.206107,-0.931298,1.057368,4.524368,14850,24289,9438,14850,0,111.111,6,normal
1780596826.3835905,20.41814059999888,366150,0.039551,-0.026611,1.05542,0.435114,3.091603,-1.152672,1.056496,3.32806,14854,24295,9440,14854,0,111.111,1,normal
1780596826.4134512,20.448001299999305,366181,0.043945,-0.044434,1.051514,2.40458,2.816794,-0.48855,1.053369,3.735641,14856,24300,9443,14856,1,111.111,13,normal
1780596826.445112,20.479662099998677,366212,0.033203,-0.019287,1.045166,1.519084,2.557252,-0.725191,1.045871,3.061545,14860,24305,9444,14860,0,111.111,5,normal
1780596826.4767215,20.51127180000185,366243,0.058594,-0.015381,1.05835,1.145038,3.465649,-0.480916,1.060082,3.681456,14862,24309,9446,14862,0,111.111,0,normal
1780596826.5061877,20.540737800009083,366274,0.068359,-0.0625,1.042725,2.335878,2.954198,-0.916031,1.04683,3.875916,14864,24314,9449,14864,1,97.122,14,normal
1780596826.5366333,20.57118340001034,366304,0.032471,-0.007324,1.052246,1.603053,2.152672,-0.51145,1.052772,2.732281,14869,24321,9451,14869,0,97.122,0,normal
1780596826.568323,20.60287300001073,366335,0.042236,-0.050293,1.049805,1.351145,2.603053,-0.938931,1.051857,3.07946,14871,24325,9453,14871,0,97.122,1,normal
1780596826.597704,20.63225420001254,366366,0.046387,-0.000488,1.0625,2.916031,3.48855,-0.496183,1.063512,4.573774,14875,24331,9455,14875,0,97.122,5,normal
1780596826.6284807,20.66303080000216,366396,0.059326,-0.023438,1.056641,0.870229,2.442748,-1.015267,1.058564,2.784795,14879,24337,9457,14879,0,97.122,0,normal
1780596826.660475,20.695025200009695,366427,0.051025,-0.051025,1.063232,2.549618,2.625954,-0.954198,1.065678,3.782418,14881,24341,9459,14881,1,97.122,0,normal
1780596826.691227,20.725777200001176,366458,0.024414,-0.043701,1.039551,1.145038,2.496183,-0.679389,1.040755,2.829066,14886,24348,9461,14886,1,97.122,3,normal
1780596826.7224143,20.7569644000032,366489,0.043213,-0.015625,1.066894,0.977099,3.618321,-0.618321,1.067884,3.79859,14889,24353,9463,14889,0,97.122,0,normal
1780596826.753667,20.78821730001073,366520,0.04126,-0.05835,1.046875,1.877863,2.381679,-0.549618,1.049311,3.082344,14891,24358,9466,14891,1,97.122,13,normal
1780596826.7845435,20.819093600002816,366551,0.064209,-0.010742,1.059326,0.679389,2.427481,-0.679389,1.061325,2.610709,14896,24365,9468,14896,0,115.523,1,normal
1780596826.815608,20.850158300003386,366582,0.042725,-0.030273,1.05835,1.740458,2.29771,-1.030534,1.059644,3.061154,14898,24369,9470,14898,0,115.523,0,normal
1780596826.8455467,20.880097000001115,366613,0.043457,-0.018555,1.061523,2.221374,3.099237,-0.442748,1.062575,3.838724,14902,24375,9472,14902,0,115.523,6,normal
1780596826.876412,20.910962100009783,366644,0.040283,-0.007324,1.059082,1.19084,3.473282,-0.694656,1.059873,3.736889,14906,24381,9474,14906,0,115.523,0,normal
1780596826.9088812,20.943431400010013,366675,0.045654,-0.022705,1.041016,2.587786,2.587786,-0.396947,1.042264,3.681147,14908,24386,9477,14908,1,115.523,13,normal
1780596826.9397516,20.97430170000007,366707,0.037842,-0.000977,1.049805,1.358779,2.015267,-0.21374,1.050487,2.439931,14913,24393,9479,14913,0,115.523,0,normal
1780596826.9715168,21.006067000009352,366738,0.030518,-0.043213,1.050781,1.282443,2.648855,-0.603053,1.052112,3.004125,14915,24397,9481,14915,0,115.523,0,normal
1780596827.0019531,21.036503200011794,366769,0.047363,-0.003662,1.059082,2.946565,2.778626,-0.503817,1.060147,4.081279,14919,24403,9483,14919,0,115.523,5,normal
1780596827.033718,21.068268300005002,366800,0.052979,-0.025146,1.07373,0.206107,3.251908,-0.709924,1.075331,3.334873,14921,24407,9485,14921,0,115.523,0,normal
1780596827.0639508,21.098500899999635,366831,0.052979,-0.027832,1.049561,2.305344,2.335878,-0.473282,1.051265,3.31586,14923,24412,9488,14923,1,96.429,14,normal
1780596827.0961366,21.13068670000939,366862,0.017578,-0.015869,1.05127,1.435114,2.458015,-0.961832,1.051536,3.004416,14928,24419,9490,14928,0,96.429,0,normal
1780596827.1272717,21.1618218000076,366894,0.030029,-0.049316,1.05542,1.053435,3.183206,-0.541985,1.056998,3.396509,14930,24423,9492,14930,0,96.429,1,normal
1780596827.1585047,21.193054800009122,366925,0.055664,-0.000977,1.059082,2.870229,3.618321,-0.450382,1.060544,4.640399,14933,24428,9494,14933,1,96.429,14,normal
1780596827.1933115,21.227861600011238,366956,0.033691,-0.017334,1.053955,0.503817,2.946565,-0.969466,1.054636,3.142601,14938,24435,9496,14938,0,96.429,0,normal
1780596827.220292,21.25484230001166,366987,0.029297,-0.037598,1.047852,2.160305,2.80916,-0.801527,1.048935,3.633283,14940,24440,9499,14940,1,96.429,14,normal
1780596827.251152,21.2857023000106,367018,0.03833,-0.040039,1.058594,1.541985,2.664122,-0.671756,1.060044,3.150638,14945,24447,9501,14945,0,96.429,0,normal
1780596827.2827668,21.31731710000895,367049,0.062012,-0.015869,1.074951,1.473282,3.465649,-0.916031,1.076855,3.875616,14947,24451,9503,14947,0,96.429,0,normal
1780596827.3127816,21.34733170000254,367080,0.060059,-0.065186,1.044189,1.770992,2.274809,-0.603053,1.047945,2.945309,14949,24456,9506,14949,1,96.429,13,normal
1780596827.3436205,21.378170800002408,367111,0.04248,0.001221,1.05249,0.946565,2.320611,-0.847328,1.053348,2.645597,14954,24463,9508,14954,0,110.714,1,normal
1780596827.375603,21.410153100005118,367142,0.047607,-0.051758,1.049805,2.076336,2.427481,-1.10687,1.052157,3.38068,14956,24467,9510,14956,0,110.714,0,normal
1780596827.4064474,21.44099770000321,367173,0.057129,-0.026611,1.057617,2.427481,3.603053,-0.549618,1.059493,4.379125,14960,24473,9512,14960,0,110.714,6,normal
1780596827.4365108,21.47106100000383,367204,0.056885,0.005615,1.060547,1.10687,3.541985,-1.038168,1.062086,3.85339,14964,24479,9514,14964,0,110.714,0,normal
1780596827.4756544,21.510204500009422,367235,0.052002,-0.034668,1.050537,2.244275,1.877863,-0.587786,1.052394,2.984733,14966,24484,9517,14966,1,110.714,13,normal
1780596827.5001512,21.534701399999904,367267,0.040527,-0.000977,1.047363,1.068702,1.984733,-0.89313,1.048148,2.424659,14971,24491,9519,14971,0,110.714,1,normal
1780596827.5316634,21.566213700003573,367298,0.036621,-0.059326,1.056152,1.221374,2.618321,-0.694656,1.058451,2.971516,14973,24495,9521,14973,0,110.714,0,normal
1780596827.5628178,21.5973679000017,367329,0.062012,-0.010498,1.05249,2.687023,3.793893,-0.396947,1.054368,4.665971,14977,24501,9523,14977,0,110.714,6,normal
1780596827.5940397,21.62858980000601,367361,0.042725,-0.000977,1.061523,1.160305,3.381679,-1.038168,1.062383,3.722883,14979,24505,9525,14979,0,100.0,0,normal
1780596827.6255877,21.66013780000503,367392,0.035156,-0.033447,1.043457,2.290076,2.51145,-0.534351,1.044585,3.440547,14981,24510,9528,14981,1,100.0,13,normal
1780596827.655943,21.690493200003402,367423,0.058594,0.007324,1.043945,1.320611,1.954198,-0.832061,1.045614,2.501046,14984,24515,9530,14984,0,100.0,1,normal
1780596827.6883216,21.72287180001149,367454,0.033447,-0.045654,1.051758,1.312977,2.801527,-0.961832,1.053279,3.239997,14986,24519,9532,14986,0,100.0,0,normal
1780596827.7187731,21.753323199998704,367485,0.061523,-0.013672,1.047363,2.450382,3.534351,-0.954198,1.049258,4.405282,14989,24524,9534,14989,1,100.0,14,normal
1780596827.750131,21.784681200006162,367516,0.035156,-0.018799,1.040772,0.78626,2.732824,-0.80916,1.041535,2.956564,14994,24531,9536,14994,0,100.0,0,normal
1780596827.780089,21.81463920000533,367547,0.043213,-0.048096,1.051025,1.91603,2.992366,-0.541985,1.053012,3.594326,14996,24535,9538,14996,0,100.0,1,normal
1780596827.8115761,21.84612630000629,367578,0.038086,-0.038574,1.049561,1.351145,2.839695,-0.671756,1.05096,3.215698,15001,24541,9539,15001,0,100.0,6,normal
1780596827.8416958,21.87624589999905,367609,0.057373,-0.016602,1.070312,1.312977,3.366412,-0.656489,1.071978,3.672549,15005,24547,9541,15005,0,100.0,0,normal
1780596827.873511,21.908061200010707,367640,0.037842,-0.053223,1.043213,1.687023,2.290076,-0.748092,1.045255,2.941112,15007,24552,9544,15007,1,100.358,14,normal
1780596827.9039814,21.93853160001163,367671,0.036621,0.00708,1.041748,1.312977,2.465649,-0.435114,1.042416,2.827129,15012,24559,9546,15012,0,100.358,0,normal
1780596827.935633,21.970183199999155,367702,0.028809,-0.044434,1.041748,1.534351,2.580153,-0.641221,1.043093,3.069623,15014,24563,9548,15014,0,100.358,0,normal
1780596827.967345,22.0018953000108,367733,0.053467,0.002441,1.057861,2.633588,3.221374,-0.480916,1.059214,4.188594,15018,24569,9550,15018,0,100.358,6,normal
1780596827.9974174,22.031967600007192,367764,0.071045,-0.012207,1.064697,1.030534,3.984733,-0.625954,1.067135,4.163162,15022,24575,9552,15022,0,100.358,1,normal
1780596828.0286114,22.063161600002786,367795,0.055664,-0.023438,1.05127,2.022901,2.679389,-0.679389,1.053003,3.425321,15024,24580,9555,15024,1,100.358,14,normal
1780596828.059555,22.094105299998773,367827,0.03125,0.003906,1.046143,1.541985,2.412214,-0.816794,1.046616,2.977187,15029,24587,9557,15029,0,100.358,0,normal
1780596828.0907385,22.125288800001726,367857,0.041504,-0.024414,1.069336,1.053435,2.526718,-0.572519,1.07042,2.796749,15031,24591,9559,15031,0,100.358,0,normal
1780596828.1265326,22.16108270001132,367888,0.05542,-0.010498,1.049805,2.549618,3.251908,-0.816794,1.051319,4.212198,15034,24596,9561,15034,1,100.358,13,normal
1780596828.152941,22.187491200005752,367919,0.050049,-0.032227,1.050293,0.343511,2.519084,-0.824427,1.051978,2.672726,15039,24603,9563,15039,0,114.695,1,normal
1780596828.1838312,22.21838150000258,367950,0.045166,-0.029785,1.055664,2.061069,2.603053,-0.603053,1.05705,3.374546,15041,24607,9565,15041,0,114.695,0,normal
1780596828.2153115,22.249861800009967,367981,0.033691,-0.031738,1.057373,1.641221,3.10687,-0.908397,1.058386,3.629247,15046,24613,9566,15046,0,114.695,5,normal
1780596828.2464523,22.281002500007162,368013,0.062012,-0.018799,1.067871,1.29771,3.450382,-0.442748,1.069835,3.712844,15050,24619,9568,15050,0,114.695,0,normal
1780596828.2777543,22.312304500010214,368044,0.067383,-0.059814,1.053467,2.442748,2.381679,-1.160305,1.057313,3.603571,15052,24624,9571,15052,1,114.695,13,normal
1780596828.308291,22.34284120000666,368075,0.063721,-0.010742,1.053711,0.946565,2.312977,-0.770992,1.05569,2.615392,15056,24629,9572,15056,0,114.695,5,normal
1780596828.3403115,22.374861700009205,368106,0.043213,-0.056641,1.058594,1.870229,2.709924,-0.870229,1.060988,3.405692,15058,24633,9574,15058,0,114.695,0,normal
1780596828.3694139,22.40396400001191,368137,0.040283,-0.03125,1.060059,1.740458,3.0,-0.549618,1.061284,3.511592,15061,24639,9577,15061,0,114.695,5,normal
1780596828.4003036,22.43485370000417,368167,0.035645,-0.032227,1.055664,0.70229,3.389313,-0.725191,1.056757,3.536461,15065,24645,9579,15065,0,114.695,0,normal
1780596828.4377484,22.472298699998646,368204,0.034912,-0.026611,1.054688,2.412214,2.40458,-0.908397,1.055601,3.525048,15068,24651,9582,15068,0,101.754,6,normal
1780596828.4697688,22.50431899999967,368235,0.056152,0.010742,1.076172,1.152672,3.259542,-0.664122,1.077689,3.520557,15072,24657,9584,15072,0,101.754,0,normal
1780596828.4998608,22.534410899999784,368266,0.031494,-0.030273,1.050049,2.083969,1.862595,-0.664122,1.050957,2.872847,15074,24662,9587,15074,1,101.754,14,normal
1780596828.5300744,22.564624600010575,368297,0.032471,0.003906,1.043701,1.091603,2.114504,-1.091603,1.044213,2.618076,15079,24669,9589,15079,0,101.754,1,normal
1780596828.561528,22.59607820000383,368328,0.027588,-0.037354,1.050049,1.374046,3.007634,-0.694656,1.051075,3.378818,15081,24673,9591,15081,0,101.754,0,normal
1780596828.5926306,22.627180900002713,368359,0.063965,-0.009766,1.047852,2.748092,3.419847,-0.450382,1.049848,4.410239,15084,24678,9593,15084,1,101.754,14,normal
1780596828.624154,22.65870420000283,368390,0.054932,-0.023193,1.05249,0.625954,2.732824,-0.648855,1.054178,2.8777,15089,24685,9595,15089,0,101.754,0,normal
1780596828.6550732,22.689623300000676,368421,0.044678,-0.04248,1.067139,1.908397,3.038168,-0.770992,1.068918,3.669724,15091,24689,9597,15091,0,101.754,1,normal
1780596828.6860316,22.720581800007494,368452,0.031982,-0.037354,1.047363,1.351145,3.114504,-0.839695,1.048517,3.497258,15096,24695,9598,15096,0,101.754,5,normal
1780596828.71732,22.75187010000809,368483,0.046875,-0.014404,1.073975,1.061069,3.763359,-0.656489,1.075094,3.96481,15100,24701,9600,15100,0,114.695,0,normal
1780596828.7481031,22.782653400005074,368514,0.041504,-0.055664,1.040772,1.816794,2.755725,-0.633588,1.043085,3.360981,15102,24706,9603,15102,1,114.695,14,normal
1780596828.7793298,22.813879900000757,368546,0.043701,0.008057,1.044678,0.816794,2.183206,-0.954198,1.045622,2.518737,15107,24713,9605,15107,0,114.695,0,normal
1780596828.8104935,22.845043599998462,368577,0.041748,-0.03125,1.061523,1.656489,3.091603,-0.793893,1.062804,3.596141,15109,24717,9607,15109,0,114.695,1,normal
1780596828.8422189,22.87676910001028,368608,0.05542,-0.037842,1.069336,1.969466,3.51145,-0.671756,1.07144,4.081707,15113,24723,9609,15113,0,114.695,5,normal
1780596828.8729508,22.90750100000878,368640,0.040771,-0.002197,1.06665,1.259542,3.961832,-0.320611,1.067432,4.169574,15117,24729,9611,15117,0,114.695,0,normal
1780596828.903433,22.93798329999845,368671,0.021729,-0.042969,1.040772,2.007634,2.40458,-1.0,1.041885,3.288252,15119,24734,9614,15119,1,114.695,14,normal
1780596828.934414,22.96896410000045,368701,0.023438,0.000244,1.033936,0.984733,2.496183,-0.442748,1.034201,2.719679,15125,24741,9615,15125,0,114.695,0,normal
1780596828.9669034,23.001453700009733,368732,0.029785,-0.043701,1.034424,1.48855,2.839695,-0.572519,1.035775,3.256904,15127,24745,9617,15127,0,114.695,1,normal
1780596828.9979322,23.032482499998878,368763,0.038086,-0.01001,1.052978,2.732824,3.458015,-0.633588,1.053714,4.452823,15130,24750,9619,15130,1,107.143,14,normal
1780596829.028031,23.062581300007878,368794,0.037842,-0.031982,1.047607,0.641221,2.770992,-0.832061,1.048778,2.963425,15135,24757,9621,15135,0,107.143,0,normal
1780596829.0583763,23.0929266000021,368825,0.054443,-0.038574,1.054199,2.366412,2.748092,-0.885496,1.056309,3.733098,15136,24760,9623,15136,1,107.143,17,normal
1780596829.0910056,23.12555570001132,368857,0.043213,-0.010498,1.049316,1.59542,2.358779,-0.770992,1.050258,2.950192,15141,24767,9625,15141,0,107.143,0,normal
1780596829.1231353,23.157685500002117,368889,0.041016,-0.038086,1.05249,1.419847,2.977099,-0.954198,1.053978,3.433596,15143,24771,9627,15143,0,107.143,1,normal
1780596829.1539557,23.18850580000435,368920,0.057373,-0.003174,1.050049,2.679389,3.51145,-0.534351,1.05162,4.449151,15146,24776,9629,15146,1,107.143,14,normal
1780596829.185119,23.21966909999901,368951,0.031006,-0.019775,1.048828,0.618321,3.374046,-0.48855,1.049473,3.46485,15151,24783,9631,15151,0,107.143,0,normal
1780596829.2163506,23.250900700004422,368982,0.036865,-0.046631,1.055664,1.908397,3.083969,-0.847328,1.057336,3.724354,15153,24788,9634,15153,1,107.143,14,normal
1780596829.2480812,23.282631499998388,369014,0.029297,-0.026855,1.04248,1.534351,2.229008,-0.625954,1.043238,2.777504,15158,24795,9636,15158,0,111.554,0,normal
1780596829.277876,23.312426100004814,369046,0.033203,-0.036621,1.057129,1.29771,2.625954,-0.763359,1.058284,3.026946,15160,24799,9638,15160,0,111.554,1,normal
1780596829.3096182,23.344168499999796,369076,0.062256,-0.007813,1.053711,2.862595,3.160305,-0.709924,1.055577,4.322728,15163,24804,9640,15163,1,111.554,14,normal
1780596829.3454537,23.38000400000601,369107,0.069336,-0.022705,1.053711,0.870229,2.80916,-0.977099,1.056234,3.098936,15168,24811,9642,15168,0,111.554,1,normal
