host_epoch_s,host_elapsed_s,time_ms,ax,ay,az,gx,gy,gz,acc_mag,gyro_mag,pulse_count,edge_count,rise_count,fall_count,state,pulse_rate_hz,last_edge_dt_ms,label
1780593840.5528164,0.022457900005974807,428286,0.047119,-0.061523,1.047363,2.038168,2.618321,-0.625954,1.050226,3.376618,6619,11235,4615,6619,1,106.719,13,normal
1780593840.582354,0.051995500005432405,428317,0.048828,0.0,1.044922,1.450382,2.59542,-1.0,1.046062,3.136847,6623,11240,4616,6623,0,106.719,6,normal
1780593840.6134734,0.08311479999974836,428346,0.037354,-0.029297,1.061523,1.122137,3.366412,-0.946565,1.062584,3.672589,6624,11242,4617,6624,0,71.942,6,normal
1780593840.645478,0.11511949999839999,428378,0.05249,-0.02002,1.051025,3.015267,3.473282,-0.21374,1.052526,4.604478,6627,11246,4618,6627,0,71.942,6,normal
1780593840.676386,0.14602759999979753,428410,0.057861,0.022705,1.063232,0.641221,3.709924,-1.137405,1.065048,3.932987,6628,11248,4619,6628,0,71.942,6,normal
1780593840.707839,0.17748040000151377,428441,0.041748,-0.037598,1.047119,2.51145,2.832061,-0.572519,1.048625,3.82828,6629,11251,4621,6629,1,71.942,16,normal
1780593840.7387521,0.20839359999808948,428472,0.03418,-0.00415,1.051758,1.503817,2.305344,-0.78626,1.052321,2.862565,6634,11258,4623,6634,0,71.942,0,normal
1780593840.7836616,0.2533030000049621,428503,0.030518,-0.033447,1.05542,1.51145,2.679389,-1.259542,1.056391,3.324162,6636,11262,4625,6636,0,71.942,0,normal
1780593840.801531,0.27117249999719206,428534,0.050293,-0.000488,1.067139,2.717557,3.496183,-0.473282,1.068323,4.45336,6639,11266,4626,6639,0,71.942,7,normal
1780593840.8316724,0.3013137999951141,428565,0.045654,-0.005127,1.053955,0.549618,3.114504,-0.961832,1.054956,3.305652,6640,11268,4627,6640,0,71.942,6,normal
1780593840.8639622,0.3336035999964224,428596,0.051758,-0.02832,1.050049,2.229008,3.114504,-0.496183,1.051705,3.86197,6641,11271,4629,6641,1,68.0,16,normal
1780593840.8958917,0.3655332000053022,428628,0.042725,-0.013916,1.045654,1.312977,2.519084,-1.076336,1.046619,3.037794,6643,11274,4630,6643,0,68.0,6,normal
1780593840.9259467,0.39558820000092965,428659,0.034912,-0.029053,1.054932,1.274809,2.717557,-1.328244,1.055909,3.282452,6645,11278,4632,6645,0,68.0,1,normal
1780593840.957272,0.42691340000601485,428690,0.055176,-0.015137,1.067139,2.832061,3.564885,-0.648855,1.068671,4.598912,6649,11284,4634,6649,0,68.0,6,normal
1780593840.988372,0.45801360000041313,428721,0.048828,0.005127,1.058106,0.778626,3.267176,-0.992366,1.059244,3.502212,6652,11288,4635,6652,0,68.0,6,normal
1780593841.019063,0.4887044000060996,428752,0.042236,-0.04248,1.044189,2.396947,2.954198,-0.068702,1.045906,3.804913,6653,11291,4637,6653,1,68.0,17,normal
1780593841.0511134,0.5207547000027262,428784,0.031738,0.009033,1.04834,1.618321,2.633588,-1.183206,1.048859,3.309792,6663,11302,4638,6663,0,68.0,0,normal
1780593841.0817351,0.551376600007643,428815,0.034424,-0.045898,1.048828,1.320611,2.839695,-1.549618,1.050396,3.494166,6664,11304,4639,6664,0,68.0,6,normal
1780593841.1130848,0.5827262999955565,428846,0.053467,-0.0271,1.061035,2.496183,3.664122,-0.175573,1.062727,4.437065,6667,11308,4640,6667,0,104.0,6,normal
1780593841.1439142,0.6135556000081124,428877,0.054932,-0.006592,1.053711,0.374046,3.221374,-1.343511,1.055162,3.510297,6671,11314,4642,6671,0,104.0,0,normal
1780593841.1755714,0.6452129999961471,428908,0.044434,-0.056885,1.04248,2.122137,3.122137,-0.396947,1.044976,3.795889,6673,11319,4645,6673,1,104.0,13,normal
1780593841.2068436,0.6764850000035949,428940,0.050049,0.013184,1.051758,0.854962,2.78626,-1.137405,1.05303,3.12856,6675,11322,4646,6675,0,104.0,6,normal
1780593841.2399025,0.7095438999967882,428971,0.029053,-0.048096,1.056885,1.770992,2.671756,-1.351145,1.058377,3.478546,6676,11324,4647,6676,0,104.0,6,normal
1780593841.2703292,0.7399705999996513,429003,0.045654,-0.022217,1.068115,2.221374,2.801527,-0.923664,1.069321,3.692724,6679,11328,4648,6679,0,104.0,6,normal
1780593841.305503,0.7751444000023184,429040,0.045654,-0.009521,1.07373,0.717557,3.70229,-1.076336,1.074743,3.921778,6680,11331,4650,6680,1,104.0,16,normal
1780593841.3374813,0.8071227000036743,429070,0.036621,-0.021484,1.054688,2.129771,2.938931,-0.59542,1.055542,3.678011,6684,11337,4652,6684,0,104.0,3,normal
1780593841.368301,0.8379424000013387,429102,0.037109,-0.039795,1.057373,0.847328,2.954198,-1.0,1.058772,3.231912,6687,11342,4654,6687,0,78.125,1,normal
1780593841.3986623,0.8683038000017405,429132,0.058594,-0.075195,1.039551,2.419847,3.038168,-0.21374,1.043912,3.889963,6688,11345,4656,6688,1,78.125,16,normal
1780593841.428862,0.8985035000077914,429163,0.043457,0.012207,1.041992,0.687023,2.70229,-1.038168,1.04297,2.975259,6690,11348,4657,6690,0,78.125,6,normal
1780593841.4596276,0.9292691000009654,429193,0.04248,-0.030518,1.056152,1.687023,2.641221,-1.305344,1.057447,3.394999,6691,11350,4658,6691,0,78.125,6,normal
1780593841.4911368,0.9607781999948202,429224,0.053955,-0.031006,1.070312,2.519084,4.045802,-0.167939,1.07212,4.76891,6694,11354,4659,6694,0,78.125,6,normal
1780593841.5212882,0.9909294999961276,429255,0.051758,0.003662,1.068848,0.641221,3.503817,-1.335878,1.070106,3.80427,6696,11358,4661,6696,0,78.125,0,normal
1780593841.553456,1.0230974000005517,429286,0.046875,-0.043457,1.045654,2.625954,2.396947,-0.526718,1.047606,3.59422,6698,11363,4664,6698,1,78.125,13,normal
1780593841.5835788,1.0532203000038862,429317,0.036621,0.009521,1.057373,1.78626,2.40458,-0.679389,1.05805,3.07153,6702,11368,4665,6702,0,78.125,6,normal
1780593841.6146603,1.0843015999998897,429347,0.02002,-0.028564,1.055908,1.206107,2.770992,-1.259542,1.056484,3.27407,6703,11370,4666,6703,0,78.125,6,normal
1780593841.6459873,1.1156287000048906,429379,0.066162,-0.010254,1.05127,3.259542,3.946565,-0.068702,1.053399,5.119054,6706,11374,4667,6706,0,68.592,7,normal
1780593841.6780257,1.1476671999989776,429410,0.043945,-0.019287,1.045654,0.366412,3.282443,-0.931298,1.046755,3.431618,6707,11376,4668,6707,0,68.592,6,normal
1780593841.7083411,1.1779824999975972,429441,0.051514,-0.014893,1.050293,2.694656,2.312977,-0.335878,1.051661,3.567051,6709,11381,4671,6709,1,68.592,13,normal
1780593841.7395892,1.209230699998443,429473,0.046631,0.005127,1.054688,1.305344,2.778626,-0.442748,1.05573,3.101727,6714,11388,4673,6714,0,68.592,1,normal
1780593841.7718215,1.2414629999984754,429504,0.044922,-0.050781,1.052734,1.320611,2.541985,-1.427481,1.054915,3.200531,6715,11390,4674,6715,0,68.592,6,normal
1780593841.802123,1.2717645000084303,429535,0.067139,-0.005371,1.054443,2.725191,3.656489,-0.389313,1.056592,4.576914,6718,11394,4675,6718,0,68.592,6,normal
1780593841.8441792,1.313820499999565,429566,0.054688,-0.018555,1.060791,0.80916,3.648855,-1.068702,1.062362,3.887288,6719,11396,4676,6719,0,68.592,6,normal
1780593841.8640954,1.3337370000081137,429597,0.046387,-0.016113,1.047852,2.580153,2.664122,-0.59542,1.049002,3.756229,6720,11399,4678,6720,1,68.592,16,normal
1780593841.8949146,1.364556000000448,429629,0.048584,-0.008301,1.05127,1.419847,2.832061,-0.969466,1.052424,3.313065,6727,11408,4680,6727,0,84.0,1,normal
1780593841.9275608,1.397202299995115,429660,0.033691,-0.049805,1.053711,1.442748,2.694656,-1.305344,1.055425,3.323645,6729,11412,4682,6729,0,84.0,1,normal
1780593841.9576318,1.4272731999953976,429691,0.048584,0.002441,1.063965,2.70229,3.679389,-0.366412,1.065076,4.579796,6733,11418,4684,6733,0,84.0,6,normal
1780593841.9879656,1.457607000003918,429721,0.05835,0.000977,1.065186,0.450382,3.198473,-1.152672,1.066783,3.429538,6734,11420,4685,6734,0,84.0,6,normal
1780593842.0199249,1.4895663000061177,429752,0.05249,-0.033936,1.048584,2.572519,2.435115,-0.435114,1.050445,3.568888,6735,11423,4687,6735,1,84.0,17,normal
1780593842.04938,1.519021400003112,429783,0.031738,-0.001465,1.053467,1.59542,2.541985,-0.954198,1.053946,3.149214,6737,11426,4688,6737,0,84.0,6,normal
1780593842.0815861,1.5512275000073714,429814,0.031006,-0.034668,1.066162,0.992366,3.19084,-1.152672,1.067176,3.534813,6738,11428,4689,6738,0,84.0,6,normal
1780593842.1122897,1.5819310000078985,429845,0.049561,-0.018311,1.056396,3.045802,3.206107,-0.221374,1.057717,4.427758,6741,11433,4691,6741,1,84.0,13,normal
1780593842.1433036,1.6129450000007637,429876,0.047607,-0.016846,1.040039,0.343511,3.312977,-1.183206,1.041264,3.534656,6746,11440,4693,6746,0,84.0,0,normal
1780593842.174491,1.6441323000035482,429907,0.040283,-0.034912,1.050049,2.519084,2.503817,-0.580153,1.051401,3.598814,6747,11443,4695,6747,1,71.942,16,normal
1780593842.207432,1.677073400001973,429940,0.041748,0.009521,1.052246,1.503817,2.366412,-0.725191,1.053117,2.896079,6757,11454,4696,6757,0,71.942,1,normal
1780593842.2381501,1.7077914999972563,429971,0.042725,-0.034912,1.060791,1.351145,2.770992,-1.244275,1.062225,3.324486,6758,11456,4697,6758,0,71.942,6,normal
1780593842.2691627,1.738804100008565,430002,0.043701,-0.029053,1.0625,2.725191,3.21374,-0.610687,1.063795,4.257667,6761,11460,4698,6761,0,71.942,6,normal
1780593842.2998807,1.769522100003087,430033,0.052979,-0.021729,1.045654,0.778626,3.328244,-0.992366,1.047221,3.55925,6763,11464,4700,6763,0,71.942,1,normal
1780593842.3322642,1.8019056000048295,430064,0.049316,-0.037354,1.044434,2.625954,2.938931,-0.198473,1.046264,3.946181,6765,11469,4703,6765,1,71.942,13,normal
1780593842.362331,1.831972300002235,430095,0.049072,0.002197,1.055908,1.48855,2.496183,-0.992366,1.05705,3.071075,6769,11474,4704,6769,0,71.942,6,normal
1780593842.3938196,1.8634610000008252,430126,0.044434,-0.053711,1.056152,1.305344,2.748092,-1.122137,1.05845,3.242703,6770,11476,4705,6770,0,71.942,6,normal
1780593842.425007,1.8946485000051325,430158,0.041992,-0.002686,1.061523,2.465649,3.679389,-0.610687,1.062357,4.471048,6773,11480,4706,6773,0,103.586,6,normal
1780593842.4568193,1.9264607000077376,430189,0.039551,0.018066,1.063477,0.519084,3.656489,-0.885496,1.064365,3.797823,6774,11482,4707,6774,0,103.586,6,normal
1780593842.4884284,1.9580697000055807,430220,0.036133,-0.048828,1.035889,2.251908,3.061069,-0.618321,1.037668,3.850137,6775,11485,4709,6775,1,103.586,16,normal
1780593842.519306,1.9889474999945378,430252,0.050537,0.00293,1.048828,1.167939,2.396947,-0.938931,1.050049,2.82684,6780,11492,4711,6780,0,103.586,0,normal
1780593842.5509148,2.020556100003887,430283,0.040283,-0.052246,1.047607,1.633588,2.946565,-1.51145,1.049683,3.692606,6782,11496,4713,6782,0,103.586,0,normal
1780593842.58214,2.0517813000042224,430315,0.032959,-0.01709,1.060059,1.854962,3.137405,-0.70229,1.060708,3.711792,6785,11500,4714,6785,0,103.586,6,normal
1780593842.6144638,2.0841052000032505,430347,0.048584,-0.033691,1.068604,0.770992,3.137405,-1.19084,1.070238,3.443231,6786,11502,4715,6786,0,103.586,5,normal
1780593842.6455166,2.1151582000020426,430378,0.046631,-0.026367,1.046875,2.709924,3.381679,-0.580153,1.048245,4.372187,6787,11505,4717,6787,1,103.586,16,normal
1780593842.6769361,2.146577499996056,430410,0.061035,-0.011475,1.052978,0.580153,3.221374,-0.984733,1.054808,3.418118,6789,11508,4718,6789,0,63.492,6,normal
1780593842.7067614,2.1764027000026545,430441,0.053711,-0.04541,1.059082,2.221374,2.557252,-1.0,1.061415,3.53186,6791,11513,4721,6791,1,63.492,13,normal
1780593842.738535,2.2081763000023784,430471,0.041016,-0.018311,1.054932,2.076336,2.847328,-0.824427,1.055887,3.619134,6796,11520,4723,6796,0,63.492,0,normal
1780593842.7701735,2.2398149000073317,430503,0.044678,-0.032471,1.062744,1.045802,3.274809,-1.274809,1.064178,3.666499,6797,11522,4724,6797,0,63.492,6,normal
1780593842.8019764,2.2716177999973297,430534,0.05835,-0.020752,1.05127,2.290076,3.534351,-0.083969,1.053092,4.212261,6799,11525,4725,6799,1,63.492,16,normal
1780593842.833089,2.3027304999995977,430565,0.044434,-0.009521,1.040283,0.251908,3.282443,-1.320611,1.041275,3.547098,6801,11528,4726,6801,0,63.492,6,normal
1780593842.8642235,2.3338650000077905,430596,0.039062,-0.03833,1.051758,2.839695,2.48855,-0.656489,1.053181,3.832456,6802,11531,4728,6802,1,63.492,16,normal
1780593842.8954911,2.365132499995525,430629,0.009033,0.001221,1.054932,1.557252,2.366412,-1.099237,1.054971,3.038628,6812,11543,4730,6812,0,63.492,1,normal
1780593842.9265451,2.3961865000019316,430659,0.036377,-0.033447,1.062988,1.10687,3.236641,-1.122137,1.064136,3.600028,6814,11547,4732,6814,0,63.492,0,normal
1780593842.9590735,2.42871500000183,430691,0.047852,-0.002441,1.060059,2.656489,3.717557,-0.244275,1.061141,4.575678,6818,11553,4734,6818,0,103.203,6,normal
1780593842.9899428,2.459584199998062,430722,0.050293,-0.022217,1.043701,0.557252,3.221374,-1.328244,1.045148,3.528741,6819,11555,4735,6819,0,103.203,6,normal
1780593843.0201435,2.4897848999971757,430753,0.056396,-0.04248,1.046143,2.59542,2.526718,-0.427481,1.048522,3.647362,6820,11558,4737,6820,1,103.203,16,normal
1780593843.0525904,2.522231800001464,430785,0.024414,0.012695,1.057617,1.641221,2.732824,-1.160305,1.057975,3.39238,6827,11566,4738,6827,0,103.203,1,normal
1780593843.0834432,2.553084700004547,430816,0.043457,-0.030029,1.051514,1.725191,2.503817,-1.267176,1.05284,3.294103,6828,11568,4739,6828,0,103.203,6,normal
1780593843.1148548,2.5844962999981362,430847,0.044678,-0.031738,1.053467,2.465649,3.763359,-0.351145,1.054891,4.512826,6832,11574,4741,6832,0,103.203,6,normal
1780593843.1470125,2.6166538999968907,430879,0.054932,-0.013916,1.068848,0.503817,3.175573,-1.122137,1.070349,3.405479,6836,11580,4743,6836,0,103.203,0,normal
1780593843.179427,2.6490683000010904,430911,0.044678,-0.061768,1.047607,2.572519,3.251908,-0.160305,1.050377,4.149513,6837,11583,4745,6837,1,103.203,17,normal
1780593843.20813,2.677771300004679,430942,0.050781,0.005127,1.047363,0.755725,3.0,-1.038168,1.048606,3.263267,6839,11586,4746,6839,0,83.665,6,normal
1780593843.2393444,2.70898589999706,430972,0.04126,-0.054688,1.062256,1.633588,2.824427,-1.832061,1.064463,3.741984,6840,11588,4747,6840,0,83.665,6,normal
1780593843.2707264,2.7403677999973297,431004,0.046631,-0.009521,1.062988,2.274809,3.374046,-0.78626,1.064053,4.144532,6843,11592,4748,6843,0,83.665,7,normal
1780593843.3020802,2.771721700002672,431035,0.054932,-0.01123,1.074463,0.748092,3.572519,-0.984733,1.075925,3.780507,6845,11596,4750,6845,0,83.665,1,normal
1780593843.3328702,2.8025116000062553,431066,0.050781,-0.074219,1.04541,2.053435,2.824427,-0.473282,1.049271,3.523916,6847,11601,4753,6847,1,83.665,13,normal
1780593843.3633885,2.833029900008114,431097,0.047363,0.003906,1.043701,0.923664,2.89313,-1.038168,1.044782,3.20954,6851,11606,4754,6851,0,83.665,7,normal
1780593843.3958197,2.8654611999954795,431128,0.036865,-0.051025,1.049316,1.694656,3.030534,-1.328244,1.051203,3.717557,6852,11608,4755,6852,0,83.665,6,normal
1780593843.42729,2.896931499999482,431159,0.056152,-0.026367,1.065674,2.549618,3.244275,-0.610687,1.067478,4.171188,6855,11612,4756,6855,0,83.665,7,normal
1780593843.4579911,2.927632499995525,431191,0.045654,-0.009521,1.074463,0.580153,3.625954,-1.10687,1.075474,3.835268,6856,11614,4757,6856,0,83.665,7,normal
1780593843.490081,2.9597225000034086,431222,0.055908,-0.074219,1.053223,2.374046,2.946565,-0.534351,1.057314,3.821501,6857,11617,4759,6857,1,64.286,16,normal
1780593843.520756,2.99039740000444,431254,0.053955,-0.00415,1.03418,0.137405,2.824427,-0.992366,1.035594,2.996842,6862,11624,4761,6862,0,64.286,0,normal
1780593843.5524533,3.022094800006016,431285,0.057617,-0.064697,1.044434,2.274809,2.732824,-1.091603,1.04802,3.7195,6864,11629,4764,6864,1,64.286,13,normal
1780593843.5841722,3.0538135999959195,431318,0.020508,-0.005615,1.054199,2.0,2.51145,-0.801527,1.054414,3.309052,6876,11642,4765,6876,0,64.286,0,normal
1780593843.6163716,3.086013100008131,431348,0.041016,-0.035156,1.056396,0.969466,2.916031,-0.984733,1.057777,3.226886,6877,11644,4766,6877,0,64.286,6,normal
1780593843.6477563,3.1173978000006173,431380,0.049561,-0.019287,1.057617,2.755725,3.458015,-0.290076,1.058953,4.431257,6880,11648,4767,6880,0,64.286,6,normal
1780593843.6781178,3.1477591000002576,431412,0.050049,0.018066,1.067139,0.679389,3.320611,-1.267176,1.068464,3.61853,6881,11650,4768,6881,0,64.286,6,normal
1780593843.7097883,3.179429700001492,431443,0.0354,-0.039551,1.041748,2.534351,2.732824,-0.78626,1.043099,3.80913,6883,11655,4771,6883,1,64.286,13,normal
1780593843.7426312,3.2122725999943214,431474,0.031494,0.001221,1.051514,1.351145,2.671756,-0.870229,1.051986,3.117879,6888,11662,4773,6888,0,123.016,0,normal
1780593843.7718153,3.24145669999416,431505,0.027588,-0.032959,1.058106,1.519084,2.473282,-1.129771,1.058978,3.114663,6890,11666,4775,6890,0,123.016,0,normal
1780593843.803532,3.273173299996415,431536,0.041504,-0.000732,1.057861,2.870229,3.450382,-0.351145,1.058675,4.50185,6893,11670,4776,6893,0,123.016,6,normal
1780593843.8335695,3.303211000005831,431567,0.047607,-0.013916,1.061035,0.564886,3.381679,-1.129771,1.062194,3.60988,6894,11672,4777,6894,0,123.016,6,normal
1780593843.8659456,3.3355869999941206,431598,0.057373,-0.015869,1.046387,2.534351,2.206107,-0.541985,1.048079,3.403468,6895,11675,4779,6895,1,123.016,17,normal
1780593843.896224,3.3658654000028037,431630,0.037354,-0.003418,1.048584,1.503817,2.923664,-1.091603,1.049255,3.464228,6898,11680,4781,6898,0,123.016,1,normal
1780593843.9272666,3.396908099995926,431660,0.045654,-0.033691,1.068115,1.160305,3.10687,-0.984733,1.069621,3.459574,6900,11684,4783,6900,0,123.016,0,normal
1780593843.9599698,3.429611300001852,431691,0.043213,-0.010498,1.053223,2.969466,3.458015,-0.473282,1.054161,4.582532,6903,11689,4785,6903,0,123.016,13,normal
1780593843.9892762,3.4589177000016207,431723,0.044434,-0.002197,1.062988,0.648855,3.59542,-1.061069,1.063919,3.804461,6907,11694,4786,6907,0,123.016,7,normal
1780593844.0197396,3.4893811000074493,431753,0.051025,-0.046631,1.056396,2.709924,2.847328,-0.954198,1.058656,4.04493,6908,11697,4788,6908,1,71.685,16,normal
1780593844.0518603,3.521501700000954,431784,0.029785,-0.004395,1.057129,1.870229,2.709924,-1.091603,1.057558,3.468867,6911,11701,4789,6911,0,71.685,3,normal
1780593844.0816333,3.551274800003739,431815,0.036865,-0.01709,1.074707,0.969466,3.229008,-1.21374,1.075475,3.583228,6912,11703,4790,6912,0,71.685,6,normal
1780593844.1132867,3.58292810000421,431846,0.062256,-0.015381,1.047607,2.40458,3.870229,-0.328244,1.049568,4.568197,6914,11708,4793,6914,1,71.685,13,normal
1780593844.1444306,3.6140721999981906,431877,0.046875,-0.006836,1.042236,0.732824,2.916031,-0.824427,1.043312,3.117683,6919,11715,4795,6919,0,71.685,0,normal
1780593844.1757548,3.6453961999941384,431908,0.03833,-0.054688,1.052978,1.839695,3.015267,-0.931298,1.055094,3.652893,6921,11720,4798,6921,1,71.685,13,normal
1780593844.2070994,3.6767408000014257,431939,0.038818,-0.024658,1.051758,2.030534,2.78626,-0.709924,1.052763,3.519986,6923,11723,4799,6923,0,71.685,6,normal
1780593844.2390697,3.7087112000008347,431971,0.040039,-0.041748,1.058106,1.053435,2.656489,-0.977099,1.059685,3.020162,6924,11725,4800,6924,0,71.685,6,normal
1780593844.2695162,3.739157600008184,432002,0.058838,-0.015869,1.053711,2.755725,3.145038,-0.175573,1.055472,4.185226,6926,11728,4801,6926,1,71.685,16,normal
1780593844.3004858,3.770127299998421,432033,0.050537,-0.018799,1.043213,0.473282,3.083969,-1.312977,1.044605,3.385081,6929,11733,4803,6929,0,75.0,0,normal
1780593844.3308055,3.8004469000006793,432064,0.050049,-0.062744,1.043945,2.221374,2.862595,-1.053435,1.047026,3.773418,6931,11738,4806,6931,1,75.0,14,normal
1780593844.3630822,3.8327237000048626,432095,0.029785,-0.01416,1.043457,2.030534,2.78626,-0.847328,1.043978,3.55025,6936,11745,4808,6936,0,75.0,0,normal
1780593844.3952284,3.8648699000041233,432127,0.032471,-0.036865,1.061768,0.977099,3.038168,-1.427481,1.062903,3.496125,6937,11747,4809,6937,0,75.0,6,normal
1780593844.4252317,3.8948730999982217,432158,0.050781,-0.011963,1.050293,2.70229,3.10687,-0.427481,1.051588,4.139776,6939,11750,4810,6939,1,75.0,15,normal
1780593844.4548297,3.924471200007247,432188,0.048096,-0.001709,1.045898,0.51145,2.969466,-0.854962,1.047005,3.132135,6941,11753,4811,6941,0,75.0,6,normal
1780593844.4862263,3.9558677000022726,432219,0.048584,-0.066895,1.04541,1.946565,2.778626,-1.206107,1.048674,3.600635,6942,11756,4813,6942,1,75.0,16,normal
1780593844.5178106,3.9874520000012126,432250,0.043457,-0.012207,1.052734,2.114504,3.19084,-0.78626,1.053702,3.907786,6946,11761,4814,6946,0,75.0,7,normal
1780593844.5488791,4.018520700003137,432281,0.040527,-0.01123,1.072754,0.519084,3.549618,-1.122137,1.073578,3.75878,6950,11767,4816,6950,0,75.0,0,normal
1780593844.5802,4.049841300002299,432312,0.047607,-0.068604,1.046875,1.824428,3.068702,-0.274809,1.0502,3.580641,6952,11772,4819,6952,1,82.437,13,normal
1780593844.6112418,4.080883200003882,432343,0.051514,-0.008301,1.044434,0.870229,2.793893,-0.931298,1.045736,3.070904,6954,11775,4820,6954,0,82.437,6,normal
1780593844.6420305,4.111671999999089,432374,0.031006,-0.046387,1.059082,1.587786,2.763359,-1.305344,1.060551,3.444,6955,11777,4821,6955,0,82.437,6,normal
1780593844.6724205,4.142061999998987,432405,0.042236,-0.029053,1.061768,2.343511,3.267176,-0.778626,1.063004,4.095454,6958,11781,4822,6958,0,82.437,7,normal
1780593844.704787,4.174428400001489,432437,0.046143,-0.01123,1.077637,0.709924,3.503817,-1.137405,1.078683,3.751588,6960,11785,4824,6960,0,82.437,1,normal
1780593844.736134,4.20577559999947,432468,0.049072,-0.085938,1.040772,2.21374,2.656489,-0.442748,1.045466,3.486202,6962,11790,4827,6962,1,82.437,13,normal
1780593844.766306,4.235947299996042,432499,0.055176,-0.00708,1.04126,0.59542,2.641221,-0.908397,1.042745,2.855829,6967,11797,4829,6967,0,82.437,0,normal
1780593844.7994308,4.269072299997788,432530,0.036621,-0.047119,1.047363,1.152672,2.465649,-1.290076,1.049062,3.012038,6968,11799,4830,6968,0,82.437,6,normal
1780593844.8286579,4.2982994000049075,432561,0.03833,-0.029297,1.063232,2.091603,3.053435,-0.946565,1.064326,3.820243,6971,11803,4831,6971,0,82.437,6,normal
1780593844.8609204,4.330561900002067,432593,0.052246,-0.020996,1.076416,0.671756,3.641221,-1.328244,1.077888,3.933698,6972,11805,4832,6972,0,71.174,6,normal
1780593844.8916073,4.361248800007161,432624,0.052979,-0.08252,1.056885,2.274809,3.221374,-0.351145,1.061424,3.959206,6973,11808,4834,6973,1,71.174,17,normal
1780593844.923242,4.392883599997731,432655,0.051514,-0.013672,1.03418,0.564886,2.694656,-1.08397,1.035552,2.958928,6978,11815,4836,6978,0,71.174,0,normal
1780593844.9528117,4.422453200008022,432686,0.03833,-0.049561,1.047119,1.572519,2.778626,-1.389313,1.048992,3.48192,6980,11819,4838,6980,0,71.174,0,normal
1780593844.9836023,4.453243800002383,432717,0.04248,-0.024658,1.068359,2.40458,2.633588,-0.725191,1.069488,3.639188,6985,11825,4839,6985,0,71.174,6,normal
1780593845.015897,4.485538399996585,432748,0.045166,-0.005371,1.069092,0.633588,3.78626,-0.961832,1.070059,3.957564,6986,11827,4840,6986,0,71.174,6,normal
1780593845.0472343,4.516875700006494,432779,0.039307,-0.053223,1.050537,1.961832,3.061069,-0.557252,1.052618,3.678241,6987,11830,4842,6987,1,71.174,16,normal
1780593845.0777783,4.54741980000108,432810,0.052246,0.012695,1.041504,1.603053,2.648855,-1.198473,1.042891,3.320023,6989,11833,4843,6989,0,71.174,6,normal
1780593845.1090672,4.578708700006246,432841,0.031006,-0.048584,1.049805,1.427481,3.038168,-1.450382,1.051386,3.656744,6991,11837,4845,6991,0,71.174,0,normal
1780593845.139348,4.6089895000041,432872,0.04541,-0.009766,1.06665,2.618321,2.900763,-0.580153,1.067661,3.95052,6995,11843,4847,6995,0,82.437,7,normal
1780593845.1705534,4.640194899999187,432903,0.053955,0.00415,1.056641,0.778626,3.458015,-1.175572,1.058025,3.734448,6998,11847,4848,6998,0,82.437,6,normal
1780593845.2020319,4.67167330000666,432934,0.039062,-0.053223,1.045166,2.129771,2.656489,-0.450382,1.047249,3.434487,6999,11850,4850,6999,1,82.437,16,normal
1780593845.2318742,4.701515699998708,432965,0.029785,-0.007324,1.049805,1.450382,2.709924,-0.946565,1.050253,3.216097,7001,11853,4851,7001,0,82.437,6,normal
1780593845.2641811,4.733822599999257,432996,0.040283,-0.035645,1.047607,1.51145,2.80916,-1.282443,1.048987,3.438099,7002,11855,4852,7002,0,82.437,6,normal
1780593845.295394,4.7650354000070365,433027,0.053467,-0.023682,1.065674,2.267176,3.305344,-0.282443,1.067277,4.018104,7005,11859,4853,7005,0,82.437,6,normal
1780593845.3254704,4.795111800005543,433059,0.046143,0.008789,1.062988,0.572519,3.824427,-1.091603,1.064026,4.018162,7009,11865,4855,7009,0,82.437,1,normal
1780593845.3570435,4.826685000007274,433090,0.050781,-0.053711,1.052002,1.801527,2.900763,-0.580153,1.054596,3.463597,7011,11870,4858,7011,1,82.437,13,normal
1780593845.3904836,4.860125000006519,433121,0.038086,-0.002441,1.049561,1.274809,2.694656,-1.21374,1.050254,3.218614,7013,11873,4859,7013,0,82.437,6,normal
1780593845.4193988,4.88904029999685,433152,0.042725,-0.041992,1.051025,1.618321,2.709924,-1.251908,1.052731,3.395574,7014,11875,4860,7014,0,67.857,6,normal
1780593845.4512632,4.920904600003269,433183,0.048584,-0.000244,1.058594,2.351145,3.923664,-0.427481,1.059708,4.594101,7017,11879,4861,7017,0,67.857,6,normal
1780593845.4811058,4.950747299997602,433214,0.045898,0.02002,1.063232,0.40458,3.816794,-1.030534,1.064411,3.974116,7018,11881,4862,7018,0,67.857,6,normal
1780593845.51364,4.983281299995724,433245,0.034424,-0.036865,1.043457,2.732824,2.717557,-0.221374,1.044675,3.86037,7020,11886,4865,7020,1,67.857,13,normal
1780593845.5438416,5.013483000002452,433276,0.039551,0.008057,1.046631,1.267176,2.709924,-0.923664,1.047409,3.130906,7025,11893,4867,7025,0,67.857,1,normal
1780593845.5751464,5.044787799997721,433307,0.039062,-0.05249,1.053467,1.335878,2.572519,-1.48855,1.055497,3.258558,7026,11895,4868,7026,0,67.857,6,normal
1780593845.6064582,5.076099600002635,433339,0.047607,0.001709,1.069824,2.282443,3.732824,-0.366412,1.070884,4.390647,7029,11899,4869,7029,0,67.857,6,normal
1780593845.6375413,5.107182699997793,433370,0.051514,0.020264,1.072022,0.534351,3.381679,-1.427481,1.07345,3.709311,7030,11901,4870,7030,0,67.857,6,normal
1780593845.669832,5.139473500006716,433402,0.049072,-0.072021,1.048584,1.900763,2.641221,-0.633588,1.052199,3.315175,7031,11904,4872,7031,1,68.0,16,normal
1780593845.698419,5.168060600000899,433433,0.052002,-0.00415,1.043213,1.40458,2.40458,-1.351145,1.044516,3.095229,7034,11909,4874,7034,0,68.0,1,normal
1780593845.7304556,5.200097099994309,433463,0.039307,-0.024414,1.05542,1.427481,2.648855,-1.061069,1.056434,3.190611,7036,11913,4876,7036,0,68.0,0,normal
1780593845.7607799,5.23042130000249,433494,0.050781,-0.002686,1.054199,2.541985,3.274809,-0.51145,1.055425,4.177038,7040,11919,4878,7040,0,68.0,6,normal
1780593845.7918708,5.261512199998833,433525,0.044678,-0.001221,1.057373,0.694656,3.549618,-0.770992,1.058317,3.698211,7041,11921,4879,7041,0,68.0,6,normal
1780593845.8234508,5.293092199994135,433556,0.055176,-0.02124,1.049316,2.755725,2.419847,-0.671756,1.050981,3.728396,7042,11924,4881,7042,1,68.0,16,normal
1780593845.8545225,5.324163800003589,433587,0.040283,0.004639,1.054443,1.603053,2.610687,-1.091603,1.055223,3.25224,7044,11927,4882,7044,0,68.0,6,normal
1780593845.8846502,5.354291600000579,433617,0.047119,-0.026123,1.070312,0.778626,3.419847,-1.396947,1.071668,3.775324,7045,11929,4883,7045,0,68.0,6,normal
1780593845.9159312,5.385572600003798,433648,0.057129,-0.072266,1.054688,2.374046,3.633588,-0.480916,1.058703,4.366959,7047,11934,4886,7047,1,68.0,13,normal
1780593845.9470928,5.416734300000826,433679,0.030518,-0.011963,1.03833,0.725191,2.59542,-1.167939,1.038847,2.937037,7051,11939,4887,7051,0,72.202,6,normal
1780593845.9782531,5.447894500000984,433710,0.040527,-0.062256,1.049805,1.908397,2.656489,-0.839695,1.05243,3.37698,7052,11942,4889,7052,1,72.202,16,normal
1780593846.0093305,5.478971899996395,433741,0.029297,-0.017578,1.05127,2.198473,2.305344,-0.549618,1.051825,3.232642,7054,11945,4890,7054,0,72.202,6,normal
1780593846.03954,5.50918150000507,433772,0.051514,-0.015869,1.066406,0.89313,3.21374,-1.10687,1.067768,3.514394,7055,11947,4891,7055,0,72.202,6,normal
1780593846.071931,5.541572300004191,433803,0.054688,-0.062988,1.053223,2.068702,3.389313,-0.137405,1.056521,3.973141,7056,11950,4893,7056,1,72.202,17,normal
1780593846.1010175,5.570658900003764,433834,0.052979,0.000244,1.046143,0.496183,2.778626,-1.19084,1.047483,3.063504,7061,11957,4895,7061,0,72.202,0,normal
1780593846.1320322,5.601673700002721,433865,0.041992,-0.051758,1.050537,1.900763,2.816794,-1.175572,1.052649,3.59572,7063,11961,4897,7063,0,72.202,0,normal
1780593846.1640656,5.633707000000868,433896,0.056396,-0.026855,1.059326,2.251908,2.938931,-0.854962,1.061166,3.799917,7066,11965,4898,7066,0,72.202,6,normal
1780593846.1945977,5.664239100005943,433927,0.053467,-0.020752,1.074463,0.427481,3.526718,-1.396947,1.075992,3.817321,7067,11967,4899,7067,0,72.202,6,normal
1780593846.2256432,5.695284500005073,433958,0.054688,-0.066895,1.047363,2.183206,2.816794,-0.412214,1.050921,3.587567,7068,11970,4901,7068,1,60.932,16,normal
1780593846.2567532,5.726394600002095,433989,0.036865,0.001465,1.043701,1.496183,2.381679,-1.335878,1.044353,3.113764,7070,11973,4902,7070,0,60.932,6,normal
1780593846.287959,5.75760050000099,434020,0.037354,-0.052734,1.047852,1.618321,2.732824,-1.343511,1.049842,3.448524,7072,11977,4904,7072,0,60.932,0,normal
1780593846.3203773,5.790018800005782,434051,0.049072,-0.030029,1.067383,2.633588,2.870229,-0.70229,1.068932,3.958183,7077,11983,4905,7077,0,60.932,7,normal
1780593846.350627,5.820268399998895,434083,0.035889,-0.012451,1.078613,0.572519,3.656489,-1.335878,1.079282,3.93475,7081,11989,4907,7081,0,60.932,1,normal
1780593846.381395,5.851036599997315,434114,0.057861,-0.076416,1.046875,2.198473,3.351145,-0.603053,1.051254,4.05304,7082,11992,4909,7082,1,60.932,16,normal
1780593846.4124196,5.882061099997372,434145,0.04541,0.000977,1.043701,0.717557,2.534351,-1.305344,1.044689,2.939685,7084,11995,4910,7084,0,60.932,6,normal
1780593846.4428167,5.912458200007677,434176,0.040771,-0.050049,1.050781,1.763359,2.70229,-1.160305,1.052762,3.429011,7085,11997,4911,7085,0,60.932,6,normal
1780593846.4745588,5.944200199999614,434207,0.049072,-0.028564,1.069824,1.862595,3.030534,-0.633588,1.07133,3.613148,7088,12001,4912,7088,0,60.932,7,normal
1780593846.504883,5.974524500008556,434238,0.048584,0.00293,1.072754,0.473282,3.557252,-1.038168,1.073857,3.73575,7092,12007,4914,7092,0,85.714,1,normal
1780593846.5368307,6.006472000008216,434269,0.0354,-0.04834,1.043457,2.312977,2.580153,-0.641221,1.045176,3.523949,7094,12012,4917,7094,1,85.714,13,normal
1780593846.5671597,6.0368010999955,434300,0.033691,-0.005371,1.047607,1.427481,3.175573,-1.160305,1.048163,3.669914,7098,12017,4918,7098,0,85.714,6,normal
1780593846.5981827,6.06782419999945,434331,0.03833,-0.050293,1.052246,1.70229,2.572519,-1.480916,1.054144,3.421806,7099,12019,4919,7099,0,85.714,6,normal
1780593846.628884,6.098525499997777,434362,0.055908,-0.019531,1.066406,2.152672,3.618321,-0.442748,1.068049,4.23347,7102,12023,4920,7102,0,85.714,6,normal
1780593846.6610072,6.130648699996527,434393,0.049561,0.009521,1.066406,0.89313,3.312977,-1.015267,1.0676,3.578305,7103,12025,4921,7103,0,85.714,6,normal
1780593846.6928096,6.16245109999727,434424,0.047607,-0.037109,1.045654,2.450382,2.664122,-0.335878,1.047395,3.635207,7105,12030,4924,7105,1,85.714,13,normal
1780593846.7236214,6.193262900007539,434455,0.031494,-0.004883,1.045654,1.534351,2.977099,-0.816794,1.04614,3.447391,7110,12037,4926,7110,0,85.714,0,normal
1780593846.7548242,6.224465499995858,434486,0.031982,-0.029785,1.049805,1.343511,2.923664,-1.351145,1.050714,3.48976,7112,12041,4928,7112,0,85.714,0,normal
1780593846.7834113,6.253052700005355,434517,0.04541,-0.002441,1.052734,2.832061,3.694656,-0.763359,1.053716,4.71739,7115,12045,4929,7115,0,82.437,6,normal
1780593846.8146324,6.284273900004337,434547,0.04248,-0.018555,1.039307,0.068702,3.045802,-1.198473,1.04034,3.27383,7116,12047,4930,7116,0,82.437,6,normal
1780593846.8455749,6.315216300004977,434578,0.05835,-0.022461,1.054199,2.603053,2.59542,-0.916031,1.056052,3.788298,7117,12050,4932,7117,1,82.437,16,normal
1780593846.8761268,6.3457683000015095,434609,0.036133,-0.00708,1.059326,1.977099,2.473282,-0.839695,1.059966,3.275841,7120,12055,4934,7120,0,82.437,1,normal
1780593846.9133801,6.383021700006793,434646,0.043213,-0.026855,1.065674,0.78626,3.412214,-1.48855,1.066888,3.80489,7122,12060,4937,7122,1,82.437,14,normal
1780593846.9446535,6.414294899994275,434677,0.057861,0.009521,1.053223,1.328244,2.916031,-1.10687,1.054854,3.390078,7127,12067,4939,7127,0,82.437,1,normal
1780593846.9755917,6.44523310000659,434708,0.036133,-0.027588,1.060547,1.08397,3.10687,-1.198473,1.061521,3.501995,7128,12069,4940,7128,0,82.437,6,normal
1780593847.006534,6.476175600007991,434739,0.048096,-0.012207,1.047852,2.946565,3.618321,-0.236641,1.049026,4.672311,7131,12073,4941,7131,0,82.437,6,normal
1780593847.0389411,6.508582700000261,434771,0.048584,0.021973,1.070801,0.648855,3.137405,-0.847328,1.072128,3.313953,7132,12075,4942,7132,0,66.929,6,normal
1780593847.0702202,6.5398617000028025,434802,0.035156,-0.035645,1.047363,2.687023,2.832061,-0.412214,1.048559,3.925631,7133,12078,4944,7133,1,66.929,17,normal
1780593847.1002393,6.569880700000795,434833,0.05249,0.004395,1.045166,1.572519,2.274809,-1.022901,1.046492,2.948542,7138,12085,4946,7138,0,66.929,1,normal
1780593847.1328034,6.602444799995283,434864,0.038574,-0.030029,1.051514,1.21374,2.870229,-1.122137,1.052649,3.312186,7140,12089,4948,7140,0,66.929,0,normal
1780593847.1617022,6.631343500004732,434895,0.054688,-0.015869,1.047607,3.068702,4.0,-0.145038,1.049154,5.043607,7144,12095,4950,7144,0,66.929,6,normal
1780593847.1930892,6.662730800002464,434926,0.052002,-0.017822,1.056641,0.610687,3.305344,-1.076336,1.05807,3.52941,7145,12097,4951,7145,0,66.929,6,normal
1780593847.2252061,6.694847699996899,434957,0.059326,-0.020752,1.042236,2.549618,2.59542,-0.335878,1.04413,3.653706,7146,12100,4953,7146,1,66.929,16,normal
1780593847.2556574,6.725298899997142,434988,0.025879,0.000732,1.058106,1.694656,2.59542,-0.961832,1.058422,3.245487,7148,12103,4954,7148,0,66.929,6,normal
1780593847.286241,6.755882600002224,435018,0.042725,-0.026123,1.062256,0.48855,3.473282,-1.412214,1.063436,3.7811,7150,12107,4956,7150,0,66.929,0,normal
1780593847.3166974,6.786338699996122,435049,0.052979,-0.021729,1.04834,2.625954,3.137405,-0.229008,1.049903,4.09773,7152,12112,4959,7152,1,71.942,13,normal
1780593847.3479016,6.817543099998147,435080,0.052002,-0.016602,1.047363,0.503817,2.648855,-1.076336,1.048785,2.903233,7157,12119,4961,7157,0,71.942,1,normal
1780593847.3787918,6.848433299994213,435111,0.047852,-0.047363,1.056152,1.870229,2.839695,-1.366412,1.058296,3.66452,7158,12121,4962,7158,0,71.942,6,normal
1780593847.4110966,6.880738000007113,435142,0.042236,-0.015869,1.057373,1.992366,2.709924,-0.900763,1.058335,3.482038,7161,12125,4963,7161,0,71.942,6,normal
1780593847.442237,6.911878400002024,435174,0.04834,-0.022217,1.067383,0.954198,2.885496,-1.290076,1.068708,3.301648,7162,12127,4964,7162,0,71.942,6,normal
1780593847.4732492,6.942890599995735,435205,0.047363,-0.01709,1.046143,2.442748,3.534351,-0.389313,1.047354,4.313957,7163,12130,4966,7163,1,71.942,16,normal
1780593847.5033376,6.972978999998304,435236,0.041748,-0.012451,1.05127,0.29771,3.351145,-0.900763,1.052172,3.482841,7168,12137,4968,7168,0,71.942,0,normal
1780593847.5359778,7.00561920000473,435268,0.053467,-0.042725,1.044922,2.603053,2.633588,-0.732824,1.047161,3.774746,7170,12142,4971,7170,1,71.942,13,normal
1780593847.567338,7.036979500000598,435300,0.040283,0.00415,1.050049,1.877863,2.954198,-0.938931,1.050829,3.624258,7178,12151,4972,7178,0,103.586,0,normal
1780593847.5995553,7.069196700002067,435331,0.043945,-0.032715,1.064453,1.282443,2.916031,-1.251908,1.065862,3.422743,7179,12153,4973,7179,0,103.586,6,normal
1780593847.6300266,7.09966799999529,435362,0.04541,-0.002441,1.053223,2.832061,3.832061,-0.206107,1.054204,4.769459,7182,12157,4974,7182,0,103.586,6,normal
1780593847.6611874,7.1308288000000175,435393,0.05835,-0.030518,1.048828,0.916031,3.114504,-1.053435,1.050893,3.413059,7183,12159,4975,7183,0,103.586,6,normal
1780593847.6928258,7.162467300004209,435425,0.039307,-0.036865,1.04248,2.183206,3.061069,-0.267176,1.043872,3.769339,7185,12164,4978,7185,1,103.586,13,normal
1780593847.7245224,7.194163699998171,435457,0.039062,-0.001221,1.046631,1.099237,2.427481,-1.229008,1.04736,2.934526,7190,12171,4980,7190,0,103.586,0,normal
1780593847.7715669,7.24120839999523,435488,0.030762,-0.049805,1.046387,1.832061,2.587786,-1.328244,1.048023,3.437632,7192,12175,4982,7192,0,103.586,0,normal
1780593847.788026,7.257667500001844,435519,0.059082,-0.027832,1.059326,2.068702,3.610687,-0.748092,1.061338,4.228029,7195,12179,4983,7195,0,103.586,7,normal
1780593847.818832,7.28847329999553,435551,0.030273,-0.016846,1.071777,0.816794,3.862595,-1.366412,1.072337,4.177784,7196,12181,4984,7196,0,71.713,6,normal
1780593847.850242,7.31988330000604,435582,0.05249,-0.06543,1.044678,2.427481,3.10687,-0.328244,1.04804,3.956394,7197,12184,4986,7197,1,71.713,16,normal
1780593847.8819733,7.351614800005336,435614,0.039795,-0.019775,1.040039,0.374046,2.839695,-1.427481,1.040988,3.200231,7200,12189,4988,7200,0,71.713,0,normal
1780593847.913191,7.382832600007532,435645,0.054199,-0.070068,1.039795,1.770992,3.19084,-1.114504,1.043561,3.815756,7202,12194,4991,7202,1,71.713,13,normal
1780593847.9438283,7.413469899998745,435676,0.049072,-0.011963,1.055908,2.099237,3.030534,-0.305344,1.057116,3.699212,7207,12201,4993,7207,0,71.713,0,normal
1780593847.9762805,7.44592179999745,435708,0.038818,-0.029785,1.057861,1.312977,3.274809,-0.961832,1.058992,3.656967,7208,12203,4994,7208,0,71.713,6,normal
1780593848.0066056,7.476247099999455,435740,0.047607,-0.02124,1.050293,2.870229,3.59542,-0.267176,1.051586,4.608323,7211,12207,4995,7211,0,71.713,6,normal
1780593848.0389113,7.508552700004657,435771,0.060791,-0.013184,1.055664,0.305344,3.564885,-0.725191,1.057495,3.650691,7212,12209,4996,7212,0,71.713,6,normal
1780593848.0702817,7.539923100004671,435803,0.043457,-0.034424,1.053223,2.526718,2.801527,-0.206107,1.054681,3.778272,7213,12212,4998,7213,1,67.46,16,normal
1780593848.1013095,7.570950900000753,435834,0.048584,-0.000732,1.047852,1.89313,2.427481,-0.89313,1.048978,3.205352,7218,12219,5000,7218,0,67.46,0,normal
1780593848.1326587,7.602300099999411,435865,0.045166,-0.048828,1.05127,1.557252,2.625954,-1.183206,1.053372,3.27424,7220,12223,5002,7220,0,67.46,0,normal
1780593848.1651242,7.63476559999981,435897,0.063721,-0.028564,1.073242,2.503817,3.603053,-0.396947,1.075512,4.405526,7224,12229,5004,7224,0,67.46,7,normal
1780593848.1960661,7.6657076999981655,435928,0.054932,0.015381,1.075195,0.954198,3.694656,-1.19084,1.076708,3.997384,7225,12231,5005,7225,0,67.46,6,normal
1780593848.227242,7.696883399999933,435959,0.034912,-0.04248,1.05127,1.954198,2.977099,-0.549618,1.052706,3.603344,7226,12234,5007,7226,1,67.46,16,normal
1780593848.2589302,7.728571600004216,435991,0.04541,0.000732,1.033203,0.931298,2.427481,-1.229008,1.034201,2.875837,7228,12237,5008,7228,0,67.46,6,normal
1780593848.2900004,7.75964180000301,436022,0.053223,-0.050293,1.05835,1.389313,2.435115,-1.519084,1.06088,3.188666,7230,12241,5010,7230,0,67.46,1,normal
1780593848.3207672,7.790408700006083,436053,0.049072,-0.023682,1.061768,2.587786,3.671756,-0.335878,1.063165,4.50458,7234,12247,5012,7234,0,84.0,6,normal
1780593848.351081,7.8207223000063095,436084,0.053955,0.003174,1.072998,0.40458,3.625954,-1.160305,1.074358,3.828516,7238,12253,5014,7238,0,84.0,0,normal
1780593848.3822088,7.8518502000079025,436114,0.044922,-0.035645,1.038086,2.816794,2.900763,-0.19084,1.039669,4.04786,7239,12256,5016,7239,1,84.0,16,normal
1780593848.412153,7.881794400003855,436146,0.04126,0.002686,1.052002,1.671756,2.29771,-0.969466,1.052814,3.002349,7249,12267,5017,7249,0,84.0,0,normal
1780593848.443406,7.913047599999118,436176,0.039062,-0.038086,1.069336,1.366412,2.923664,-0.977099,1.070727,3.371886,7250,12269,5018,7250,0,84.0,6,normal
1780593848.4743707,7.944012100007967,436207,0.046387,0.0,1.065918,3.122137,3.648855,-0.137405,1.066927,4.804244,7253,12273,5019,7253,0,84.0,6,normal
1780593848.5044355,7.974076900005457,436237,0.038818,-0.010986,1.042725,0.129771,3.21374,-1.122137,1.043505,3.406488,7257,12279,5021,7257,0,84.0,0,normal
1780593848.5361395,8.005780899999081,436268,0.044922,-0.074951,1.042236,2.122137,3.045802,-0.59542,1.045893,3.759641,7259,12284,5024,7259,1,84.0,13,normal
1780593848.565829,8.035470600007102,436299,0.041992,-0.009033,1.065918,2.007634,2.29771,-1.061069,1.066783,3.230469,7263,12289,5025,7263,0,84.0,6,normal
1780593848.5972404,8.066881899998407,436329,0.040771,-0.013916,1.071045,0.671756,3.679389,-1.183206,1.071911,3.922899,7264,12291,5026,7264,0,108.696,6,normal
1780593848.629289,8.098930299995118,436361,0.057129,-0.04126,1.05127,2.763359,3.167939,-0.40458,1.053629,4.22323,7265,12294,5028,7265,1,108.696,16,normal
1780593848.6596642,8.129305700000259,436393,0.03125,-0.009521,1.037109,0.068702,3.290076,-1.068702,1.037624,3.459978,7267,12297,5029,7267,0,108.696,6,normal
1780593848.69173,8.161371399997734,436423,0.040039,-0.043213,1.048584,1.687023,2.755725,-1.175572,1.050237,3.438319,7269,12301,5031,7269,0,108.696,0,normal
1780593848.7220767,8.191718000001856,436454,0.035156,-0.012939,1.058838,2.282443,2.847328,-0.793893,1.0595,3.73458,7274,12307,5032,7274,0,108.696,6,normal
1780593848.7529643,8.222605600007228,436485,0.051758,-0.019043,1.06665,0.885496,3.908397,-0.778626,1.068075,4.082392,7278,12313,5034,7278,0,108.696,1,normal
1780593848.7839682,8.253609699997469,436516,0.055908,-0.083252,1.054443,2.290076,2.80916,-0.145038,1.059201,3.62724,7279,12316,5036,7279,1,108.696,16,normal
1780593848.8152156,8.284857100006775,436548,0.045654,-0.012207,1.038574,0.305344,2.916031,-1.0,1.039649,3.097817,7281,12319,5037,7281,0,108.696,6,normal
1780593848.8453505,8.314991899998859,436579,0.043945,-0.054199,1.053955,1.938931,2.709924,-1.0,1.056262,3.478957,7282,12322,5039,7282,1,72.0,16,normal
1780593848.8782248,8.347866399999475,436610,0.026611,-0.013184,1.054443,2.160305,2.717557,-0.732824,1.054861,3.548108,7285,12327,5041,7285,0,72.0,0,normal
1780593848.9089015,8.378542899998138,436642,0.036621,-0.0354,1.061523,1.381679,2.625954,-1.259542,1.062745,3.223526,7287,12331,5043,7287,0,72.0,0,normal
1780593848.9396262,8.409267700000782,436673,0.051025,-0.011475,1.049561,2.877863,3.160305,-0.267176,1.050863,4.28264,7290,12336,5045,7290,1,72.0,13,normal
1780593848.970992,8.440633599995635,436703,0.044434,0.016846,1.040283,0.435114,2.541985,-1.267176,1.041368,2.873455,7294,12341,5046,7294,0,72.0,6,normal
1780593849.0024102,8.472051599994302,436734,0.042725,-0.062744,1.054932,1.885496,2.862595,-1.419847,1.057659,3.71019,7295,12343,5047,7295,0,72.0,5,normal
1780593849.0315893,8.501230699999724,436765,0.050537,-0.02417,1.071045,2.465649,3.366412,-0.977099,1.072509,4.28566,7298,12347,5048,7298,0,72.0,6,normal
1780593849.0625212,8.532162600007723,436795,0.052734,0.019287,1.068848,0.687023,3.419847,-1.198473,1.070322,3.688318,7299,12349,5049,7299,0,72.0,6,normal
1780593849.094341,8.563982599996962,436826,0.036865,-0.0354,1.042725,2.412214,2.687023,-0.305344,1.043976,3.623824,7301,12354,5052,7301,1,72.0,13,normal
1780593849.1247268,8.594368300007773,436857,0.040527,0.006104,1.048828,1.435114,2.534351,-0.80916,1.049628,3.022785,7306,12361,5054,7306,0,86.331,1,normal
1780593849.1553376,8.624978899999405,436888,0.0271,-0.032959,1.055908,1.206107,2.80916,-1.419847,1.05677,3.370763,7308,12365,5056,7308,0,86.331,1,normal
1780593849.1863883,8.656029799996759,436918,0.049072,-0.013672,1.054932,3.145038,3.709924,0.061069,1.056161,4.864004,7311,12369,5057,7311,0,86.331,6,normal
1780593849.2167435,8.686385000008158,436950,0.053955,-0.005615,1.060303,0.603053,3.48855,-0.778626,1.06169,3.624902,7312,12371,5058,7312,0,86.331,6,normal
1780593849.2487566,8.718398099998012,436981,0.045898,-0.021973,1.04541,2.610687,2.694656,-0.251908,1.046648,3.760361,7313,12374,5060,7313,1,86.331,16,normal
1780593849.2802145,8.749855999994907,437012,0.052734,-0.010498,1.037354,1.40458,2.832061,-0.946565,1.038746,3.299909,7316,12379,5062,7316,0,86.331,1,normal
1780593849.3103848,8.7800261000084,437043,0.036133,-0.026611,1.057861,1.664122,2.839695,-1.167939,1.058813,3.492456,7318,12383,5064,7318,0,86.331,1,normal
1780593849.3418667,8.811508099999628,437074,0.047119,0.000488,1.060791,2.748092,3.679389,-0.145038,1.061837,4.594665,7322,12389,5066,7322,0,86.331,6,normal
1780593849.3729692,8.84261069999775,437105,0.045898,-0.015137,1.049072,0.015267,3.282443,-1.167939,1.050185,3.48407,7325,12393,5067,7325,0,86.331,6,normal
1780593849.4036334,8.873274800003855,437136,0.055664,-0.049561,1.049316,2.656489,2.70229,-0.656489,1.05196,3.845813,7326,12396,5069,7326,1,71.685,17,normal
1780593849.4344285,8.90407000000414,437167,0.023926,0.006836,1.052734,1.633588,2.328244,-1.229008,1.053028,3.098353,7328,12399,5070,7328,0,71.685,6,normal
1780593849.465849,8.935490400006529,437198,0.036865,-0.039795,1.064697,1.335878,3.267176,-1.183206,1.066078,3.722766,7329,12401,5071,7329,0,71.685,6,normal
1780593849.4964054,8.966046800007462,437230,0.049805,-0.001221,1.064209,2.580153,3.59542,-0.389313,1.065374,4.442499,7333,12407,5073,7333,0,71.685,6,normal
1780593849.528043,8.9976844000048,437261,0.049561,-0.023926,1.045654,0.740458,3.29771,-0.969466,1.047102,3.51611,7337,12413,5075,7337,0,71.685,0,normal
1780593849.5592904,9.028931799999555,437292,0.051514,-0.039795,1.044434,2.40458,2.740458,-0.320611,1.04646,3.659905,7339,12418,5078,7339,1,71.685,13,normal
1780593849.5905225,9.060163899994222,437324,0.031738,0.00708,1.044434,1.641221,2.618321,-1.091603,1.04494,3.277317,7349,12429,5079,7349,0,71.685,0,normal
1780593849.6228256,9.092467099995702,437355,0.047607,-0.040039,1.056885,1.419847,2.839695,-1.076336,1.058714,3.352362,7350,12431,5080,7350,0,71.685,6,normal
1780593849.6537938,9.12343520000286,437386,0.057617,-0.006348,1.052978,2.557252,3.419847,-0.389313,1.054573,4.287944,7353,12435,5081,7353,0,108.0,6,normal
1780593849.6852255,9.15486690000398,437417,0.052734,-0.019043,1.047363,0.305344,3.427481,-1.206107,1.048863,3.646307,7355,12439,5083,7355,0,108.0,0,normal
1780593849.7157161,9.185357499998645,437448,0.040283,-0.041504,1.044678,2.557252,2.824427,-0.328244,1.046278,3.824222,7357,12444,5086,7357,1,108.0,13,normal
1780593849.7461092,9.215750799994566,437479,0.045898,-0.002441,1.063721,1.068702,2.671756,-0.89313,1.064713,3.012986,7362,12451,5088,7362,0,108.0,0,normal
1780593849.7765608,9.246202299997094,437510,0.030273,-0.03125,1.05957,1.633588,2.419847,-1.137405,1.060463,3.133362,7363,12453,5089,7363,0,108.0,6,normal
1780593849.8083375,9.277978800004348,437540,0.066162,-0.026855,1.059326,2.900763,3.259542,-0.21374,1.06173,4.368607,7365,12456,5090,7365,1,108.0,16,normal
1780593849.8406513,9.310292800000752,437571,0.036377,-0.015381,1.044922,0.145038,3.122137,-1.396947,1.045668,3.423483,7367,12459,5091,7367,0,108.0,6,normal
1780593849.869446,9.339087500004098,437602,0.062744,-0.048096,1.050293,2.78626,2.480916,-0.59542,1.053264,3.777924,7368,12462,5093,7368,1,108.0,17,normal
1780593849.9007435,9.370384900001227,437634,0.038818,0.0,1.049316,1.343511,2.366412,-1.160305,1.050034,2.958249,7374,12469,5094,7374,0,108.0,0,normal
1780593849.9328551,9.402496599999722,437665,0.041748,-0.039062,1.059326,1.374046,2.908397,-1.10687,1.060868,3.401755,7376,12473,5096,7376,0,82.437,0,normal
1780593849.9639215,9.433563099999446,437696,0.051758,-0.015625,1.054443,2.900763,3.541985,-0.10687,1.055828,4.579466,7379,12478,5098,7379,1,82.437,13,normal
1780593849.9945726,9.464214200008428,437727,0.046875,-0.022949,1.047852,0.251908,3.358779,-0.977099,1.049151,3.507075,7381,12481,5099,7381,0,82.437,6,normal
1780593850.0251265,9.494767900003353,437758,0.059082,-0.032227,1.050293,2.59542,2.503817,-0.519084,1.052447,3.643453,7382,12484,5101,7382,1,82.437,16,normal
1780593850.056989,9.526630299995304,437790,0.047119,-0.009033,1.057129,1.648855,2.740458,-1.244275,1.058217,3.431771,7391,12494,5102,7391,0,82.437,1,normal
1780593850.0888083,9.558449699994526,437821,0.036377,-0.034424,1.059814,1.572519,2.755725,-1.389313,1.060997,3.463673,7393,12498,5104,7393,0,82.437,0,normal
1780593850.1206524,9.590293900007964,437853,0.053223,-0.003906,1.062744,2.541985,3.145038,-0.29771,1.064083,4.054822,7397,12504,5106,7397,0,82.437,6,normal
1780593850.1507397,9.620381200002157,437884,0.060059,0.019775,1.069092,0.480916,3.40458,-1.175572,1.07096,3.633788,7401,12510,5108,7401,0,82.437,0,normal
1780593850.1822338,9.651875199997448,437914,0.046143,-0.018311,1.046387,2.740458,2.618321,-0.244275,1.047564,3.798076,7402,12513,5110,7402,1,82.437,16,normal
1780593850.2130053,9.682646800007205,437946,0.036133,-0.003174,1.049072,1.496183,2.328244,-0.900763,1.049699,2.91044,7404,12516,5111,7404,0,99.644,6,normal
1780593850.2454102,9.715051699997275,437977,0.034668,-0.062256,1.040772,1.274809,2.70229,-1.282443,1.043208,3.251487,7405,12518,5112,7405,0,99.644,6,normal
1780593850.2755187,9.745160200007376,438008,0.056885,0.003906,1.061279,2.458015,3.610687,-0.59542,1.06281,4.408336,7408,12522,5113,7408,0,99.644,6,normal
1780593850.3056638,9.77530530000513,438039,0.055176,-0.005127,1.060547,0.694656,3.19084,-1.038168,1.061994,3.426631,7412,12528,5115,7412,0,99.644,1,normal
1780593850.338303,9.807944600004703,438070,0.045898,-0.023682,1.04126,2.503817,2.816794,-0.290076,1.04254,3.77989,7414,12533,5118,7414,1,99.644,13,normal
1780593850.3692043,9.838845699996455,438102,0.05835,-0.016357,1.038818,1.251908,2.687023,-0.793893,1.040584,3.068816,7423,12543,5119,7423,0,99.644,1,normal
1780593850.400249,9.869890500005567,438133,0.036621,-0.029053,1.056885,1.503817,2.618321,-1.366412,1.057918,3.314234,7424,12545,5120,7424,0,99.644,6,normal
1780593850.431923,9.901564300002065,438164,0.049561,-0.010742,1.064697,2.519084,3.458015,-0.305344,1.065904,4.28916,7427,12549,5121,7427,0,99.644,6,normal
1780593850.4629612,9.9326027000061,438195,0.050049,0.001953,1.071533,0.389313,3.465649,-1.267176,1.072703,3.710528,7428,12551,5122,7428,0,99.644,6,normal
1780593850.4934971,9.963138599996455,438226,0.057861,-0.0354,1.046143,2.442748,2.557252,-0.458015,1.048339,3.565997,7430,12556,5125,7430,1,92.857,13,normal
1780593850.5257413,9.995382699999027,438257,0.057861,-0.013184,1.046631,1.274809,2.320611,-0.870229,1.048312,2.787054,7435,12563,5127,7435,0,92.857,0,normal
1780593850.557286,10.026927500002785,438289,0.030518,-0.050781,1.053955,1.618321,2.992366,-1.557252,1.055619,3.741424,7437,12567,5129,7437,0,92.857,0,normal
1780593850.5879235,10.057564899994759,438320,0.048584,-0.018555,1.065186,2.419847,3.625954,-0.503817,1.066454,4.388284,7440,12571,5130,7440,0,92.857,6,normal
1780593850.6182294,10.087870899995323,438351,0.051025,0.001953,1.060059,0.458015,3.48855,-1.229008,1.061288,3.726958,7441,12573,5131,7441,0,92.857,6,normal
1780593850.650397,10.120038599998225,438382,0.038574,-0.051758,1.045654,2.328244,2.916031,-0.572519,1.047645,3.775147,7442,12576,5133,7442,1,92.857,16,normal
1780593850.6812065,10.150848000004771,438414,0.053223,0.003174,1.04248,0.877863,2.80916,-0.870229,1.043843,3.069091,7445,12581,5135,7445,0,92.857,1,normal
1780593850.712785,10.182426500003203,438445,0.028809,-0.047852,1.060303,1.961832,2.618321,-1.473282,1.061773,3.588168,7447,12585,5137,7447,0,92.857,0,normal
1780593850.7441356,10.213776999997208,438476,0.046631,-0.024658,1.058838,2.091603,3.534351,-0.755725,1.060151,4.175831,7451,12591,5139,7451,0,84.0,6,normal
1780593850.7733223,10.242963700002292,438507,0.046875,0.006104,1.063965,0.526718,3.427481,-1.396947,1.065014,3.738518,7454,12595,5140,7454,0,84.0,7,normal
1780593850.8045204,10.274161900000763,438537,0.042236,-0.040039,1.037842,2.587786,2.534351,-0.351145,1.039472,3.639076,7455,12598,5142,7455,1,84.0,16,normal
1780593850.8359659,10.305607400005101,438569,0.043213,0.004395,1.045898,1.320611,2.51145,-0.916031,1.0468,2.981696,7465,12609,5143,7465,0,84.0,1,normal
1780593850.8669853,10.336626699994667,438600,0.035889,-0.041504,1.063721,1.877863,2.549618,-1.129771,1.065135,3.362039,7466,12611,5144,7466,0,84.0,5,normal
1780593850.8983319,10.367973300002632,438631,0.061279,-0.001953,1.054932,2.80916,3.709924,-0.717557,1.056712,4.708482,7470,12617,5146,7470,0,84.0,6,normal
1780593850.9300742,10.399715699997614,438662,0.04834,0.018555,1.060791,0.587786,3.564885,-1.053435,1.062054,3.763459,7474,12623,5148,7474,0,84.0,0,normal
1780593850.9617043,10.43134569999529,438694,0.048584,-0.067627,1.05127,2.015267,3.183206,-0.328244,1.054562,3.781778,7476,12628,5151,7476,1,84.0,13,normal
1780593850.991161,10.46080260000599,438725,0.041504,0.0,1.049805,1.0,2.343511,-1.229008,1.050625,2.82887,7478,12631,5152,7478,0,84.0,6,normal
1780593851.0222547,10.49189610000758,438754,0.043457,-0.034668,1.073486,1.366412,3.229008,-1.152672,1.074925,3.69083,7479,12633,5153,7479,0,100.719,6,normal
1780593851.0528142,10.522455800004536,438785,0.055664,-0.036621,1.05127,2.793893,3.80916,-0.099237,1.053379,4.724975,7480,12636,5155,7480,1,100.719,16,normal
1780593851.083291,10.55293239999446,438816,0.038086,-0.009766,1.045654,0.175573,2.534351,-1.374046,1.046393,2.888211,7483,12641,5157,7483,0,100.719,0,normal
1780593851.1157374,10.585378899995703,438847,0.047119,-0.057129,1.044922,2.641221,2.541985,-0.839695,1.047543,3.760694,7485,12646,5160,7485,1,100.719,13,normal
1780593851.1469092,10.616550599996117,438879,0.037842,0.000732,1.052246,1.656489,2.717557,-1.114504,1.052927,3.37212,7491,12653,5161,7491,0,100.719,0,normal
1780593851.1787608,10.648402300008456,438910,0.034668,-0.037842,1.058838,1.648855,2.900763,-1.267176,1.060081,3.569157,7492,12655,5162,7492,0,100.719,6,normal
1780593851.2100391,10.679680500004906,438942,0.044434,0.00415,1.065186,2.656489,3.473282,-0.526718,1.06612,4.404322,7495,12659,5163,7495,0,100.719,7,normal
1780593851.2403226,10.709964099994977,438973,0.052979,-0.003906,1.059082,0.732824,3.427481,-1.068702,1.060414,3.664257,7496,12661,5164,7496,0,100.719,6,normal
1780593851.2719653,10.741606600000523,439004,0.05957,-0.021729,1.03833,2.78626,2.450382,-0.519084,1.040264,3.746606,7497,12664,5166,7497,1,72.0,17,normal
1780593851.3020449,10.771686199994292,439036,0.042969,-0.009277,1.046631,1.70229,2.435115,-1.061069,1.047554,3.154908,7502,12671,5168,7502,0,72.0,1,normal
1780593851.3330336,10.80267509999976,439066,0.043213,-0.035889,1.062012,1.412214,2.946565,-1.175572,1.063496,3.472544,7504,12675,5170,7504,0,72.0,0,normal
1780593851.3644395,10.834080900007393,439097,0.053955,0.001953,1.062988,3.244275,3.206107,-0.030534,1.064358,4.561291,7506,12678,5171,7506,1,72.0,15,normal
1780593851.3957868,10.865428200006136,439128,0.049805,-0.010498,1.054688,0.343511,2.80916,-1.358779,1.055915,3.139372,7508,12681,5172,7508,0,72.0,6,normal
1780593851.4269295,10.896570900004008,439159,0.057129,-0.04126,1.047363,2.564885,2.862595,-0.740458,1.049731,3.914252,7509,12684,5174,7509,1,72.0,16,normal
1780593851.4573288,10.926970300002722,439190,0.0271,-0.017822,1.044434,1.900763,2.778626,-0.854962,1.044937,3.473417,7511,12687,5175,7511,0,72.0,6,normal
1780593851.4881234,10.957764799997676,439221,0.046631,-0.016602,1.079834,1.022901,3.21374,-1.442748,1.080968,3.668239,7513,12691,5177,7513,0,72.0,0,normal
1780593851.518127,10.98776839999482,439252,0.057617,-0.001221,1.062012,2.717557,3.091603,-0.328244,1.063574,4.12927,7515,12696,5180,7515,1,72.0,13,normal
1780593851.5491824,11.018823899998097,439282,0.05957,-0.006348,1.043213,0.610687,2.778626,-1.114504,1.044932,3.055457,7519,12701,5181,7519,0,79.137,6,normal
1780593851.5807655,11.05040690000169,439313,0.032715,-0.052979,1.052978,1.610687,2.717557,-1.419847,1.054818,3.463437,7520,12703,5182,7520,0,79.137,6,normal
1780593851.612074,11.081715299995267,439344,0.048096,-0.029297,1.056152,2.251908,3.748092,-0.877863,1.057653,4.459812,7523,12707,5183,7523,0,79.137,6,normal
1780593851.6442208,11.11386230000062,439375,0.05127,-0.018311,1.078613,0.59542,3.358779,-1.129771,1.079986,3.593369,7524,12709,5184,7524,0,79.137,6,normal
1780593851.6752827,11.14492419999442,439407,0.049316,-0.052002,1.050293,2.496183,3.572519,-0.389313,1.052735,4.375544,7525,12712,5186,7525,1,79.137,16,normal
1780593851.7077146,11.177355899999384,439439,0.046387,-0.013428,1.039795,0.290076,3.259542,-1.206107,1.040916,3.487614,7530,12719,5188,7530,0,79.137,0,normal
1780593851.7372096,11.206850999995368,439470,0.040283,-0.067139,1.045654,2.59542,2.709924,-0.725191,1.048582,3.821752,7532,12724,5191,7532,1,79.137,13,normal
1780593851.7806022,11.250243600006797,439502,0.033691,0.001709,1.056152,1.793893,2.656489,-1.21374,1.056691,3.427558,7542,12735,5192,7542,0,79.137,0,normal
1780593851.8011613,11.270802700004424,439533,0.029297,-0.030273,1.058106,1.381679,2.847328,-0.938931,1.058944,3.301198,7543,12737,5193,7543,0,95.618,6,normal
1780593851.8323379,11.301979199997731,439564,0.062256,-0.006104,1.064941,3.274809,3.557252,-0.40458,1.066777,4.85202,7546,12741,5194,7546,0,95.618,6,normal
1780593851.863555,11.333196299994597,439595,0.05249,-0.007568,1.042725,-0.022901,2.984733,-1.305344,1.044072,3.257772,7547,12743,5195,7547,0,95.618,6,normal
1780593851.8945305,11.364172000001417,439626,0.044922,-0.05835,1.050049,2.778626,2.839695,-0.748092,1.052628,4.042805,7549,12748,5198,7549,1,95.618,13,normal
1780593851.9253528,11.394994300004328,439657,0.026611,0.008789,1.052978,1.969466,2.748092,-0.938931,1.053351,3.508902,7554,12755,5200,7554,0,95.618,1,normal
1780593851.9561212,11.425762600003509,439688,0.046387,-0.043945,1.061768,1.320611,2.977099,-1.007634,1.063688,3.409172,7555,12757,5201,7555,0,95.618,6,normal
1780593851.986175,11.45581640000455,439719,0.049805,-0.018555,1.061523,2.717557,3.427481,-0.183206,1.062853,4.377934,7557,12760,5202,7557,1,95.618,16,normal
1780593852.0181313,11.487772599997697,439750,0.046387,-0.014404,1.041504,0.229008,2.770992,-1.427481,1.042636,3.125467,7559,12763,5203,7559,0,95.618,6,normal
1780593852.0475564,11.517197799999849,439781,0.0625,-0.050049,1.050293,2.648855,2.59542,-1.068702,1.053341,3.859373,7560,12766,5205,7560,1,95.618,17,normal
1780593852.0773575,11.546998899997561,439811,0.043945,-0.019287,1.0625,2.29771,2.931298,-0.80916,1.063583,3.811393,7562,12769,5206,7562,0,68.345,6,normal
1780593852.1078565,11.57749789999798,439841,0.048828,0.005859,1.062988,0.89313,3.458015,-0.839695,1.064125,3.668874,7566,12775,5208,7566,0,68.345,0,normal
1780593852.1396906,11.609332199994242,439872,0.041748,-0.032471,1.039307,2.503817,2.618321,-0.381679,1.040651,3.642854,7568,12780,5211,7568,1,68.345,13,normal
1780593852.1725192,11.64216070000839,439904,0.038086,0.015381,1.041504,1.183206,2.541985,-1.068702,1.042313,3.000631,7570,12783,5212,7570,0,68.345,6,normal
1780593852.2031078,11.672749200006365,439935,0.036865,-0.058105,1.047852,1.862595,2.664122,-1.351145,1.050109,3.520284,7571,12785,5213,7571,0,68.345,6,normal
1780593852.2335083,11.703149799999665,439966,0.053467,-0.030518,1.069336,2.129771,3.10687,-0.351145,1.071107,3.783103,7574,12789,5214,7574,0,68.345,7,normal
1780593852.2641616,11.733803099996294,439997,0.048828,0.008301,1.058838,0.48855,3.694656,-1.21374,1.059996,3.919481,7575,12791,5215,7575,0,68.345,6,normal
1780593852.2958114,11.765452799998457,440027,0.036865,-0.030029,1.040283,2.587786,2.847328,-0.259542,1.041369,3.85633,7577,12796,5218,7577,1,68.345,14,normal
1780593852.326087,11.795728400000371,440059,0.045654,0.007324,1.05127,1.396947,2.519084,-0.908397,1.052286,3.020336,7581,12801,5219,7581,0,68.345,6,normal
1780593852.3567417,11.82638310000766,440089,0.034912,-0.03418,1.061768,1.503817,3.083969,-1.328244,1.062891,3.679207,7582,12803,5220,7582,0,71.942,6,normal
1780593852.3889868,11.858628200003295,440121,0.048584,0.0,1.060059,2.19084,3.778626,-0.687023,1.061171,4.421515,7585,12807,5221,7585,0,71.942,6,normal
1780593852.418915,11.888556499994593,440152,0.051514,-0.021484,1.052734,0.671756,3.29771,-0.931298,1.054213,3.491914,7586,12809,5222,7586,0,71.942,6,normal
1780593852.4498644,11.919505800004117,440182,0.056885,-0.02124,1.053223,2.389313,2.648855,-0.801527,1.054972,3.656186,7587,12812,5224,7587,1,71.942,16,normal
1780593852.4810832,11.950724599999376,440214,0.033936,0.005371,1.044922,1.496183,2.549618,-1.0,1.045487,3.120756,7592,12819,5226,7592,0,71.942,1,normal
1780593852.5175006,11.987142199999653,440250,0.03125,-0.033447,1.061523,1.473282,2.862595,-1.061069,1.06251,3.38982,7594,12824,5229,7594,1,71.942,15,normal
1780593852.5488744,12.018515899995691,440281,0.04834,0.007813,1.050049,1.374046,2.351145,-1.053435,1.05119,2.919865,7596,12827,5230,7596,0,71.942,6,normal
1780593852.5798414,12.049482800008263,440312,0.032471,-0.0354,1.053467,1.671756,2.641221,-1.290076,1.054561,3.381585,7597,12829,5231,7597,0,71.942,6,normal
1780593852.611954,12.081595499999821,440344,0.04834,-0.030518,1.066406,2.221374,3.312977,-0.267176,1.067937,3.997712,7600,12833,5232,7600,0,70.588,6,normal
1780593852.6422005,12.111841999998433,440375,0.052734,0.008301,1.062744,0.633588,3.572519,-0.946565,1.064084,3.749708,7601,12835,5233,7601,0,70.588,6,normal
1780593852.673541,12.143182500003604,440405,0.062744,-0.026855,1.047119,2.740458,2.312977,-0.503817,1.049341,3.621298,7603,12840,5236,7603,1,70.588,13,normal
1780593852.704286,12.173927600000752,440437,0.036377,0.005615,1.050293,1.396947,2.351145,-1.007634,1.050938,2.914561,7608,12847,5238,7608,0,70.588,0,normal
1780593852.7355044,12.205145800005994,440468,0.043701,-0.037842,1.056885,1.679389,2.664122,-1.198473,1.058464,3.369604,7610,12851,5240,7610,0,70.588,0,normal
1780593852.7662408,12.235882199995103,440499,0.051025,0.000244,1.054688,2.946565,3.694656,-0.221374,1.055921,4.730934,7613,12855,5241,7613,0,70.588,7,normal
1780593852.797775,12.26741650000622,440530,0.053467,-0.022705,1.050049,0.396947,3.251908,-1.114504,1.051654,3.460432,7614,12857,5242,7614,0,70.588,6,normal
1780593852.8298686,12.299509999997099,440561,0.061035,-0.018066,1.047363,2.832061,2.78626,-0.664122,1.049296,4.028011,7615,12860,5244,7615,1,70.588,17,normal
1780593852.8599215,12.329563000006601,440593,0.036865,0.003662,1.050293,1.351145,2.694656,-0.770992,1.050946,3.111462,7618,12865,5246,7618,0,70.588,1,normal
1780593852.8917663,12.361407699994743,440624,0.046875,-0.043457,1.059326,1.641221,2.198473,-1.427481,1.061253,3.092668,7620,12869,5248,7620,0,71.429,0,normal
1780593852.9232829,12.39292420000129,440655,0.052002,-0.00293,1.063477,2.694656,3.687023,-0.335878,1.064751,4.579096,7624,12875,5250,7624,0,71.429,7,normal
1780593852.9537065,12.42334789999586,440686,0.048584,-0.024658,1.040283,0.458015,3.114504,-0.931298,1.041709,3.282869,7627,12879,5251,7627,0,71.429,6,normal
1780593852.9848347,12.454475999998976,440717,0.05249,-0.020996,1.050293,2.671756,2.763359,-0.541985,1.051813,3.881775,7628,12882,5253,7628,1,71.429,16,normal
1780593853.0163493,12.485990700006369,440749,0.04248,0.009521,1.056885,1.244275,2.572519,-0.778626,1.057781,2.961812,7638,12893,5254,7638,0,71.429,1,normal
1780593853.0476167,12.517258100007894,440780,0.040527,-0.049072,1.049072,1.679389,2.839695,-1.022901,1.051001,3.454062,7639,12895,5255,7639,0,71.429,6,normal
1780593853.0777905,12.547432000006665,440811,0.056641,-0.002441,1.061768,2.541985,3.725191,-0.503817,1.06328,4.537904,7643,12901,5257,7643,0,71.429,6,normal
1780593853.1075327,12.577174300007755,440841,0.044678,-0.006104,1.046143,0.435114,3.061069,-1.0,1.047114,3.249533,7647,12907,5259,7647,0,71.429,1,normal
1780593853.1386871,12.608328700007405,440871,0.032471,-0.040771,1.051514,1.770992,2.832061,-1.290076,1.052805,3.580682,7649,12911,5261,7649,1,71.429,1,normal
1780593853.1689167,12.638558100006776,440902,0.037598,-0.006836,1.060303,2.038168,2.59542,-1.030534,1.060991,3.457215,7652,12915,5262,7652,0,115.108,6,normal
1780593853.1999505,12.669591800004127,440932,0.067871,0.008545,1.075195,0.832061,3.717557,-1.145038,1.077369,3.977898,7653,12917,5263,7653,0,115.108,6,normal
1780593853.2310028,12.700644299999112,440963,0.045166,-0.053223,1.037354,2.030534,2.709924,-0.671756,1.039699,3.452247,7654,12920,5265,7654,1,115.108,16,normal
1780593853.2634108,12.733052299998235,440995,0.046143,0.014404,1.048828,0.526718,2.480916,-1.183206,1.049941,2.798634,7657,12925,5267,7657,0,115.108,0,normal
1780593853.2944052,12.764046600001166,441026,0.037598,-0.046387,1.053955,1.778626,2.564885,-1.412214,1.055645,3.425857,7659,12929,5269,7659,0,115.108,1,normal
1780593853.325991,12.795632399996975,441057,0.035889,-0.028809,1.053955,2.244275,3.335878,-0.648855,1.054959,4.072574,7663,12935,5271,7663,0,115.108,6,normal
1780593853.3574886,12.827130100005888,441089,0.054443,-0.023193,1.066894,0.671756,3.473282,-1.10687,1.068534,3.706765,7666,12939,5272,7666,0,115.108,6,normal
1780593853.3891935,12.858834900005604,441121,0.04834,-0.01123,1.056396,2.740458,3.473282,-0.244275,1.057562,4.430967,7667,12942,5274,7667,1,115.108,17,normal
1780593853.4202309,12.889872200001264,441152,0.042236,-0.012207,1.040527,0.122137,2.51145,-1.534351,1.041456,2.945596,7669,12945,5275,7669,0,68.0,6,normal
1780593853.4506502,12.92029170000751,441183,0.050537,-0.044434,1.04541,2.419847,2.984733,-0.946565,1.047574,3.957307,7670,12948,5277,7670,1,68.0,16,normal
1780593853.4807339,12.950375300002634,441214,0.03833,-0.01001,1.05249,2.152672,2.541985,-0.778626,1.053236,3.42081,7675,12955,5279,7675,0,68.0,0,normal
1780593853.5114574,12.981098899996141,441244,0.047607,-0.01123,1.063477,0.580153,3.832061,-0.885496,1.064601,3.975597,7677,12959,5281,7677,0,68.0,0,normal
1780593853.542203,13.011844399996335,441275,0.043701,-0.050537,1.050781,1.801527,2.954198,-0.679389,1.052903,3.526238,7679,12964,5284,7679,1,68.0,13,normal
1780593853.5741494,13.04379070000141,441306,0.055176,-0.011475,1.056885,1.061069,2.870229,-1.045802,1.058386,3.233849,7681,12967,5285,7681,0,68.0,6,normal
1780593853.6054492,13.075090700003784,441337,0.031006,-0.049072,1.040283,1.664122,2.51145,-1.572519,1.041901,3.398456,7682,12969,5286,7682,0,68.0,6,normal
1780593853.6358705,13.105511800007662,441368,0.050537,-0.028809,1.074463,1.763359,3.610687,-0.793893,1.076036,4.095944,7685,12973,5287,7685,0,68.0,7,normal
1780593853.667024,13.136665300000459,441400,0.048096,-0.017578,1.074463,0.900763,3.778626,-0.954198,1.075682,3.999986,7687,12977,5289,7687,0,68.0,1,normal
1780593853.6997805,13.169422000006307,441431,0.039551,-0.066406,1.041504,2.198473,3.259542,-0.305344,1.044368,3.943492,7689,12982,5292,7689,1,71.685,13,normal
1780593853.7292328,13.198874299996532,441463,0.060059,-0.00708,1.050049,0.534351,3.137405,-1.0,1.051789,3.335992,7694,12989,5294,7694,0,71.685,0,normal
1780593853.7614093,13.231050800008234,441493,0.037109,-0.055908,1.051758,1.78626,2.48855,-1.526718,1.053896,3.422641,7695,12991,5295,7695,0,71.685,6,normal
1780593853.7928255,13.262467000007746,441524,0.0354,-0.025879,1.070557,2.007634,3.396947,-0.984733,1.071454,4.066883,7698,12995,5296,7698,0,71.685,6,normal
1780593853.8245454,13.294186900006025,441556,0.048828,-0.014893,1.08252,1.068702,3.564885,-1.274809,1.083722,3.933913,7699,12997,5297,7699,0,71.685,6,normal
1780593853.8554122,13.325053699998534,441587,0.05249,-0.077148,1.03833,2.419847,3.099237,-0.366412,1.042514,3.949074,7700,13000,5299,7700,1,71.685,16,normal
1780593853.8862784,13.355919800000265,441618,0.054199,-0.016357,1.042236,0.59542,2.671756,-0.78626,1.043773,2.847983,7705,13007,5301,7705,0,71.685,0,normal
1780593853.9183552,13.387996599994949,441650,0.041504,-0.070557,1.049561,2.961832,3.122137,-1.10687,1.052748,4.443574,7707,13012,5304,7707,1,71.685,13,normal
1780593853.95,13.419641500004218,441682,0.034912,-0.003906,1.053955,1.503817,2.412214,-1.305344,1.05454,3.127964,7714,13020,5305,7714,0,99.602,1,normal
1780593853.9795058,13.449147200008156,441713,0.045654,-0.023438,1.070312,1.0,2.938931,-1.08397,1.071542,3.288207,7715,13022,5306,7715,0,99.602,6,normal
1780593854.0110407,13.480682099994738,441743,0.056152,-0.082031,1.050293,2.519084,3.251908,-0.40458,1.054987,4.133325,7716,13025,5308,7716,1,99.602,17,normal
1780593854.0413103,13.510951799995382,441774,0.046875,-0.011963,1.036133,0.59542,2.717557,-0.824427,1.037262,2.901607,7718,13028,5309,7718,0,99.602,6,normal
1780593854.0732317,13.54287309999927,441805,0.037354,-0.046631,1.05957,1.435114,2.755725,-1.374046,1.061254,3.39729,7720,13032,5311,7720,0,99.602,0,normal
1780593854.1038578,13.573499200007063,441836,0.053955,-0.020996,1.063965,2.068702,2.969466,-0.89313,1.065539,3.727591,7725,13038,5312,7725,0,99.602,6,normal
1780593854.13483,13.604471500002546,441867,0.051758,-0.016357,1.07251,0.946565,3.648855,-1.236641,1.073882,3.967292,7728,13042,5313,7728,0,99.602,6,normal
1780593854.166141,13.635782500001369,441898,0.054443,-0.08667,1.042969,1.961832,2.740458,-0.435114,1.047979,3.398267,7729,13045,5315,7729,1,99.602,16,normal
1780593854.1955025,13.665143899997929,441929,0.044678,0.001221,1.044434,1.175572,2.59542,-1.122137,1.045389,3.062249,7731,13048,5316,7731,0,99.602,6,normal
1780593854.2270064,13.696647999997367,441959,0.040283,-0.029053,1.05249,1.603053,2.48855,-1.320611,1.053662,3.2414,7732,13050,5317,7732,0,64.982,6,normal
1780593854.25928,13.728921300004004,441991,0.040771,-0.022949,1.056396,2.274809,3.374046,-0.793893,1.057432,4.145987,7735,13054,5318,7735,0,64.982,7,normal
1780593854.2894366,13.759078100003535,442023,0.056885,-0.001709,1.067627,0.847328,3.59542,-1.007634,1.069143,3.828882,7739,13060,5320,7739,0,64.982,0,normal
1780593854.3200064,13.789647800003877,442053,0.044189,-0.055664,1.049561,2.717557,2.480916,-0.709924,1.051964,3.74754,7741,13065,5323,7741,1,64.982,13,normal
1780593854.3509748,13.820616199998767,442084,0.038574,-0.004883,1.049805,1.343511,2.770992,-1.076336,1.050524,3.262196,7743,13068,5324,7743,0,64.982,7,normal
1780593854.3827426,13.852383999997983,442115,0.04126,-0.028809,1.063721,1.656489,2.48855,-1.244275,1.06491,3.238063,7744,13070,5325,7744,0,64.982,6,normal
1780593854.4143527,13.883994200004963,442146,0.054443,-0.013916,1.058594,2.633588,3.351145,-0.458015,1.060084,4.286693,7747,13074,5326,7747,0,64.982,7,normal
1780593854.4453723,13.915013699996052,442178,0.042969,0.00293,1.05957,0.534351,3.51145,-1.274809,1.060445,3.773718,7748,13076,5327,7748,0,64.982,6,normal
1780593854.4768476,13.946489099995233,442209,0.042725,-0.057373,1.044189,1.992366,3.038168,-0.427481,1.046637,3.658241,7750,13081,5330,7750,1,72.0,13,normal
1780593854.506963,13.976604399998905,442240,0.048584,-0.008545,1.041748,1.137405,2.51145,-1.396947,1.042915,3.090717,7754,13086,5331,7754,0,72.0,6,normal
1780593854.538862,14.008503500008374,442271,0.041992,-0.034424,1.051758,1.801527,2.541985,-1.114504,1.053158,3.308973,7755,13088,5332,7755,0,72.0,7,normal
1780593854.5705688,14.040210200008005,442302,0.049805,-0.02832,1.060791,2.374046,3.801527,-0.496183,1.062337,4.509312,7758,13092,5333,7758,0,72.0,6,normal
1780593854.600393,14.070034400006989,442333,0.046631,0.003662,1.071777,0.503817,3.206107,-1.145038,1.072798,3.441521,7759,13094,5334,7759,0,72.0,6,normal
1780593854.631768,14.101409399998374,442363,0.062012,-0.028076,1.044678,2.870229,2.633588,-0.679389,1.046893,3.954184,7760,13097,5336,7760,1,72.0,17,normal
1780593854.6622012,14.131842500006314,442394,0.037598,-0.006348,1.053467,1.625954,2.618321,-1.0,1.054157,3.240267,7765,13104,5338,7765,0,72.0,0,normal
1780593854.6921217,14.16176329999871,442424,0.052734,-0.014648,1.074463,0.679389,3.229008,-1.427481,1.075856,3.595242,7767,13108,5340,7767,0,72.0,0,normal
1780593854.7231553,14.19279670000833,442456,0.046143,-0.050293,1.052002,2.801527,3.335878,-0.244275,1.054214,4.363061,7768,13111,5342,7768,1,72.0,17,normal
1780593854.7555277,14.225169099998311,442487,0.050537,-0.013428,1.041992,0.076336,3.282443,-1.305344,1.043303,3.533296,7770,13114,5343,7770,0,71.942,6,normal
1780593854.7876174,14.25725880000391,442519,0.051758,-0.022705,1.046143,2.870229,2.557252,-0.167939,1.047668,3.847851,7771,13117,5345,7771,1,71.942,17,normal
1780593854.8181663,14.287807800006703,442551,0.039062,0.000977,1.057861,1.419847,2.80916,-1.175572,1.058583,3.359958,7773,13120,5346,7773,0,71.942,6,normal
1780593854.8497643,14.319405899994308,442582,0.041504,-0.046875,1.054932,1.694656,3.053435,-1.221374,1.056788,3.699606,7775,13124,5348,7775,0,71.942,0,normal
1780593854.879995,14.349636600003578,442613,0.04541,-0.011719,1.050049,3.10687,3.885496,-0.282443,1.051096,4.98292,7779,13130,5350,7779,0,71.942,7,normal
1780593854.9116595,14.381300900000497,442644,0.056885,-0.018555,1.05835,0.40458,3.48855,-0.717557,1.06004,3.584488,7783,13136,5352,7783,0,71.942,0,normal
1780593854.943294,14.412935500004096,442675,0.05127,-0.017822,1.046875,2.694656,2.763359,-0.412214,1.048281,3.881655,7784,13139,5354,7784,1,71.942,16,normal
1780593854.9745243,14.44416579999961,442707,0.038086,0.006104,1.048828,1.580153,2.10687,-1.251908,1.049537,2.916001,7786,13142,5355,7786,0,71.942,6,normal
1780593855.0065444,14.476185799998348,442738,0.033203,-0.050049,1.05957,1.610687,2.671756,-1.503817,1.061271,3.463244,7787,13144,5356,7787,0,67.729,6,normal
1780593855.0382898,14.507931200001622,442770,0.049316,-0.032959,1.072266,2.076336,3.442748,-0.48855,1.073905,4.049984,7790,13148,5357,7790,0,67.729,6,normal
1780593855.0681405,14.537781999999424,442801,0.04248,0.016846,1.069092,0.618321,3.59542,-0.908397,1.070068,3.759594,7794,13154,5359,7794,0,67.729,0,normal
1780593855.0993674,14.569008799997391,442831,0.059326,-0.015137,1.05127,2.534351,2.80916,-0.198473,1.053051,3.788629,7796,13159,5362,7796,1,67.729,14,normal
1780593855.1304417,14.60008299999754,442863,0.048096,-0.001221,1.044189,1.343511,2.839695,-1.21374,1.045297,3.367797,7800,13164,5363,7800,0,67.729,6,normal
1780593855.16195,14.631591500001377,442894,0.041016,-0.055908,1.057129,1.572519,2.709924,-1.251908,1.059401,3.373986,7801,13166,5364,7801,0,67.729,6,normal
1780593855.193065,14.662706400005845,442925,0.044434,0.00293,1.057861,2.603053,3.648855,-0.480916,1.058798,4.507916,7804,13170,5365,7804,0,67.729,7,normal
1780593855.224495,14.694136400008574,442956,0.050049,-0.013672,1.053467,0.465649,3.381679,-1.160305,1.054744,3.605398,7805,13172,5366,7805,0,67.729,6,normal
1780593855.2554421,14.72508370000287,442987,0.064209,-0.023193,1.04541,2.717557,2.541985,-0.458015,1.047637,3.749211,7807,13177,5369,7807,1,67.729,13,normal
1780593855.2866921,14.756333500001347,443018,0.045654,-0.005371,1.048828,1.290076,2.78626,-0.870229,1.049835,3.191369,7813,13184,5370,7813,0,92.857,1,normal
1780593855.3168077,14.786449299994274,443049,0.031494,-0.041748,1.048096,1.557252,3.061069,-1.015267,1.0494,3.581333,7815,13188,5372,7815,0,92.857,1,normal
1780593855.3487782,14.818419700008235,443080,0.053711,-0.010254,1.057373,2.969466,4.045802,-0.244275,1.058786,5.02453,7818,13192,5373,7818,0,92.857,6,normal
1780593855.3800533,14.84969469999487,443112,0.046631,-0.009521,1.055664,0.587786,3.358779,-1.175572,1.056736,3.606779,7819,13194,5374,7819,0,92.857,6,normal
1780593855.4107666,14.880408099998021,443143,0.051514,-0.021484,1.046387,2.412214,2.656489,-0.221374,1.047874,3.595096,7820,13197,5376,7820,1,92.857,17,normal
1780593855.4424217,14.912063199997647,443174,0.037598,-0.010254,1.050537,1.175572,2.870229,-1.175572,1.05126,3.31695,7823,13202,5378,7823,0,92.857,0,normal
1780593855.4725692,14.942210699999123,443205,0.031494,-0.029297,1.054199,1.465649,2.549618,-1.419847,1.055076,3.265677,7825,13206,5380,7825,0,92.857,0,normal
1780593855.503253,14.972894399994402,443236,0.052734,-0.00293,1.057617,2.89313,3.70229,-0.419847,1.058935,4.717354,7829,13212,5382,7829,0,92.857,6,normal
1780593855.5342398,15.003881199998432,443266,0.04248,-0.012939,1.046875,0.381679,3.450382,-1.496183,1.047816,3.780129,7832,13216,5383,7832,0,92.857,6,normal
1780593855.5665102,15.0361516999983,443298,0.050293,-0.02832,1.039551,2.816794,2.748092,-0.114504,1.041152,3.936934,7833,13219,5385,7833,1,71.429,17,normal
1780593855.59822,15.067861600007745,443330,0.052246,-0.009766,1.043945,1.068702,2.770992,-0.931298,1.045298,3.112529,7835,13222,5386,7835,0,71.429,6,normal
1780593855.628535,15.098176400002558,443361,0.041748,-0.030029,1.047607,1.427481,2.70229,-1.099237,1.048869,3.247829,7836,13224,5387,7836,0,71.429,6,normal
1780593855.6610703,15.130711799996789,443392,0.047607,-0.005859,1.05957,2.519084,3.80916,-0.458015,1.060656,4.589691,7840,13230,5389,7840,0,71.429,7,normal
1780593855.6908867,15.160528299995349,443423,0.046631,-0.015625,1.051514,0.29771,3.419847,-0.900763,1.052663,3.548994,7844,13236,5391,7844,0,71.429,0,normal
1780593855.7226183,15.192259799994645,443454,0.051025,-0.035889,1.046143,2.572519,2.687023,-0.366412,1.048001,3.737941,7846,13241,5394,7846,1,71.429,13,normal
1780593855.7532527,15.222894200007431,443486,0.04541,-0.006592,1.051514,1.236641,2.877863,-0.870229,1.052514,3.25095,7848,13244,5395,7848,0,71.429,7,normal
1780593855.7861946,15.255835999996634,443517,0.048584,-0.034424,1.055908,1.450382,2.656489,-1.10687,1.057586,3.222685,7849,13246,5396,7849,0,71.429,6,normal
1780593855.8239524,15.293594000002486,443548,0.045898,-0.017822,1.061768,2.427481,3.419847,-0.374046,1.062908,4.210454,7852,13250,5397,7852,0,76.0,7,normal
1780593855.8475242,15.317165500004194,443580,0.042969,-0.000977,1.07251,0.480916,3.335878,-0.946565,1.073371,3.500764,7854,13254,5399,7854,0,76.0,1,normal
1780593855.8782558,15.347897300001932,443610,0.055176,-0.038574,1.032715,2.442748,2.885496,-0.557252,1.034907,3.82147,7856,13259,5402,7856,1,76.0,13,normal
1780593855.9085562,15.37819760000275,443641,0.042969,0.009033,1.055176,1.0,2.51145,-1.175572,1.056089,2.947771,7862,13266,5403,7862,0,76.0,0,normal
1780593855.938923,15.408564299999853,443671,0.044434,-0.019531,1.077148,0.969466,3.076336,-0.885496,1.078242,3.344818,7863,13268,5404,7863,0,76.0,7,normal
1780593855.9712784,15.440919800006668,443702,0.05835,-0.052979,1.054688,2.740458,3.083969,-0.10687,1.057628,4.127033,7864,13271,5406,7864,1,76.0,16,normal
1780593856.0010955,15.470736899995245,443733,0.047119,-0.009033,1.0354,0.427481,3.236641,-0.748092,1.036511,3.349362,7866,13274,5407,7866,0,76.0,6,normal
1780593856.0303705,15.500012000004062,443763,0.02832,-0.050537,1.052002,1.854962,2.740458,-1.580153,1.053596,3.667134,7867,13276,5408,7867,0,76.0,5,normal
1780593856.0622332,15.531874699998298,443794,0.052246,-0.032715,1.069336,2.152672,3.381679,-0.664122,1.071111,4.06335,7871,13282,5410,7871,0,76.0,6,normal
1780593856.093835,15.563476600000286,443825,0.042236,-0.01416,1.083984,0.725191,3.496183,-1.068702,1.084899,3.727106,7875,13288,5412,7875,0,83.032,0,normal
1780593856.1251583,15.594799700003932,443857,0.046143,-0.072266,1.042969,2.259542,3.412214,-0.29771,1.046487,4.103336,7876,13291,5414,7876,1,83.032,16,normal
1780593856.1570334,15.626675000006799,443888,0.054932,-0.014893,1.045654,0.419847,2.755725,-0.954198,1.047202,2.946318,7878,13294,5415,7878,0,83.032,6,normal
1780593856.1878777,15.65751900000032,443920,0.043945,-0.059814,1.055176,2.679389,3.221374,-0.748092,1.057783,4.256292,7879,13297,5417,7879,1,83.032,16,normal
1780593856.2182562,15.687897800002247,443951,0.038818,-0.009033,1.057129,1.885496,2.740458,-0.80916,1.05788,3.423441,7881,13300,5418,7881,0,83.032,6,normal
1780593856.2501047,15.719746100003249,443982,0.046387,-0.036377,1.067139,1.312977,3.114504,-1.122137,1.068766,3.561353,7883,13304,5420,7883,0,83.032,0,normal
1780593856.2811177,15.750759200003813,444013,0.053223,-0.037842,1.045654,2.664122,3.152672,-0.664122,1.047692,4.180663,7885,13309,5423,7885,1,83.032,13,normal
1780593856.3127851,15.782426699995995,444045,0.044678,-0.000732,1.046875,0.450382,3.076336,-1.114504,1.047828,3.302848,7889,13314,5424,7889,0,83.032,6,normal
1780593856.3441546,15.813796000002185,444076,0.049561,-0.061035,1.054932,2.824427,2.648855,-0.496183,1.057857,3.903847,7890,13317,5426,7890,1,59.761,16,normal
1780593856.376594,15.846235500008333,444108,0.037842,-0.005859,1.043701,1.900763,2.145038,-1.343511,1.044403,3.165298,7892,13320,5427,7892,0,59.761,7,normal
1780593856.4072907,15.876932099999976,444139,0.040527,-0.038574,1.052978,1.587786,3.206107,-1.114504,1.054464,3.747306,7893,13322,5428,7893,0,59.761,6,normal
1780593856.4388986,15.908540000003995,444170,0.050781,-0.010986,1.05542,2.78626,3.549618,-0.458015,1.056698,4.535726,7895,13325,5429,7895,1,59.761,15,normal
1780593856.4687686,15.938410000002477,444201,0.053223,-0.001953,1.043701,0.022901,3.259542,-1.221374,1.045059,3.480933,7900,13332,5431,7900,0,59.761,1,normal
1780593856.499603,15.969244499996421,444231,0.045166,-0.053955,1.050781,1.755725,2.648855,-1.122137,1.053135,3.370192,7901,13335,5433,7901,1,59.761,16,normal
1780593856.530199,15.999840599994059,444262,0.029053,-0.01123,1.055908,2.091603,2.725191,-0.977099,1.056367,3.571581,7903,13338,5434,7903,0,59.761,6,normal
1780593856.559809,16.0294503000041,444293,0.046631,-0.012207,1.065918,0.824427,3.40458,-1.114504,1.067007,3.675998,7904,13340,5435,7904,0,59.761,7,normal
1780593856.5912778,16.060919299998204,444323,0.037842,-0.050537,1.042969,2.137405,2.458015,-0.641221,1.044878,3.319865,7905,13343,5437,7905,1,59.761,16,normal
1780593856.622537,16.092178399994737,444354,0.036865,-0.011475,1.043701,1.541985,2.656489,-1.21374,1.044415,3.302698,7908,13348,5439,7908,0,64.748,0,normal
1780593856.6539035,16.12354499999492,444385,0.042969,-0.029053,1.055664,1.870229,2.641221,-1.320611,1.056938,3.4954,7910,13352,5441,7910,0,64.748,1,normal
1780593856.6844265,16.1540679000027,444416,0.05542,-0.000732,1.058106,2.442748,3.694656,-0.335878,1.059556,4.441882,7914,13358,5443,7914,0,64.748,6,normal
1780593856.7159948,16.185636199996225,444447,0.044922,0.003662,1.058106,0.519084,3.641221,-1.152672,1.059065,3.854425,7915,13360,5444,7915,0,64.748,6,normal
1780593856.7468317,16.21647300000768,444478,0.047119,-0.040527,1.037354,2.625954,2.732824,-0.549618,1.039214,3.829627,7916,13363,5446,7916,1,64.748,16,normal
1780593856.7774289,16.247070199999143,444509,0.04834,0.006348,1.053955,0.870229,2.748092,-1.183206,1.055082,3.115972,7918,13366,5447,7918,0,64.748,6,normal
1780593856.8087296,16.27837100000761,444540,0.036621,-0.039795,1.059326,1.541985,2.458015,-1.450382,1.060706,3.243942,7919,13368,5448,7919,0,64.748,6,normal
1780593856.840514,16.31015550000302,444572,0.050537,-0.029053,1.06543,2.496183,3.038168,-0.480916,1.067023,3.961398,7923,13374,5450,7923,0,64.748,6,normal
1780593856.8705416,16.340183000007528,444603,0.048096,0.015625,1.067627,0.557252,3.59542,-1.251908,1.068824,3.847707,7927,13380,5452,7927,0,64.748,0,normal
1780593856.9010103,16.370651799996267,444634,0.03125,-0.039551,1.036377,2.40458,2.885496,-0.633588,1.037602,3.809137,7928,13383,5454,7928,1,71.429,16,normal
1780593856.9326212,16.402262799994787,444665,0.026855,-0.004639,1.05542,1.496183,2.564885,-1.236641,1.055772,3.216595,7938,13394,5455,7938,0,71.429,1,normal
1780593856.9647198,16.434361200008425,444696,0.034912,-0.053223,1.055908,1.847328,2.687023,-1.183206,1.057825,3.468817,7939,13396,5456,7939,0,71.429,6,normal
1780593856.9960353,16.465676699997857,444728,0.048584,-0.004639,1.061523,2.572519,3.48855,-0.610687,1.062645,4.377302,7942,13400,5457,7942,0,71.429,7,normal
1780593857.0278397,16.497481099999277,444759,0.05957,0.014404,1.063232,0.496183,3.618321,-0.877863,1.064997,3.756206,7944,13404,5459,7944,0,71.429,0,normal
1780593857.058813,16.528454600003897,444790,0.037354,-0.036133,1.050049,2.549618,2.473282,-0.320611,1.051334,3.566577,7946,13409,5462,7946,1,71.429,13,normal
1780593857.0874507,16.5570921000035,444821,0.045654,-0.002441,1.045166,1.366412,2.59542,-0.885496,1.046166,3.063885,7951,13416,5464,7951,0,71.429,1,normal
1780593857.1189635,16.588604999997187,444851,0.029541,-0.044189,1.055664,1.320611,3.0,-1.030534,1.057002,3.435988,7952,13418,5465,7952,0,71.429,6,normal
1780593857.1506486,16.62029010000697,444882,0.054443,-0.017334,1.045898,3.175573,3.343511,-0.633588,1.047458,4.654542,7955,13422,5466,7955,0,71.429,6,normal
1780593857.1826189,16.652260400005616,444914,0.050293,-0.019287,1.051025,0.389313,3.564885,-0.977099,1.052405,3.716813,7956,13424,5467,7956,0,100.0,6,normal
1780593857.21264,16.682281500005047,444945,0.049072,-0.020752,1.046631,2.732824,2.419847,-0.358779,1.047986,3.667794,7957,13427,5469,7957,1,100.0,16,normal
1780593857.245768,16.715409600001294,444976,0.033203,-0.001221,1.047852,1.48855,2.687023,-1.290076,1.048378,3.331692,7962,13434,5471,7962,0,100.0,1,normal
1780593857.2754755,16.74511689999781,445007,0.037354,-0.03833,1.055664,1.358779,3.351145,-1.099237,1.05702,3.77952,7964,13438,5473,7964,0,100.0,0,normal
1780593857.305574,16.775215300003765,445037,0.053955,-0.031006,1.044922,2.541985,3.656489,-0.366412,1.046773,4.468316,7966,13443,5476,7966,1,100.0,13,normal
1780593857.335571,16.805212499995832,445068,0.043457,-0.009277,1.045654,0.526718,3.007634,-1.267176,1.046598,3.305908,7968,13446,5477,7968,0,100.0,6,normal
1780593857.3678477,16.837489199999254,445099,0.032227,-0.044922,1.048096,1.931298,2.534351,-1.10687,1.049553,3.37313,7969,13449,5479,7969,1,100.0,16,normal
1780593857.397893,16.86753440000757,445130,0.036865,-0.009277,1.054932,1.847328,2.618321,-0.679389,1.055616,3.275636,7971,13452,5480,7971,0,100.0,6,normal
1780593857.4289775,16.898618899998837,445161,0.03833,-0.019531,1.072998,1.053435,3.068702,-1.10687,1.07386,3.428093,7973,13456,5482,7973,0,100.0,1,normal
1780593857.4602396,16.929881100004422,445191,0.042725,-0.054443,1.035156,2.038168,2.80916,-0.526718,1.037467,3.510404,7975,13461,5485,7975,1,68.592,13,normal
1780593857.490769,16.960410300001968,445222,0.051514,0.01123,1.047119,1.259542,2.740458,-1.122137,1.048446,3.218035,7980,13468,5487,7980,0,68.592,0,normal
1780593857.5223718,16.99201329999778,445253,0.045898,-0.026123,1.069336,1.793893,2.717557,-1.290076,1.070639,3.502494,7981,13470,5488,7981,0,68.592,6,normal
1780593857.551295,17.02093650000461,445284,0.054199,-0.009521,1.070557,2.427481,3.450382,-0.290076,1.07197,4.228704,7984,13474,5489,7984,0,68.592,6,normal
1780593857.583903,17.05354449999868,445314,0.055908,-0.015625,1.043945,0.412214,3.229008,-1.19084,1.045558,3.466195,7985,13476,5490,7985,0,68.592,6,normal
1780593857.6147811,17.08442250000371,445345,0.056885,-0.045654,1.048096,2.534351,2.748092,-0.839695,1.050631,3.831453,7986,13479,5492,7986,1,68.592,16,normal
1780593857.6460662,17.115707599994494,445377,0.049561,-0.011719,1.047363,1.328244,2.19084,-0.70229,1.048601,2.656544,7991,13486,5494,7991,0,68.592,1,normal
1780593857.6775832,17.147224600004847,445409,0.041016,-0.034912,1.056885,1.725191,2.526718,-1.51145,1.058256,3.412487,7993,13490,5496,7993,0,68.592,1,normal
1780593857.708806,17.17844750000222,445440,0.052734,-0.016113,1.072754,2.587786,3.335878,-0.022901,1.07417,4.221996,7997,13496,5498,7997,0,68.592,6,normal
1780593857.7390504,17.208691899999394,445471,0.063965,0.003906,1.058106,0.366412,3.862595,-0.938931,1.060044,3.991928,7998,13498,5499,7998,0,82.143,6,normal
1780593857.7702818,17.239923300003284,445502,0.052002,-0.035156,1.038818,2.610687,2.51145,-0.671756,1.040713,3.684335,7999,13501,5501,7999,1,82.143,17,normal
1780593857.8024337,17.27207520000229,445533,0.041748,-0.016357,1.04248,1.40458,2.679389,-0.687023,1.043444,3.102253,8001,13504,5502,8001,0,82.143,6,normal
1780593857.848421,17.318062499994994,445564,0.048584,-0.039795,1.058838,1.442748,2.603053,-1.198473,1.060699,3.208387,8003,13508,5504,8003,0,82.143,0,normal
1780593857.8633702,17.333011700000498,445595,0.048584,-0.003906,1.061523,3.145038,3.465649,-0.427481,1.062642,4.699439,8007,13514,5506,8007,0,82.143,6,normal
1780593857.89391,17.363551300004474,445626,0.042725,-0.017822,1.050049,-0.053435,3.59542,-1.007634,1.051069,3.734331,8010,13518,5507,8010,0,82.143,6,normal
1780593857.9261112,17.395752600001288,445657,0.055176,-0.036621,1.050049,2.458015,2.458015,-0.633588,1.052135,3.533428,8011,13521,5509,8011,1,82.143,17,normal
1780593857.9581923,17.42783369999961,445689,0.041016,-0.008301,1.043457,1.099237,2.923664,-0.847328,1.044296,3.236371,8013,13524,5510,8013,0,82.143,6,normal
1780593857.9888306,17.4584720999992,445720,0.050049,-0.036865,1.05249,1.519084,2.862595,-1.167939,1.054324,3.444728,8014,13526,5511,8014,0,82.143,6,normal
1780593858.0186849,17.48832630000834,445751,0.046387,-0.00293,1.059326,3.007634,3.610687,-0.419847,1.060345,4.717964,8017,13530,5512,8017,0,67.857,6,normal
1780593858.051308,17.52094930000021,445782,0.058594,-0.016357,1.047363,0.137405,3.236641,-1.21374,1.049128,3.459464,8021,13536,5514,8021,0,67.857,0,normal
1780593858.0820987,17.551740199996857,445813,0.047607,-0.041016,1.058106,2.419847,2.503817,-0.358779,1.05997,3.500497,8023,13541,5517,8023,1,67.857,13,normal
1780593858.1178062,17.587447600002633,445849,0.038086,0.005615,1.052734,1.694656,2.610687,-0.977099,1.053438,3.26225,8025,13544,5518,8025,0,67.857,6,normal
1780593858.149345,17.61898640000436,445881,0.031738,-0.041992,1.04126,2.267176,2.763359,-0.709924,1.042589,3.644205,8026,13547,5520,8026,1,67.857,16,normal
1780593858.1807277,17.65036919999693,445913,0.049072,0.001221,1.040039,0.610687,2.557252,-0.961832,1.041197,2.799571,8028,13550,5521,8028,0,67.857,6,normal
1780593858.2127063,17.68234769999981,445944,0.044922,-0.058594,1.056152,2.152672,2.557252,-1.091603,1.05873,3.516409,8030,13554,5523,8030,0,67.857,1,normal
1780593858.2427173,17.71235859999433,445975,0.049805,-0.017578,1.06543,2.48855,3.40458,-0.473282,1.066738,4.243588,8034,13560,5525,8034,0,67.857,6,normal
1780593858.2723434,17.741984899999807,446006,0.062012,0.005127,1.066894,0.312977,4.0,-1.045802,1.068708,4.146282,8038,13566,5527,8038,0,82.353,0,normal
1780593858.3048146,17.774456099999952,446036,0.052734,-0.022705,1.056641,3.038168,2.290076,-0.526718,1.058199,3.840878,8039,13569,5529,8039,1,82.353,17,normal
1780593858.3361654,17.80580679999548,446068,0.047607,0.004639,1.044922,0.900763,2.816794,-1.030534,1.046016,3.131725,8041,13572,5530,8041,0,82.353,6,normal
1780593858.3678467,17.83748810000543,446099,0.04126,-0.037842,1.05542,1.725191,2.732824,-1.099237,1.056904,3.413639,8042,13574,5531,8042,0,82.353,6,normal
1780593858.398607,17.868248500002665,446130,0.0625,-0.007813,1.065186,2.625954,3.656489,-0.916031,1.067046,4.59398,8045,13578,5532,8045,0,82.353,6,normal
1780593858.4290504,17.898692000002484,446161,0.04834,-0.000977,1.059082,0.374046,3.419847,-0.862595,1.060185,3.546736,8049,13584,5534,8049,0,82.353,1,normal
1780593858.4600172,17.92965869999898,446192,0.042969,-0.02832,1.05249,3.0,2.618321,-0.007634,1.053748,3.981917,8051,13589,5537,8051,1,82.353,13,normal
1780593858.490771,17.96041260000493,446222,0.02832,0.001221,1.051758,1.992366,2.78626,-0.961832,1.05214,3.557793,8055,13594,5538,8055,0,82.353,6,normal
1780593858.5221007,17.991742199999862,446253,0.035889,-0.018555,1.074463,0.847328,3.305344,-1.007634,1.075222,3.557891,8056,13596,5539,8056,0,82.353,6,normal
1780593858.5513663,18.02100770000834,446284,0.057861,-0.008057,1.04834,2.748092,3.229008,-0.320611,1.049966,4.25221,8057,13599,5541,8057,1,68.345,16,normal
1780593858.5820127,18.051654099996085,446314,0.059082,0.011963,1.045654,0.801527,2.625954,-1.29771,1.04739,3.036796,8059,13602,5542,8059,0,68.345,6,normal
1780593858.6135325,18.08317410000018,446345,0.047363,-0.047852,1.056885,1.725191,2.534351,-1.366412,1.059027,3.356531,8061,13606,5544,8061,0,68.345,1,normal
1780593858.6446102,18.11425159999635,446376,0.035889,-0.02124,1.054932,2.206107,3.496183,-0.709924,1.055756,4.194544,8065,13612,5546,8065,0,68.345,6,normal
1780593858.6761432,18.145784499996807,446407,0.042725,-0.013184,1.063965,0.725191,2.931298,-1.091603,1.064904,3.21092,8069,13618,5548,8069,0,68.345,0,normal
1780593858.7078428,18.177484200001345,446439,0.052734,-0.064941,1.041992,2.160305,3.236641,-0.51145,1.045345,3.924837,8070,13621,5550,8070,1,68.345,16,normal
1780593858.7386088,18.208250199997565,446470,0.046875,0.016846,1.043457,0.870229,2.732824,-0.992366,1.044645,3.034867,8072,13624,5551,8072,0,68.345,6,normal
1780593858.7789283,18.248569700008375,446501,0.043213,-0.044189,1.050537,1.580153,2.70229,-1.564886,1.052354,3.499732,8073,13626,5552,8073,0,68.345,5,normal
1780593858.7996974,18.269338900005096,446531,0.057373,-0.021484,1.06958,2.381679,3.625954,-0.389313,1.071333,4.355629,8076,13630,5553,8076,0,68.345,6,normal
1780593858.8314912,18.30113269999856,446563,0.050781,-0.008301,1.068359,0.610687,3.793893,-0.946565,1.069598,3.957594,8080,13636,5555,8080,0,82.437,0,normal
1780593858.8629754,18.33261680000578,446594,0.042969,-0.052979,1.035889,2.473282,3.068702,-0.557252,1.038132,3.980526,8082,13641,5558,8082,1,82.437,13,normal
1780593858.8933163,18.362957699995604,446625,0.052734,-0.009521,1.056641,1.175572,2.961832,-1.045802,1.057999,3.353822,8086,13646,5559,8086,0,82.437,6,normal
1780593858.923795,18.39343640000152,446656,0.046387,-0.040771,1.052002,1.78626,2.557252,-1.305344,1.053813,3.381447,8087,13648,5560,8087,0,82.437,6,normal
1780593858.9559863,18.425627599994186,446687,0.056641,-0.020752,1.06958,2.70229,3.832061,-0.358779,1.07128,4.702742,8090,13652,5561,8090,0,82.437,6,normal
1780593858.9861686,18.455810100000235,446718,0.059814,0.002197,1.061035,0.564886,3.610687,-1.183206,1.062722,3.841371,8091,13654,5562,8091,0,82.437,6,normal
1780593859.018017,18.48765860000276,446749,0.053955,-0.036133,1.044189,2.519084,2.503817,-0.419847,1.046207,3.576472,8093,13659,5565,8093,1,82.437,13,normal
1780593859.0489175,18.518559000003734,446780,0.033691,0.011719,1.052002,1.480916,2.656489,-0.89313,1.052606,3.169814,8098,13666,5567,8098,0,82.437,1,normal
1780593859.0791032,18.548744600004284,446811,0.030029,-0.030762,1.062988,1.389313,2.984733,-1.557252,1.063857,3.641958,8099,13668,5568,8099,0,82.437,6,normal
1780593859.111201,18.580842600000324,446842,0.054688,-0.011475,1.064209,2.984733,3.572519,-0.068702,1.065675,4.655776,8102,13672,5569,8102,0,78.853,6,normal
1780593859.142446,18.612087500005146,446874,0.051025,0.002197,1.062988,0.557252,3.862595,-0.938931,1.064214,4.013946,8103,13674,5570,8103,0,78.853,6,normal
1780593859.17349,18.643131599994376,446905,0.044922,-0.030762,1.047363,2.717557,2.557252,-0.152672,1.048777,3.734697,8104,13677,5572,8104,1,78.853,16,normal
1780593859.2039907,18.673632100006216,446936,0.039795,0.008057,1.05249,1.312977,2.816794,-0.916031,1.053273,3.239961,8108,13682,5573,8108,0,78.853,0,normal
1780593859.235933,18.705574499996146,446967,0.041992,-0.043701,1.053955,1.175572,3.091603,-1.335878,1.055696,3.567149,8110,13686,5575,8110,0,78.853,0,normal
1780593859.2654502,18.73509170000034,446998,0.05249,0.001709,1.060547,2.854962,4.0,-0.160305,1.061846,4.916961,8114,13692,5577,8114,0,78.853,6,normal
1780593859.2963502,18.765991699998267,447028,0.039795,-0.008301,1.039795,0.381679,2.931298,-1.244275,1.040589,3.207243,8115,13694,5578,8115,0,78.853,6,normal
1780593859.3288794,18.798520800002734,447059,0.043457,-0.026123,1.056396,2.51145,2.755725,-1.114504,1.057613,3.891468,8116,13697,5580,8116,1,78.853,17,normal
1780593859.3598568,18.829498299994157,447092,0.0271,-0.006348,1.055176,1.946565,2.473282,-1.167939,1.055543,3.35713,8126,13708,5581,8126,0,96.0,0,normal
1780593859.3903632,18.860004600006505,447122,0.043457,-0.038086,1.061035,1.351145,2.870229,-1.236641,1.062608,3.404863,8127,13710,5582,8127,0,96.0,6,normal
1780593859.4212322,18.890873700001976,447153,0.053467,-0.009766,1.05127,3.129771,3.687023,-0.419847,1.052674,4.85447,8130,13715,5584,8130,0,96.0,13,normal
1780593859.4509451,18.920586599997478,447183,0.057129,-0.00293,1.036865,0.709924,3.061069,-1.175572,1.038442,3.355012,8135,13722,5586,8135,0,96.0,1,normal
1780593859.4814208,18.95106219999434,447213,0.044922,-0.043945,1.056152,1.618321,2.534351,-1.610687,1.05802,3.411189,8136,13724,5587,8136,0,96.0,6,normal
1780593859.5125148,18.982156199999736,447244,0.040039,-0.026367,1.067139,2.412214,3.038168,-0.732824,1.068215,3.947945,8139,13728,5588,8139,0,96.0,7,normal
1780593859.5427382,19.012379599997075,447275,0.04541,0.005127,1.075928,0.549618,3.732824,-1.038168,1.076898,3.913292,8140,13730,5589,8140,0,96.0,6,normal
1780593859.5747128,19.04435419999936,447306,0.049561,-0.049072,1.038574,2.206107,2.854962,-0.290076,1.040913,3.619649,8141,13733,5591,8141,1,96.0,16,normal
1780593859.605056,19.07469750000746,447337,0.052979,-0.014893,1.041992,1.427481,2.580153,-1.175572,1.043444,3.174407,8144,13738,5593,8144,0,96.0,0,normal
1780593859.6358469,19.105488400004106,447368,0.036133,-0.030762,1.068848,1.480916,2.519084,-1.427481,1.0699,3.252168,8146,13742,5595,8146,0,72.464,1,normal
1780593859.6674092,19.137050699995598,447399,0.044434,-0.007324,1.046143,2.908397,3.625954,-0.343511,1.047111,4.660935,8149,13746,5596,8149,0,72.464,6,normal
1780593859.6975973,19.16723869999987,447430,0.058838,-0.006104,1.059326,0.618321,3.549618,-1.229008,1.060976,3.806911,8150,13748,5597,8150,0,72.464,6,normal
1780593859.7296076,19.199248999997508,447461,0.057861,-0.036377,1.046875,2.480916,2.664122,-0.374046,1.049104,3.659563,8151,13751,5599,8151,1,72.464,16,normal
1780593859.7594616,19.229103000005125,447492,0.031738,0.000244,1.04248,1.381679,2.374046,-1.198473,1.042964,2.99691,8153,13754,5600,8153,0,72.464,6,normal
1780593859.7897859,19.259427199998754,447522,0.047119,-0.013672,1.07373,0.59542,3.335878,-1.274809,1.074851,3.620462,8155,13758,5602,8155,0,72.464,1,normal
1780593859.822492,19.29213329999766,447553,0.060303,-0.012207,1.05542,2.671756,3.19084,-0.435114,1.057212,4.184383,8157,13763,5605,8157,1,72.464,13,normal
1780593859.8529754,19.32261689999723,447584,0.040771,-0.009521,1.041748,0.10687,3.045802,-1.442748,1.042589,3.371921,8161,13768,5606,8161,0,72.464,6,normal
1780593859.8857498,19.355391200006125,447615,0.042236,-0.060547,1.049805,1.961832,2.732824,-1.167939,1.052397,3.561067,8162,13771,5608,8162,1,72.464,17,normal
1780593859.9197354,19.38937689999875,447646,0.040283,-0.018555,1.068848,2.083969,2.59542,-0.832061,1.069767,3.430956,8164,13774,5609,8164,0,64.748,6,normal
1780593859.9455054,19.41514690000622,447676,0.04248,-0.010742,1.075439,0.19084,3.48855,-0.961832,1.076332,3.623744,8165,13776,5610,8165,0,64.748,6,normal
1780593859.9755538,19.445195100008277,447707,0.05127,-0.050537,1.039062,2.022901,3.045802,-0.671756,1.041553,3.717565,8166,13779,5612,8166,1,64.748,17,normal
1780593860.0067482,19.47638970000844,447738,0.05127,-0.002441,1.048584,1.374046,2.633588,-1.206107,1.049839,3.206007,8171,13786,5614,8171,0,64.748,0,normal
1780593860.0392966,19.508937999999034,447769,0.032227,-0.047607,1.04834,1.847328,2.748092,-1.045802,1.049915,3.472511,8173,13790,5616,8173,0,64.748,0,normal
1780593860.0691285,19.538769899998442,447801,0.045166,-0.014648,1.05835,2.229008,3.145038,-0.916031,1.059414,3.962178,8176,13794,5617,8176,0,64.748,6,normal
1780593860.1004343,19.570075800002087,447832,0.057129,-0.013916,1.079346,0.305344,3.709924,-0.984733,1.080946,3.850515,8177,13796,5618,8177,0,64.748,6,normal
1780593860.1311688,19.600810300005833,447863,0.053223,-0.063721,1.041504,2.045802,3.267176,-0.580153,1.044808,3.898246,8178,13799,5620,8178,1,64.748,16,normal
1780593860.1629803,19.632621700002346,447894,0.045898,-0.001465,1.041992,0.954198,2.961832,-1.435114,1.043004,3.426733,8180,13802,5621,8180,0,64.748,6,normal
1780593860.194197,19.663838399996166,447925,0.046143,-0.054688,1.049561,1.618321,2.839695,-1.175572,1.051997,3.473442,8182,13806,5623,8182,0,64.516,0,normal
1780593860.2253525,19.694993900004192,447956,0.045166,-0.030029,1.055176,2.351145,3.793893,-0.503817,1.056569,4.491697,8186,13812,5625,8186,0,64.516,7,normal
1780593860.2565787,19.72622009999759,447988,0.048584,-0.008057,1.071289,0.587786,3.916031,-1.068702,1.07242,4.101574,8190,13818,5627,8190,0,64.516,1,normal
1780593860.2880802,19.757721700007096,448019,0.049805,-0.06958,1.043945,2.290076,2.900763,-0.40458,1.047446,3.71787,8191,13821,5629,8191,1,64.516,16,normal
1780593860.3199046,19.789545999999973,448051,0.036133,-0.00708,1.040283,0.618321,2.916031,-1.389313,1.040935,3.28873,8193,13824,5630,8193,0,64.516,6,normal
1780593860.3508983,19.820539799999096,448082,0.043213,-0.045654,1.05249,1.954198,2.877863,-1.305344,1.054366,3.715496,8194,13826,5631,8194,0,64.516,6,normal
1780593860.3826118,19.85225330000685,448113,0.045166,-0.011963,1.056396,1.977099,2.763359,-0.725191,1.057429,3.474331,8197,13831,5633,8197,0,64.516,3,normal
1780593860.4136918,19.883333300007507,448145,0.044678,-0.027344,1.063965,0.854962,3.152672,-1.206107,1.065254,3.482096,8200,13836,5635,8200,0,64.516,1,normal
1780593860.4459298,19.915571200006525,448176,0.051758,-0.038086,1.054932,2.641221,3.564885,-0.229008,1.056887,4.442623,8202,13841,5638,8202,1,79.681,13,normal
1780593860.4758384,19.945479899994098,448207,0.046631,-0.001953,1.046143,0.40458,3.091603,-1.679389,1.047183,3.541474,8206,13846,5639,8206,0,79.681,6,normal
1780593860.5070062,19.97664760000771,448238,0.047119,-0.061523,1.04248,1.80916,2.641221,-1.145038,1.045357,3.400033,8207,13849,5641,8207,1,79.681,16,normal
1780593860.5384715,20.00811280000198,448270,0.023438,-0.004395,1.047607,1.832061,2.51145,-0.977099,1.047879,3.258612,8209,13852,5642,8209,0,79.681,6,normal
1780593860.5699832,20.039624600001844,448301,0.048828,-0.03833,1.066894,1.091603,2.839695,-1.038168,1.068699,3.214538,8210,13854,5643,8210,0,79.681,6,normal
1780593860.6002042,20.06984559999546,448332,0.053711,-0.026123,1.056152,2.839695,3.78626,-0.221374,1.05784,4.737999,8213,13859,5645,8213,1,79.681,13,normal
1780593860.631127,20.10076860000845,448363,0.053223,-0.00708,1.051025,0.305344,2.854962,-1.480916,1.052396,3.230658,8218,13866,5647,8218,0,79.681,0,normal
1780593860.662864,20.132505400004447,448394,0.051758,-0.057861,1.053711,2.343511,2.557252,-0.885496,1.056567,3.5799,8220,13871,5650,8220,1,79.681,13,normal
1780593860.6954865,20.165128000007826,448427,0.023438,0.001465,1.047119,1.656489,2.725191,-1.053435,1.047382,3.358622,8230,13882,5651,8230,0,111.554,1,normal
1780593860.7275302,20.197171799998614,448458,0.034668,-0.032959,1.065186,1.412214,2.671756,-1.183206,1.066259,3.245397,8231,13884,5652,8231,0,111.554,6,normal
1780593860.7593737,20.2290151000052,448490,0.049072,-0.021484,1.054199,2.267176,3.167939,-0.473282,1.055559,3.924273,8234,13888,5653,8234,0,111.554,7,normal
1780593860.7902024,20.259843799998634,448522,0.040771,-0.010742,1.068115,0.870229,3.358779,-1.076336,1.068947,3.632794,8236,13892,5655,8236,0,111.554,1,normal
1780593860.8218791,20.291520600003423,448553,0.063721,-0.082031,1.049316,2.229008,2.984733,-0.290076,1.054445,3.736476,8238,13897,5658,8238,1,111.554,13,normal
1780593860.8526344,20.322275800004718,448585,0.043945,-0.005615,1.030029,0.465649,2.870229,-1.022901,1.030982,3.082429,8243,13904,5660,8243,0,111.554,0,normal
1780593860.8848078,20.354449200007366,448616,0.04541,-0.049805,1.050781,1.725191,2.732824,-1.091603,1.052941,3.411189,8244,13907,5662,8244,1,111.554,16,normal
1780593860.9166024,20.386243900007685,448648,0.029541,0.002686,1.04541,1.847328,2.633588,-0.80916,1.045831,3.317099,8246,13910,5663,8246,0,111.554,6,normal
1780593860.9486442,20.418285699997796,448679,0.046875,-0.035645,1.062744,0.916031,2.717557,-1.40458,1.064374,3.193286,8247,13912,5664,8247,0,67.46,6,normal
1780593860.9799902,20.44963170000119,448711,0.045166,-0.003418,1.066894,3.137405,3.625954,0.015267,1.067856,4.794902,8250,13916,5665,8250,0,67.46,6,normal
1780593861.010588,20.4802292999957,448742,0.056885,-0.019043,1.046875,0.519084,3.259542,-1.10687,1.048592,3.481268,8254,13922,5667,8254,0,67.46,0,normal
1780593861.0410213,20.510662900007446,448773,0.057373,-0.037109,1.045654,2.70229,2.908397,-0.648855,1.047884,4.022705,8256,13927,5670,8256,1,67.46,13,normal
1780593861.0726898,20.54233120000572,448804,0.033203,0.004883,1.05249,1.534351,2.465649,-1.236641,1.053025,3.156412,8260,13932,5671,8260,0,67.46,6,normal
1780593861.104008,20.57364940000116,448835,0.029541,-0.033447,1.056396,1.267176,2.900763,-1.374046,1.057339,3.450821,8261,13934,5672,8261,0,67.46,6,normal
1780593861.1352725,20.604913899995154,448866,0.052979,-0.010986,1.060059,2.961832,3.496183,-0.145038,1.061438,4.584406,8263,13937,5673,8263,1,67.46,15,normal
1780593861.1661549,20.635796200003824,448897,0.043213,-0.011719,1.04248,-0.015267,2.885496,-1.068702,1.043442,3.077084,8265,13940,5674,8265,0,67.46,7,normal
1780593861.1975756,20.667216900008498,448928,0.045166,-0.070068,1.045898,2.641221,2.687023,-1.160305,1.049215,3.942392,8267,13945,5677,8267,1,67.46,13,normal
1780593861.2274094,20.697050899994792,448959,0.033447,-0.005371,1.057129,1.961832,2.70229,-0.946565,1.057672,3.470899,8273,13952,5678,8273,0,92.857,1,normal
1780593861.2580352,20.72767659999954,448990,0.044678,-0.023926,1.075195,0.862595,3.305344,-1.312977,1.076389,3.659682,8275,13956,5680,8275,0,92.857,1,normal
1780593861.2897434,20.75938479999604,449021,0.050049,-0.04126,1.047363,2.633588,3.305344,-0.396947,1.04937,4.244838,8276,13959,5682,8276,1,92.857,16,normal
1780593861.3205616,20.79020319999836,449052,0.041992,-0.008057,1.040039,0.259542,3.259542,-1.328244,1.040918,3.529336,8278,13962,5683,8278,0,92.857,6,normal
1780593861.3520274,20.82166889999644,449083,0.046631,-0.062988,1.053467,1.900763,2.648855,-1.183206,1.056378,3.46833,8279,13965,5685,8279,1,92.857,16,normal
1780593861.3831332,20.852774700004375,449115,0.02832,0.002441,1.05249,1.78626,2.167939,-1.022901,1.052874,2.989483,8283,13970,5686,8283,0,92.857,0,normal
1780593861.4145262,20.884167700001854,449146,0.032471,-0.033447,1.065186,1.244275,3.198473,-1.061069,1.066205,3.592258,8285,13974,5688,8285,0,92.857,0,normal
1780593861.4471526,20.916794000004302,449178,0.043457,-0.013916,1.052246,2.793893,3.419847,-0.335878,1.053235,4.42877,8289,13980,5690,8289,0,92.857,6,normal
1780593861.4771512,20.946792500006268,449209,0.056396,-0.008789,1.061035,0.503817,3.053435,-1.076336,1.062569,3.276552,8292,13984,5691,8292,0,76.0,6,normal
1780593861.5088181,20.978459599995404,449240,0.044922,-0.02124,1.04126,2.671756,2.770992,-0.251908,1.042445,3.857478,8293,13987,5693,8293,1,76.0,17,normal
1780593861.5408428,21.010484300000826,449272,0.053223,-0.011719,1.049561,1.419847,2.679389,-0.770992,1.050974,3.128821,8295,13990,5694,8295,0,76.0,6,normal
1780593861.5721326,21.041774099998293,449303,0.037842,-0.030518,1.060547,1.473282,2.534351,-1.290076,1.06166,3.202779,8296,13992,5695,8296,0,76.0,6,normal
1780593861.6029468,21.072588299997733,449334,0.054932,-0.008545,1.067627,2.610687,3.900763,-0.496183,1.069073,4.71994,8300,13998,5697,8300,0,76.0,6,normal
1780593861.6340308,21.103672299999744,449365,0.050781,0.002441,1.068604,0.450382,3.290076,-1.343511,1.069812,3.582244,8304,14004,5699,8304,0,76.0,0,normal
1780593861.6654525,21.13509399999748,449396,0.05127,-0.037109,1.054199,2.458015,2.801527,-0.328244,1.056097,3.741408,8306,14009,5702,8306,1,76.0,13,normal
1780593861.6952407,21.164882099998067,449427,0.029541,0.002197,1.047607,1.534351,2.206107,-1.160305,1.048026,2.92702,8308,14012,5703,8308,0,76.0,6,normal
1780593861.725445,21.19508639999549,449457,0.046631,-0.012939,1.074463,0.763359,2.763359,-1.129771,1.075552,3.081437,8309,14014,5704,8309,0,76.0,6,normal
1780593861.7559443,21.22558569999819,449488,0.048828,-0.006836,1.058106,2.78626,3.068702,-0.732824,1.059254,4.209182,8310,14017,5706,8310,1,64.516,16,normal
1780593861.7877336,21.257374900000286,449519,0.042236,-0.009521,1.041016,0.175573,3.374046,-1.40458,1.041916,3.658942,8313,14022,5708,8313,0,64.516,0,normal
1780593861.8196142,21.289255600000615,449550,0.044434,-0.06958,1.040283,1.877863,2.854962,-1.160305,1.043554,3.608806,8315,14027,5711,8315,1,64.516,13,normal
1780593861.8515031,21.321144600005937,449581,0.037109,-0.010742,1.057129,2.053435,2.656489,-0.847328,1.057835,3.462874,8320,14034,5713,8320,0,64.516,0,normal
1780593861.8817735,21.35141499999736,449613,0.027588,-0.037354,1.063477,0.885496,2.885496,-1.137405,1.06449,3.225505,8321,14036,5714,8321,0,64.516,6,normal
1780593861.9127464,21.38238779999665,449644,0.047852,-0.043945,1.051758,2.732824,3.633588,-0.236641,1.053763,4.552724,8322,14039,5716,8322,1,64.516,16,normal
1780593861.9437222,21.413363700004993,449675,0.047607,-0.009033,1.041016,0.320611,3.21374,-1.519084,1.042143,3.569108,8324,14042,5717,8324,0,64.516,6,normal
1780593861.9754875,21.445128999999724,449706,0.052734,-0.063721,1.050537,2.89313,2.503817,-0.541985,1.053788,3.86433,8325,14045,5719,8325,1,64.516,16,normal
1780593862.006028,21.47566939999524,449737,0.033691,-0.008301,1.05835,1.770992,2.519084,-0.732824,1.058918,3.165317,8330,14052,5721,8330,0,64.516,0,normal
1780593862.0363197,21.505961100003333,449768,0.0354,-0.037354,1.063477,0.679389,3.198473,-1.129771,1.064721,3.459506,8332,14056,5723,8332,0,78.571,0,normal
1780593862.0675092,21.537150600008317,449799,0.056396,-0.033203,1.054688,2.801527,3.343511,-0.358779,1.056716,4.376796,8334,14061,5726,8334,1,78.571,13,normal
1780593862.0996435,21.56928500000504,449830,0.046387,-0.004639,1.04834,0.442748,2.748092,-1.221374,1.049376,3.039702,8336,14064,5727,8336,0,78.571,6,normal
1780593862.1296692,21.59931069999584,449861,0.039307,-0.060303,1.057861,1.610687,3.099237,-1.091603,1.060308,3.659396,8337,14066,5728,8337,0,78.571,6,normal
1780593862.1602144,21.6298558999988,449892,0.028809,-0.021973,1.054932,2.076336,2.625954,-0.641221,1.055554,3.408514,8340,14070,5729,8340,0,78.571,6,normal
1780593862.1923118,21.661953100003302,449923,0.056641,-0.010986,1.074219,1.076336,3.374046,-1.259542,1.075767,3.758874,8342,14074,5731,8342,0,78.571,0,normal
1780593862.2234492,21.693090700005996,449954,0.057373,-0.058594,1.047852,2.030534,3.572519,0.083969,1.051056,4.110111,8344,14079,5734,8344,1,78.571,13,normal
1780593862.2537653,21.723406699995394,449985,0.049805,0.012695,1.051025,0.427481,2.679389,-1.076336,1.052281,2.918966,8349,14086,5736,8349,0,78.571,0,normal
1780593862.2856033,21.755244700005278,450016,0.035889,-0.057861,1.049805,1.725191,2.541985,-1.312977,1.05201,3.34094,8350,14088,5737,8350,0,78.571,6,normal
1780593862.3168528,21.78649420000147,450047,0.041504,-0.031982,1.068115,2.091603,3.19084,-0.870229,1.0694,3.913254,8353,14092,5738,8353,0,75.269,6,normal
1780593862.3463836,21.816024900006596,450078,0.048584,-0.01123,1.071289,0.534351,3.740458,-1.007634,1.072449,3.910484,8354,14094,5739,8354,0,75.269,6,normal
1780593862.37749,21.847131600006833,450109,0.061035,-0.080811,1.04834,2.122137,2.946565,-0.465649,1.05322,3.660948,8355,14097,5741,8355,1,75.269,16,normal
1780593862.408093,21.87773439999728,450140,0.047363,0.008789,1.04248,0.946565,2.954198,-1.51145,1.043593,3.450762,8360,14104,5743,8360,0,75.269,1,normal
1780593862.4405873,21.910228699998697,450171,0.032715,-0.047852,1.054199,1.541985,2.793893,-1.396947,1.055792,3.483535,8362,14108,5745,8362,0,75.269,0,normal
1780593862.471569,21.94121059999452,450202,0.044678,-0.024658,1.057373,2.427481,3.091603,-0.862595,1.058604,4.024269,8365,14112,5746,8365,0,75.269,6,normal
1780593862.5029116,21.972552899998846,450234,0.045898,-0.021484,1.065186,0.80916,3.664122,-1.206107,1.06639,3.941475,8366,14114,5747,8366,0,75.269,6,normal
1780593862.5332584,22.002900000006775,450265,0.059326,-0.075684,1.049316,2.656489,3.167939,-0.503817,1.053714,4.164925,8367,14117,5749,8367,1,75.269,17,normal
1780593862.564686,22.03432740000426,450296,0.04541,0.01123,1.039307,0.29771,2.770992,-1.229008,1.040359,3.045897,8369,14120,5750,8369,0,75.269,6,normal
1780593862.595518,22.06515959999524,450327,0.040039,-0.076904,1.041748,1.801527,2.70229,-1.40458,1.04535,3.538462,8371,14124,5752,8371,0,64.286,0,normal
1780593862.6271477,22.09678910000366,450358,0.043701,-0.018555,1.058594,2.312977,3.717557,-0.862595,1.059658,4.462528,8374,14130,5755,8374,0,64.286,5,normal
1780593862.6581993,22.127840800007107,450389,0.048828,-0.020264,1.070801,0.534351,3.687023,-1.312977,1.072105,3.950136,8377,14134,5756,8377,0,64.286,6,normal
1780593862.6891067,22.158748200003174,450420,0.04248,-0.074707,1.048096,1.977099,3.206107,-0.236641,1.051613,3.774128,8378,14137,5758,8378,1,64.286,16,normal
1780593862.7194698,22.189111200001207,450451,0.053955,-0.003906,1.039307,0.816794,2.763359,-1.145038,1.040714,3.100712,8380,14140,5759,8380,0,64.286,6,normal
1780593862.750931,22.220572499994887,450482,0.039307,-0.046875,1.050049,1.549618,2.916031,-1.290076,1.051829,3.545257,8381,14142,5760,8381,0,64.286,6,normal
1780593862.7820058,22.251647199998843,450513,0.04248,-0.023682,1.064941,2.267176,3.648855,-1.08397,1.066051,4.430487,8384,14146,5761,8384,0,64.286,6,normal
1780593862.8137445,22.283385899994755,450545,0.045166,-0.020752,1.073242,0.564886,3.648855,-1.267176,1.074393,3.903712,8386,14150,5763,8386,0,64.286,0,normal
1780593862.8443046,22.313945999994758,450576,0.056152,-0.083496,1.044678,2.29771,3.740458,-0.229008,1.049512,4.395787,8388,14155,5766,8388,1,64.286,13,normal
1780593862.8748019,22.344443299996783,450606,0.04126,0.01123,1.035156,1.145038,2.625954,-1.29771,1.036039,3.144964,8392,14160,5767,8392,0,75.269,6,normal
1780593862.9065256,22.376166999994894,450637,0.042236,-0.051514,1.051514,1.717557,2.587786,-1.152672,1.053622,3.312898,8393,14162,5768,8393,0,75.269,6,normal
1780593862.9373136,22.40695499999856,450668,0.057861,-0.019287,1.067139,2.648855,3.51145,-0.580153,1.06888,4.436586,8396,14166,5769,8396,0,75.269,6,normal
1780593862.9685433,22.438184700004058,450699,0.049805,0.002686,1.067139,0.389313,3.603053,-1.244275,1.068304,3.831681,8397,14168,5770,8397,0,75.269,6,normal
1780593862.9999695,22.469610900006955,450730,0.052002,-0.055664,1.046143,2.175573,3.145038,-0.694656,1.048912,3.886763,8398,14171,5772,8398,1,75.269,16,normal
1780593863.031239,22.50088049999613,450762,0.04541,0.006592,1.049316,1.015267,2.763359,-1.137405,1.050319,3.156043,8403,14178,5774,8403,0,75.269,1,normal
1780593863.0624259,22.532067199994344,450793,0.032959,-0.058838,1.043945,1.618321,2.694656,-1.549618,1.046121,3.50449,8405,14182,5776,8405,0,75.269,0,normal
1780593863.0936608,22.563302199996542,450824,0.046875,-0.033936,1.07666,2.458015,2.923664,-0.717557,1.078214,3.886456,8408,14186,5777,8408,0,75.269,7,normal
1780593863.1243536,22.59399520000443,450856,0.047119,-0.009033,1.079102,0.564886,3.541985,-1.038168,1.080168,3.733972,8409,14188,5778,8409,0,68.0,6,normal
1780593863.1558714,22.6255128000048,450886,0.045654,-0.040039,1.043945,2.160305,3.282443,-0.748092,1.04571,4.000124,8410,14191,5780,8410,1,68.0,16,normal
1780593863.185075,22.6547164000076,450917,0.05127,0.0,1.03418,1.015267,2.938931,-1.465649,1.03545,3.437472,8412,14194,5781,8412,0,68.0,6,normal
1780593863.2163465,22.68598799999745,450947,0.0354,-0.030029,1.053955,1.633588,2.793893,-1.099237,1.054977,3.418006,8414,14198,5783,8414,0,68.0,0,normal
1780593863.2457535,22.715394900005776,450978,0.050049,-0.004883,1.067871,2.977099,4.068702,-0.198473,1.069054,5.045478,8418,14204,5785,8418,0,68.0,6,normal
1780593863.2784078,22.748049200003152,451009,0.051758,-0.017334,1.052734,0.564886,3.251908,-0.992366,1.054148,3.446562,8421,14208,5786,8421,0,68.0,6,normal
1780593863.3079278,22.777569400001084,451040,0.047363,-0.033447,1.040772,3.0,2.48855,-0.320611,1.042385,3.910968,8422,14211,5788,8422,1,68.0,16,normal
1780593863.33876,22.808401400005096,451070,0.026855,-0.003906,1.060303,1.91603,2.557252,-0.839695,1.06065,3.303906,8424,14214,5789,8424,0,68.0,6,normal
1780593863.3685124,22.83815389999654,451100,0.043213,-0.010986,1.075195,0.541985,3.78626,-1.206107,1.076119,4.010512,8425,14216,5790,8425,0,68.0,6,normal
1780593863.4007392,22.87038059999759,451131,0.042969,-0.069092,1.052978,2.343511,3.038168,-0.549618,1.056117,3.876156,8426,14219,5792,8426,1,61.818,16,normal
1780593863.4302158,22.899857399999746,451162,0.053223,0.005127,1.047852,0.717557,2.969466,-1.267176,1.049215,3.307318,8431,14226,5794,8431,0,61.818,0,normal
1780593863.4622808,22.931922100004158,451193,0.039307,-0.050537,1.051514,1.587786,2.80916,-1.389313,1.053461,3.513209,8433,14230,5796,8433,0,61.818,1,normal
1780593863.492955,22.962596500001382,451224,0.041504,-0.020752,1.061768,2.038168,3.335878,-0.923664,1.062781,4.016885,8438,14236,5797,8438,0,61.818,6,normal
1780593863.5228267,22.992467999996734,451255,0.055908,-0.006348,1.071533,0.167939,3.59542,-0.969466,1.07301,3.727615,8439,14238,5798,8439,0,61.818,6,normal
1780593863.553419,23.023060499996063,451285,0.051758,-0.0354,1.045898,2.801527,2.305344,-0.503817,1.047776,3.662921,8440,14241,5800,8440,1,61.818,17,normal
1780593863.5841546,23.053796000007424,451316,0.046143,-0.009277,1.046631,1.290076,2.381679,-1.221374,1.047688,2.97127,8442,14244,5801,8442,0,61.818,6,normal
1780593863.6157587,23.085399999996298,451347,0.033447,-0.042969,1.05957,1.274809,2.89313,-0.763359,1.060968,3.252392,8444,14248,5803,8444,0,61.818,0,normal
1780593863.6459553,23.11559679999482,451378,0.049072,0.004395,1.063965,2.755725,3.40458,-0.10687,1.065105,4.381394,8448,14254,5805,8448,0,61.818,6,normal
1780593863.6784604,23.14810180000495,451409,0.061768,-0.01416,1.051758,0.503817,3.412214,-1.358779,1.053665,3.707198,8452,14260,5807,8452,0,93.525,1,normal
1780593863.715453,23.185094400003436,451446,0.039551,-0.037109,1.052978,2.679389,2.580153,-0.358779,1.054374,3.736982,8454,14264,5809,8454,0,93.525,7,normal
1780593863.750217,23.219858399999794,451477,0.05542,-0.015869,1.065186,0.19084,3.763359,-1.022901,1.066744,3.904564,8455,14266,5810,8455,0,93.525,6,normal
1780593863.7977564,23.267397799994797,451508,0.040527,-0.052979,1.045654,1.992366,2.664122,-0.587786,1.04778,3.378248,8456,14269,5812,8456,1,93.525,16,normal
1780593863.807622,23.277263299998594,451539,0.033691,-0.000244,1.045166,1.229008,2.839695,-1.122137,1.045709,3.291431,8459,14274,5814,8459,0,93.525,0,normal
1780593863.8389869,23.308628400001908,451570,0.050781,-0.050537,1.059082,1.755725,2.748092,-0.839695,1.061502,3.367442,8461,14278,5816,8461,0,93.525,0,normal
1780593863.86913,23.338771399998222,451601,0.057617,-0.002441,1.06543,2.59542,3.564885,-0.541985,1.066989,4.442787,8465,14284,5818,8465,0,93.525,6,normal
1780593863.8996408,23.36928220000118,451631,0.053467,-0.013672,1.055176,0.099237,3.305344,-1.251908,1.056618,3.535876,8468,14288,5819,8468,0,93.525,6,normal
1780593863.931032,23.400673500000266,451662,0.052979,-0.017822,1.049072,2.656489,2.519084,-0.251908,1.05056,3.669628,8469,14291,5821,8469,1,67.194,16,normal
1780593863.9622614,23.43190300000424,451694,0.030518,-0.000732,1.053223,1.534351,2.625954,-1.045802,1.053665,3.216142,8479,14302,5822,8479,0,67.194,0,normal
1780593863.9938357,23.463477099998272,451725,0.036621,-0.036621,1.058838,1.351145,3.022901,-1.152672,1.060104,3.50602,8480,14304,5823,8480,0,67.194,6,normal
1780593864.0247731,23.494414500004495,451756,0.056641,-0.000488,1.070068,2.969466,3.648855,-0.251908,1.071566,4.711192,8484,14310,5825,8484,0,67.194,6,normal
1780593864.0550675,23.524709000004805,451787,0.052246,0.002441,1.063965,0.435114,3.274809,-1.076336,1.06525,3.474507,8488,14316,5827,8488,0,67.194,1,normal
1780593864.0882814,23.557922799998778,451818,0.054443,-0.037109,1.048828,2.526718,2.816794,-0.396947,1.050896,3.80476,8490,14321,5830,8490,1,67.194,13,normal
1780593864.1169424,23.58658390000346,451849,0.031006,0.008545,1.048584,1.396947,2.725191,-1.114504,1.049077,3.258872,8492,14324,5831,8492,0,67.194,6,normal
1780593864.1485054,23.618147000001045,451880,0.02832,-0.036377,1.05957,1.328244,2.671756,-1.274809,1.060573,3.244634,8493,14326,5832,8493,0,67.194,6,normal
1780593864.1795905,23.649231799994595,451911,0.046387,0.004639,1.063232,2.938931,3.748092,-0.251908,1.064254,4.769588,8496,14330,5833,8496,0,67.194,6,normal
1780593864.21,23.67964149999898,451942,0.049805,-0.017822,1.047852,0.389313,3.236641,-1.29771,1.049186,3.508769,8498,14334,5835,8498,0,103.571,0,normal
1780593864.2422996,23.71194100000139,451973,0.05127,-0.03418,1.044678,2.587786,2.954198,-0.335878,1.046493,3.941667,8500,14339,5838,8500,1,103.571,14,normal
1780593864.2730722,23.74271370000497,452005,0.034668,0.00293,1.049805,1.229008,2.664122,-1.061069,1.050381,3.119916,8505,14346,5840,8505,0,103.571,1,normal
1780593864.304776,23.774417299995548,452036,0.046875,-0.057861,1.059814,1.503817,2.396947,-0.908397,1.062427,2.971869,8506,14348,5841,8506,0,103.571,6,normal
1780593864.3388405,23.808481900006882,452068,0.039307,-0.030029,1.068359,2.526718,3.122137,-0.541985,1.069504,4.052874,8509,14352,5842,8509,0,103.571,7,normal
1780593864.369248,23.838889399994514,452100,0.052002,-0.013916,1.084228,0.854962,3.290076,-1.145038,1.085564,3.587015,8510,14354,5843,8510,0,103.571,6,normal
1780593864.3999448,23.869586300002993,452131,0.058105,-0.077637,1.046387,2.282443,2.816794,-0.381679,1.050871,3.645484,8511,14357,5845,8511,1,103.571,16,normal
1780593864.4302309,23.899872399997548,452162,0.039062,-0.000977,1.036865,0.618321,2.709924,-1.038168,1.037601,2.96712,8516,14364,5847,8516,0,103.571,0,normal
