host_epoch_s,host_elapsed_s,time_ms,ax,ay,az,gx,gy,gz,acc_mag,gyro_mag,pulse_count,edge_count,rise_count,fall_count,state,pulse_rate_hz,last_edge_dt_ms,label
1780600599.7477927,0.011278399993898347,219,0.024902,-0.038086,1.066406,-0.496183,2.328244,-0.465649,1.067377,2.425644,14,22,8,14,0,0.0,4,load
1780600599.778577,0.04206279999925755,250,0.05127,-0.016846,1.036865,3.541985,3.534351,-1.358779,1.038269,5.184937,17,26,9,17,0,68.0,5,load
1780600599.809109,0.07259460000204854,281,0.014648,-0.040039,1.072998,1.229008,3.389313,-0.931298,1.073845,3.723603,18,28,10,18,0,68.0,4,load
1780600599.840806,0.10429160000057891,312,0.017578,-0.012451,1.063721,-0.618321,1.89313,-1.061069,1.063939,2.256574,19,30,11,19,0,68.0,4,load
1780600599.8716702,0.1351559000031557,343,0.052979,-0.037598,1.024658,4.244274,3.862595,-4.664122,1.026715,7.395103,23,36,13,23,0,68.0,5,load
1780600599.901026,0.16451170000073034,374,0.064941,-0.021973,1.065674,5.57252,5.0,0.007634,1.067877,7.486857,24,38,14,24,0,68.0,5,load
1780600599.9334435,0.1969290999986697,404,0.063477,-0.00415,1.065918,1.458015,2.396947,-0.832061,1.067814,2.926344,25,41,16,25,1,68.0,18,load
1780600599.9638505,0.22733619999780785,435,0.05542,-0.06543,1.057617,3.755725,2.877863,-0.267176,1.061087,4.739087,27,44,17,27,0,68.0,5,load
1780600599.9948769,0.2583625999977812,466,0.048584,0.036377,1.052246,0.312977,2.954198,-0.519084,1.053995,3.015741,30,48,18,30,0,68.0,5,load
1780600600.0258744,0.289359999995213,497,0.042969,-0.104492,1.057861,0.458015,2.748092,-0.748092,1.063878,2.884688,32,53,21,32,1,68.0,14,load
1780600600.0580592,0.32154499999887776,528,0.045166,-0.018799,1.061768,3.564885,2.900763,-0.328244,1.062894,4.607665,34,56,22,34,0,61.151,5,load
1780600600.087936,0.35142150000319816,559,0.035889,-0.013428,1.043701,-0.549618,1.755725,-1.351145,1.044404,2.282596,37,60,23,37,0,61.151,5,load
1780600600.1298432,0.3933288999978686,591,0.039551,-0.019287,1.047852,3.167939,3.885496,0.267176,1.048775,5.020388,41,65,24,41,1,61.151,17,load
1780600600.1508393,0.4143249000044307,622,0.031982,-0.017822,1.046875,1.015267,1.954198,-0.366412,1.047515,2.232469,45,70,25,45,0,61.151,5,load
1780600600.183981,0.4474666000023717,653,0.033203,-0.013916,1.051514,-0.152672,2.427481,-1.625954,1.05213,2.925696,46,72,26,46,0,61.151,5,load
1780600600.21304,0.47652569999627303,684,0.030273,-0.059814,1.046143,4.08397,3.801527,-0.320611,1.048288,5.588668,49,76,27,49,0,61.151,5,load
1780600600.244644,0.5081295999989379,716,0.077637,0.037598,1.051758,-0.145038,3.10687,-0.427481,1.055289,3.139494,51,80,29,51,0,61.151,5,load
1780600600.2761812,0.5396668000030331,747,0.035889,-0.07666,1.066162,0.885496,1.770992,-0.519084,1.069517,2.04694,52,85,33,52,1,61.151,18,load
1780600600.306995,0.5704804999986663,778,0.031982,-0.036133,1.058106,3.992366,2.931298,-0.534351,1.059205,4.981669,56,90,34,56,0,88.0,5,load
1780600600.3379488,0.6014345000003232,809,0.049561,-0.006348,1.031494,-0.694656,2.328244,-1.419847,1.032704,2.814114,57,92,35,57,0,88.0,5,load
1780600600.368365,0.6318506999959936,840,0.058838,-0.101074,1.047607,0.870229,3.038168,-0.374046,1.054115,3.182401,58,95,37,58,1,88.0,18,load
1780600600.4000542,0.6635399999941001,871,0.049561,0.002441,1.066406,3.473282,3.198473,0.068702,1.06756,4.722144,61,100,39,61,0,88.0,5,load
1780600600.4298222,0.6933079000009457,901,0.013672,-0.016846,1.034668,-0.80916,2.045802,-1.557252,1.034895,2.695381,64,104,40,64,0,88.0,5,load
1780600600.4610782,0.7245639000029769,932,0.048828,-0.042725,1.031494,0.251908,2.40458,-0.870229,1.033533,2.569584,65,107,42,65,1,88.0,17,load
1780600600.4909885,0.7544742000027327,962,0.069824,-0.014893,1.061523,2.175573,2.923664,0.030534,1.063922,3.644429,67,110,43,67,0,88.0,5,load
1780600600.5231757,0.7866613999940455,993,0.053955,-0.035889,1.05249,0.748092,2.763359,-1.19084,1.054483,3.100628,68,112,44,68,0,88.0,5,load
1780600600.5536058,0.8170913999929326,1025,0.056641,-0.017334,1.048096,3.885496,3.687023,0.015267,1.049768,5.35644,71,116,45,71,0,88.0,5,load
1780600600.5856414,0.8491269999940414,1056,0.044434,-0.042236,1.051514,-0.145038,2.717557,-0.40458,1.053299,2.751334,73,120,47,73,0,61.151,5,load
1780600600.6155796,0.8790652000025148,1087,0.053467,0.00293,1.062012,1.10687,2.679389,0.061069,1.063361,2.899658,74,122,48,74,0,61.151,5,load
1780600600.6482,0.9116858000052162,1118,0.015381,-0.037842,1.04248,2.725191,2.282443,-1.259542,1.04328,3.771294,77,126,49,77,0,61.151,6,load
1780600600.6786835,0.9421691000025021,1150,0.054199,-0.013428,1.053711,1.167939,3.473282,-0.839695,1.055189,3.759369,78,128,50,78,0,61.151,5,load
1780600600.7101157,0.9736012999928789,1181,0.006836,-0.044434,1.04834,1.633588,2.580153,-0.916031,1.049303,3.188246,80,133,53,80,1,61.151,3,load
1780600600.741083,1.004568599993945,1212,-0.007813,-0.033203,1.048828,1.312977,2.083969,-2.519084,1.049383,3.523155,82,136,54,82,0,61.151,6,load
1780600600.7717488,1.0352344999992056,1243,0.038818,-0.008057,1.056641,1.198473,2.664122,-0.389313,1.057384,2.947109,84,140,56,84,0,61.151,1,load
1780600600.8035376,1.067023199997493,1274,0.022217,-0.036621,1.039795,1.221374,3.328244,0.801527,1.040677,3.63475,85,143,58,85,1,61.151,18,load
1780600600.8341033,1.0975889999972424,1305,0.001953,-0.036621,1.050781,2.198473,1.282443,-1.877863,1.051421,3.162959,87,146,59,87,0,61.151,6,load
1780600600.8658817,1.1293673000036506,1336,0.054443,-0.014404,1.038086,1.08397,4.312978,-1.08397,1.039612,4.577308,89,150,61,89,0,57.143,6,load
1780600600.895093,1.1585785999923246,1367,0.03125,-0.020752,1.050293,1.709924,2.503817,-0.89313,1.050963,3.160794,90,152,62,90,0,57.143,6,load
1780600600.926128,1.1896134999988135,1397,0.06665,-0.009033,1.054199,0.725191,3.694656,-0.641221,1.056343,3.819366,92,155,63,92,1,57.143,17,load
1780600600.9570131,1.2204987000004621,1428,0.066406,-0.063965,1.04834,3.145038,2.587786,-0.992366,1.052387,4.19198,94,158,64,94,0,57.143,6,load
1780600600.9874837,1.2509693000029074,1459,0.110107,0.002441,1.07251,1.847328,4.061068,-0.534351,1.07815,4.493376,96,162,66,96,0,57.143,6,load
1780600601.0194771,1.2829628000035882,1490,0.019775,-0.033203,1.055908,2.129771,1.442748,-0.816794,1.056615,2.699,97,164,67,97,0,57.143,4,load
1780600601.051386,1.3148717000003671,1522,0.090088,-0.018555,1.056152,2.366412,3.534351,-0.900763,1.06015,4.347749,101,170,69,101,0,57.143,6,load
1780600601.0820277,1.3455132999952184,1553,0.04541,-0.029785,1.040283,2.587786,3.603053,-1.389313,1.0417,4.648529,104,176,72,104,0,57.143,0,load
1780600601.1133723,1.3768579000025056,1584,0.068115,-0.018311,1.053711,1.641221,2.938931,-1.221374,1.056069,3.580877,105,178,73,105,0,57.143,6,load
1780600601.144741,1.4082267000048887,1615,0.03418,0.020264,1.05957,1.763359,2.473282,-0.450382,1.060315,3.070733,106,180,74,106,0,60.932,6,load
1780600601.1762254,1.439710999999079,1647,0.075928,0.028564,1.063232,0.396947,4.0,0.290076,1.066323,4.0301,107,183,76,107,1,60.932,21,load
1780600601.2077043,1.471189999996568,1678,0.067871,-0.032959,1.059326,1.244275,3.770992,-0.053435,1.06201,3.97133,108,185,77,108,1,60.932,19,load
1780600601.2405536,1.5040391999937128,1709,0.023193,-0.015381,1.04834,2.458015,2.412214,-1.061069,1.048709,3.603676,109,187,78,109,1,60.932,16,load
1780600601.268675,1.532160799994017,1740,0.040527,-0.060547,1.032959,2.40458,3.030534,-0.656489,1.035525,3.923916,110,189,79,110,1,60.932,15,load
1780600601.2996006,1.5630862999969395,1770,0.048828,-0.047607,1.065918,2.564885,2.740458,-1.274809,1.068097,3.964074,111,191,80,111,1,60.932,14,load
1780600601.329915,1.593400700003258,1801,0.072754,0.000244,1.074951,2.442748,3.152672,-0.89313,1.07741,4.087058,112,193,81,112,0,60.932,15,load
1780600601.360853,1.6243385999987368,1832,0.02002,-0.003662,1.057617,0.129771,1.664122,-0.641221,1.057813,1.788102,114,196,82,114,0,60.932,8,load
1780600601.3926575,1.6561432000016794,1863,0.040527,-0.065186,1.04248,3.274809,1.938931,-3.274809,1.045302,5.020777,115,198,83,115,0,60.932,8,load
1780600601.4236205,1.6871060999983456,1895,0.03833,-0.046631,1.039307,1.70229,3.770992,-0.282443,1.041058,4.147041,116,200,84,116,0,35.714,7,load
1780600601.4555757,1.719061399999191,1926,0.093018,0.02417,1.062012,1.854962,4.137404,-1.175572,1.066351,4.684119,117,202,85,117,0,35.714,7,load
1780600601.4849195,1.7484050999919418,1957,0.035645,0.003906,1.041748,2.007634,3.160305,-1.748092,1.042365,4.132064,118,204,86,118,0,35.714,8,load
1780600601.5170686,1.7805544000002556,1988,0.005615,-0.036133,1.070068,1.610687,2.580153,-1.312977,1.070693,3.312916,119,206,87,119,0,35.714,7,load
1780600601.5476978,1.811183500001789,2019,0.023926,-0.039551,1.076904,1.725191,3.290076,-0.900763,1.077896,3.822599,120,208,88,120,0,35.714,8,load
1780600601.5801456,1.843631199997617,2050,0.028564,-0.063232,1.05542,1.48855,3.541985,-1.068702,1.057698,3.987927,121,210,89,121,0,35.714,8,load
1780600601.610439,1.8739247000048636,2081,0.071289,0.006348,1.049805,1.793893,3.847328,-0.80916,1.052242,4.321427,122,212,90,122,0,35.714,8,load
1780600601.641118,1.9046036999934586,2112,0.071533,-0.074707,1.063232,2.175573,3.160305,-1.656489,1.068252,4.179066,123,214,91,123,0,35.714,8,load
1780600601.672525,1.9360105999949155,2143,-0.010742,0.01123,1.048584,2.175573,1.641221,-4.137404,1.048699,4.954275,124,216,92,124,0,35.714,8,load
1780600601.7126935,1.9761791000055382,2174,0.020996,-0.094727,1.047119,1.40458,2.977099,-1.48855,1.051605,3.61272,125,218,93,125,0,32.258,8,load
1780600601.7357242,1.9992097999929683,2206,0.057373,-0.017822,1.068604,1.274809,3.10687,0.862595,1.070291,3.467254,125,219,94,125,1,32.258,25,load
1780600601.7664444,2.029930200005765,2237,0.064697,0.057617,1.066406,1.282443,3.961832,-0.687023,1.06992,4.220518,126,221,95,126,1,32.258,16,load
1780600601.7991948,2.062680499991984,2268,0.080566,0.05249,1.050293,2.450382,3.145038,-0.625954,1.054686,4.035772,127,223,96,127,1,32.258,20,load
1780600601.829211,2.092696599996998,2299,0.045654,-0.067627,1.04248,1.839695,3.717557,-0.40458,1.045669,4.16754,130,226,96,130,0,32.258,0,load
1780600601.8592324,2.122718200000236,2330,-0.007813,-0.084717,1.047119,0.938931,3.015267,0.908397,1.05057,3.286124,131,228,97,131,0,32.258,1,load
1780600601.8910851,2.1545709000056377,2361,0.093262,0.061279,1.064941,0.755725,5.450382,-0.862595,1.070772,5.569726,132,230,98,132,0,32.258,5,load
1780600601.9225519,2.18603759999678,2393,0.14502,-0.075928,1.053467,2.580153,5.045802,0.221374,1.066109,5.671535,133,232,99,133,0,32.258,9,load
1780600601.9536526,2.217138399995747,2424,-0.010986,0.052734,1.04541,2.045802,1.725191,-2.687023,1.046797,3.792318,134,234,100,134,0,36.0,9,load
1780600601.9840388,2.2475243999942904,2455,0.0271,-0.133301,1.05127,0.946565,3.709924,-0.877863,1.060034,3.928124,135,236,101,135,0,36.0,9,load
1780600602.0147855,2.2782711000036215,2486,0.058105,-0.0354,1.040039,2.526718,3.610687,-0.816794,1.042262,4.482022,135,237,102,135,1,36.0,27,load
1780600602.0470088,2.310494399993331,2517,0.04126,-0.099365,1.060303,0.419847,2.290076,-0.48855,1.065748,2.37895,136,239,103,136,1,36.0,19,load
1780600602.0782056,2.3416911999956938,2549,0.033447,-0.005127,1.096436,1.274809,1.961832,-1.51145,1.096958,2.785392,137,241,104,137,1,36.0,22,load
1780600602.1084936,2.3719792000047164,2580,-0.057861,-0.123047,1.032715,1.435114,2.145038,-0.152672,1.041628,2.585353,138,242,104,138,0,36.0,9,load
1780600602.139838,2.4033236999966903,2611,0.127441,-0.070068,1.066894,0.152672,5.27481,0.244275,1.076761,5.282669,139,244,105,139,0,36.0,4,load
1780600602.1708238,2.434309599993867,2642,0.124023,-0.095947,1.066162,2.206107,3.671756,0.656489,1.077631,4.333552,140,246,106,140,0,36.0,9,load
1780600602.2021732,2.465658999994048,2673,0.046387,-0.01001,1.038086,1.648855,3.083969,-0.816794,1.03917,3.591204,141,248,107,141,0,36.0,9,load
1780600602.232325,2.4958107999991626,2703,0.079102,0.000244,1.076172,0.885496,2.450382,-1.274809,1.079075,2.900623,141,249,108,141,0,25.09,28,load
1780600602.2633736,2.5268593999935547,2734,0.001221,0.129883,1.036377,0.122137,3.916031,0.21374,1.044485,3.923761,142,251,109,142,1,25.09,20,load
1780600602.2947977,2.558283299993491,2765,0.040771,-0.073242,1.080566,1.038168,2.732824,-0.770992,1.083813,3.023334,143,252,109,143,0,25.09,11,load
1780600602.3251538,2.588639499997953,2796,0.041992,-0.165283,1.072998,1.19084,2.480916,0.305344,1.086465,2.768804,144,254,110,144,0,25.09,8,load
1780600602.3552957,2.6187812999996822,2827,0.032471,0.00415,1.057129,5.0229,2.732824,0.061069,1.057636,5.71853,145,256,111,145,0,25.09,10,load
1780600602.3883154,2.6518012000015005,2858,0.024658,0.145508,1.074463,1.274809,2.717557,-0.938931,1.084551,3.145131,145,257,112,145,1,25.09,30,load
1780600602.4186432,2.6821288999926765,2889,0.015137,-0.055908,1.068604,0.839695,1.122137,-1.358779,1.070172,1.952065,146,258,112,146,0,25.09,15,load
1780600602.45022,2.7137056999927154,2920,0.056396,0.076416,1.031738,2.671756,4.51145,0.21374,1.0361,5.247585,147,260,113,147,0,25.09,4,load
1780600602.4795928,2.743078500003321,2951,0.097656,-0.03125,1.083008,0.954198,4.328244,-1.450382,1.087851,4.663454,148,264,116,148,0,25.09,10,load
1780600602.5107942,2.7742798999970546,2981,0.102539,-0.178223,1.053711,0.694656,4.748092,0.427481,1.073585,4.817641,148,265,117,148,1,25.18,29,load
1780600602.5422308,2.805716400005622,3012,0.033203,-0.077881,1.022949,2.312977,3.061069,1.343511,1.026447,4.065099,149,267,118,149,1,25.18,20,load
1780600602.573817,2.8373026000044774,3043,0.076904,-0.093994,1.074219,-0.351145,4.167938,1.114504,1.081062,4.328642,150,268,118,150,0,25.18,11,load
1780600602.6031628,2.8666483999986667,3074,0.058594,-0.151855,1.070068,0.412214,3.335878,-0.328244,1.082377,3.377239,151,270,119,151,0,25.18,8,load
1780600602.6346836,2.8981691999942996,3105,0.030029,-0.154541,1.05127,2.427481,3.145038,-1.664122,1.062992,4.307346,152,272,120,152,0,25.18,11,load
1780600602.6666815,2.930167300000903,3136,0.057129,-0.044189,1.045898,2.48855,2.580153,1.328244,1.048389,3.822866,152,273,121,152,1,25.18,31,load
1780600602.6989214,2.9624070999998366,3168,0.072754,0.036377,1.046387,1.625954,3.396947,1.061069,1.049544,3.912651,153,274,121,153,0,25.18,14,load
1780600602.7298062,2.9932918999984395,3200,0.023438,0.05542,1.067139,2.816794,3.351145,0.396947,1.068834,4.395688,154,276,122,154,0,25.18,7,load
1780600602.7593322,3.0228178999968804,3231,0.009766,0.055664,1.0354,3.183206,3.0,-2.51145,1.036942,5.043826,155,278,123,155,0,28.0,11,load
1780600602.7906082,3.0540939000056824,3261,0.036377,-0.046143,1.074463,1.152672,2.954198,-0.763359,1.076068,3.261696,155,279,124,155,1,28.0,31,load
1780600602.8226526,3.086138300001039,3292,0.036865,-0.057617,1.084961,0.458015,3.419847,0.458015,1.087115,3.480648,156,280,124,156,0,28.0,12,load
1780600602.8530056,3.1164911999949254,3324,0.072021,0.105469,1.078613,1.78626,5.0,-0.694656,1.086148,5.354743,157,284,127,157,0,28.0,10,load
1780600602.8845525,3.1480381000001216,3355,0.046875,-0.164795,1.025635,2.129771,3.725191,0.21374,1.039847,4.296354,158,286,128,158,0,28.0,12,load
1780600602.915673,3.1791587000043364,3386,0.070068,-0.192139,1.037109,1.274809,2.923664,-1.145038,1.057082,3.388814,158,287,129,158,1,28.0,31,load
1780600602.9463732,3.209858999995049,3417,0.064697,0.106934,1.047119,1.312977,4.748092,-0.320611,1.054552,4.936707,159,288,129,159,0,28.0,11,load
1780600602.97757,3.24105569999665,3448,0.033203,-0.130615,1.013916,2.496183,1.458015,-2.793893,1.022834,4.020271,160,290,130,160,0,28.0,12,load
1780600603.0077493,3.2712349999928847,3479,0.067871,-0.095459,1.073975,0.160305,3.129771,0.51145,1.080343,3.175334,160,291,131,160,1,28.0,32,load
1780600603.040052,3.3035375000035856,3510,0.043701,-0.029785,1.040283,1.541985,4.267176,1.091603,1.041627,4.666702,161,292,131,161,0,21.505,15,load
1780600603.0702744,3.3337600999948336,3541,0.049561,0.069824,1.100342,1.48855,3.648855,-1.885496,1.103668,4.36864,162,294,132,162,0,21.505,9,load
1780600603.1015832,3.365068800005247,3572,0.027588,-0.157227,1.054443,2.229008,2.954198,-2.610687,1.066458,4.528957,162,295,133,162,1,21.505,33,load
1780600603.1333144,3.3968000000022585,3603,0.03418,0.04126,1.062988,1.389313,1.801527,-0.206107,1.064338,2.284331,163,296,133,163,0,21.505,20,load
1780600603.1641104,3.4275961999956053,3634,0.068359,-0.164551,1.031006,0.89313,3.717557,-0.618321,1.04629,3.873014,164,298,134,164,0,21.505,4,load
1780600603.193543,3.4570285999943735,3665,0.061279,0.081055,1.048096,2.977099,3.748092,-0.816794,1.05301,4.855766,165,300,135,165,0,21.505,11,load
1780600603.2260003,3.489485900005093,3696,0.027832,-0.095947,1.065918,0.931298,1.816794,-1.687023,1.070589,2.648415,165,301,136,165,1,21.505,34,load
1780600603.256418,3.5199036999983946,3727,0.044922,-0.108154,1.070801,0.549618,2.091603,-1.312977,1.077186,2.529979,166,302,136,166,0,21.505,12,load
1780600603.2873466,3.5508321999950567,3758,0.034424,-0.023926,1.066162,1.167939,1.717557,-1.473282,1.066986,2.546497,167,304,137,167,0,21.505,12,load
1780600603.3191028,3.5825883999932557,3789,0.061523,-0.074463,1.062988,0.221374,2.992366,-1.160305,1.067368,3.217075,167,305,138,167,1,21.505,36,load
1780600603.3509917,3.6144774999993388,3821,0.053955,-0.096436,1.088623,0.320611,3.725191,-1.328244,1.094217,3.96788,168,306,138,168,0,21.505,11,load
1780600603.3820493,3.6455351000040537,3852,0.012939,0.049316,1.081543,1.984733,1.633588,-1.870229,1.082744,3.17892,169,308,139,169,0,21.505,12,load
1780600603.4114313,3.67491699999664,3883,0.09668,0.067871,1.072998,0.885496,4.59542,0.770992,1.07948,4.743038,171,311,140,171,1,21.505,6,load
1780600603.4437158,3.707201500001247,3914,0.063965,0.09082,1.053223,1.816794,4.030534,0.923664,1.059065,4.516536,172,312,140,172,0,21.505,12,load
1780600603.4742343,3.7377200000046287,3945,0.07666,-0.104736,1.042725,1.045802,3.244275,-1.519084,1.050772,3.731841,173,314,141,173,0,21.505,12,load
1780600603.5060515,3.769537300002412,3976,0.030762,-0.114746,1.051758,-0.122137,2.877863,0.099237,1.058446,2.882162,173,314,141,173,0,21.505,12,load
1780600603.5378299,3.801315499993507,4008,0.040771,-0.060547,1.052978,0.694656,3.473282,-1.007634,1.055506,3.682603,174,316,142,174,0,21.505,4,load
1780600603.569373,3.832858599998872,4040,0.030762,0.006592,1.066162,3.496183,2.59542,-2.48855,1.066626,5.015215,175,318,143,175,0,31.873,13,load
1780600603.6002731,3.8637587999983225,4070,0.046143,0.045898,1.04126,1.526718,3.061069,0.717557,1.043292,3.495125,175,318,143,175,0,31.873,13,load
1780600603.6313276,3.894813399994746,4102,0.018555,-0.15625,1.035889,1.21374,3.549618,-1.709924,1.047771,4.122717,176,320,144,176,0,31.873,7,load
1780600603.6625414,3.926027099994826,4133,0.066406,0.016846,1.088379,1.709924,1.839695,-2.068702,1.090533,3.253897,177,323,146,177,1,31.873,7,load
1780600603.694164,3.9576497999951243,4164,0.060059,0.010986,1.070801,1.374046,3.564885,0.198473,1.07254,3.825677,178,324,146,178,0,31.873,19,load
1780600603.7239141,3.987399899997399,4195,0.096924,0.026855,1.038818,2.59542,3.206107,0.496183,1.043676,4.154699,179,326,147,179,0,31.873,10,load
1780600603.755081,4.018566500002635,4226,0.017822,-0.108643,1.03418,2.503817,3.343511,-0.854962,1.040023,4.263698,179,327,148,179,1,31.873,35,load
1780600603.7858994,4.049385099991923,4257,0.031738,-0.08667,1.03125,1.351145,2.381679,-1.076336,1.035372,2.942191,180,328,148,180,0,31.873,17,load
1780600603.8175437,4.081029399996623,4288,0.080566,-0.056885,1.074951,0.572519,3.503817,-0.877863,1.079466,3.657206,181,330,149,181,0,31.873,12,load
1780600603.8478458,4.111331499996595,4319,0.079346,0.063232,1.053467,2.381679,3.564885,1.030534,1.058341,4.4094,181,331,150,181,1,21.505,36,load
1780600603.8797507,4.14323630000581,4350,0.053467,-0.114258,1.033447,0.78626,2.992366,-0.480916,1.041118,3.131092,182,332,150,182,0,21.505,14,load
1780600603.9101508,4.173636499996064,4381,0.0354,0.036133,1.037354,2.633588,2.625954,-0.381679,1.038586,3.738596,183,334,151,183,0,21.505,13,load
1780600603.9411926,4.2046782999968855,4412,0.051025,0.030762,1.070557,1.480916,2.793893,-0.496183,1.072213,3.200804,183,334,151,183,0,21.505,13,load
1780600603.974851,4.238336599999457,4444,0.034668,-0.025146,1.01416,1.748092,2.763359,-1.671756,1.015064,3.67243,184,336,152,184,0,21.505,6,load
1780600604.0040817,4.267567499991856,4475,0.033203,0.043701,1.062012,1.80916,1.564886,-1.29771,1.063429,2.721393,184,337,153,184,1,21.505,37,load
1780600604.034572,4.298057599997264,4505,0.102051,0.03418,1.043457,2.664122,1.40458,-0.954198,1.048992,3.159254,185,338,153,185,0,21.505,19,load
1780600604.0662267,4.329712499995367,4536,0.095947,-0.020752,1.048096,1.671756,2.587786,-2.931298,1.052683,4.252518,187,342,155,187,0,21.505,0,load
1780600604.097678,4.36116359999869,4568,0.038574,-0.01709,1.050537,1.557252,3.038168,0.244275,1.051384,3.422743,189,345,156,189,1,21.505,19,load
1780600604.12848,4.391965699993307,4599,0.025146,-0.051025,1.050049,1.076336,2.801527,-0.755725,1.051588,3.094862,193,350,157,193,0,42.857,7,load
1780600604.1601458,4.4236315000016475,4630,0.058594,-0.015625,1.059326,1.442748,3.328244,-0.755725,1.06106,3.705381,197,356,159,197,0,42.857,1,load
1780600604.2021737,4.465659399997094,4661,0.081299,-0.029785,1.043457,1.740458,2.839695,-0.358779,1.047043,3.349893,200,365,165,200,1,42.857,3,load
1780600604.2221036,4.485589200005052,4692,0.025635,-0.023438,1.054199,1.366412,3.175573,-0.274809,1.054771,3.467977,205,372,167,205,0,42.857,0,load
1780600604.25362,4.517105499995523,4724,0.029785,-0.025879,1.054932,0.717557,2.687023,-0.21374,1.055669,2.789384,206,374,168,206,0,42.857,6,load
1780600604.2849574,4.548443099993165,4755,0.041992,-0.032471,1.052246,2.221374,2.358779,-0.801527,1.053584,3.337782,207,377,170,207,1,42.857,17,load
1780600604.315086,4.578571499994723,4786,0.026367,-0.010986,1.039551,1.51145,3.648855,-0.549618,1.039943,3.987569,212,384,172,212,0,42.857,1,load
1780600604.346468,4.6099535999965155,4817,0.044678,-0.028076,1.0625,2.183206,2.839695,-0.900763,1.06381,3.693458,214,388,174,214,0,42.857,1,load
1780600604.3768988,4.640384400001494,4848,0.069336,-0.007813,1.053711,2.007634,2.694656,-0.694656,1.056019,3.431372,217,392,175,217,0,42.857,5,load
1780600604.4082582,4.671743800005061,4879,0.042969,-0.032959,1.056641,1.030534,3.183206,-0.541985,1.058027,3.389476,219,396,177,219,0,92.857,0,load
1780600604.4400318,4.703517400004785,4910,0.048096,-0.051514,1.043945,1.961832,2.633588,-0.183206,1.046322,3.289093,220,399,179,220,1,92.857,18,load
1780600604.4705539,4.734039499991923,4941,0.032471,-0.027832,1.057373,2.587786,2.320611,-0.450382,1.058238,3.504956,224,404,180,224,0,92.857,5,load
1780600604.5014846,4.764970300006098,4972,0.023438,-0.024902,1.053467,0.625954,2.755725,-1.21374,1.054022,3.07555,225,406,181,225,0,92.857,5,load
1780600604.5333555,4.796841100003803,5004,0.057373,-0.012695,1.048828,2.519084,2.923664,-0.236641,1.050473,3.86647,227,411,184,227,1,92.857,3,load
1780600604.56371,4.827195599995321,5035,0.073486,-0.013672,1.044434,0.435114,2.427481,-0.969466,1.047105,2.649878,229,414,185,229,0,92.857,5,load
1780600604.5953116,4.858797199995024,5066,-0.08252,-0.004883,1.054199,-2.770992,1.900763,-9.198473,1.057435,9.793018,230,416,186,230,0,92.857,5,load
1780600604.6277251,4.891210799993132,5097,0.239502,-0.013428,1.036377,6.923664,6.78626,2.717557,1.063776,10.068543,233,420,187,233,0,92.857,5,load
1780600604.6592257,4.922711299994262,5130,0.037598,0.000977,1.061279,2.877863,2.320611,0.099237,1.061945,3.698266,236,424,188,236,0,67.729,5,load
1780600604.6902359,4.953721500001848,5161,0.04834,-0.095947,1.055908,1.145038,2.961832,-0.564886,1.06136,3.225315,238,429,191,238,1,67.729,3,load
1780600604.7207708,4.984256600000663,5192,0.046631,-0.027832,1.063232,3.358779,3.053435,0.099237,1.064618,4.540342,241,434,193,241,0,67.729,5,load
1780600604.7525716,5.016057300003013,5223,0.03833,-0.030029,1.039307,-1.015267,1.755725,-1.908397,1.040447,2.784837,243,438,195,243,0,67.729,1,load
1780600604.7837682,5.047253800003091,5254,0.053711,-0.029297,1.052978,3.427481,3.175573,-0.015267,1.054754,4.672486,245,441,196,245,0,67.729,16,load
1780600604.8159223,5.079407900004298,5286,0.01709,-0.037354,1.031494,0.274809,3.045802,0.030534,1.032312,3.058326,247,444,197,247,0,67.729,5,load
1780600604.846786,5.110271800003829,5317,0.0271,-0.013184,1.053955,0.916031,2.541985,-0.770992,1.054386,2.809845,249,448,199,249,0,67.729,0,load
1780600604.876942,5.140427599995746,5348,0.031982,-0.049805,1.052002,4.114504,3.129771,-0.328244,1.053666,5.179996,253,454,201,253,0,67.729,5,load
1780600604.908076,5.171561800001655,5379,0.05249,0.028809,1.04834,-0.274809,3.274809,-0.648855,1.050048,3.349762,254,456,202,254,0,67.729,5,load
1780600604.9399748,5.2034604999935254,5410,0.041016,-0.108643,1.060791,0.51145,1.793893,-0.251908,1.067128,1.88231,255,459,204,255,1,67.857,18,load
1780600604.9708526,5.234338199996273,5442,0.059326,-0.007568,1.06665,3.061069,2.450382,0.282443,1.068326,3.931194,258,464,206,258,0,67.857,0,load
1780600605.000602,5.264087599993218,5472,0.053223,-0.028076,1.053223,-0.70229,2.274809,-2.0,1.05494,3.109336,259,466,207,259,0,67.857,5,load
1780600605.032013,5.295498499996029,5502,0.044678,-0.041748,1.04248,2.931298,3.351145,0.40458,1.044272,4.470611,262,471,209,262,1,67.857,3,load
1780600605.0684938,5.331979499998852,5534,0.056396,-0.009521,1.039307,1.267176,1.954198,-0.251908,1.040879,2.342666,265,476,211,265,0,67.857,5,load
1780600605.1004276,5.363913299996057,5570,0.050293,-0.021729,1.049072,3.114504,3.343511,0.366412,1.050502,4.584044,268,481,213,268,1,67.857,14,load
1780600605.1308582,5.394343799998751,5602,0.017334,-0.008789,1.031494,0.305344,2.374046,0.099237,1.031677,2.395658,270,484,214,270,0,67.857,5,load
1780600605.1619537,5.425439400001778,5633,0.033203,-0.009277,1.058838,0.412214,2.305344,-1.328244,1.059399,2.692352,272,488,216,272,0,67.857,0,load
1780600605.1930442,5.456529799994314,5664,0.046631,-0.054199,1.052734,4.305344,3.633588,-0.603053,1.05516,5.665918,275,492,217,275,0,78.74,5,load
1780600605.2238948,5.487380399994436,5695,0.039551,0.036865,1.035156,-0.206107,2.80916,-0.267176,1.036567,2.829354,277,496,219,277,0,78.74,5,load
1780600605.2558022,5.519287899995106,5726,0.036865,-0.097656,1.062256,0.572519,1.740458,-0.015267,1.067372,1.832268,278,499,221,278,1,78.74,18,load
1780600605.2872016,5.550687199996901,5758,0.039795,0.012451,1.065918,2.732824,3.175573,0.183206,1.066733,4.193585,282,504,222,282,0,78.74,5,load
1780600605.317664,5.581149599995115,5789,0.021973,-0.015381,1.034668,-0.900763,2.29771,-1.687023,1.035016,2.989463,283,506,223,283,0,78.74,5,load
1780600605.34901,5.612495699999272,5819,0.050293,-0.017334,1.053711,3.549618,3.183206,0.061069,1.055053,4.768262,285,509,224,285,1,78.74,17,load
1780600605.3784633,5.6419488999963505,5850,0.047363,-0.006348,1.047119,1.839695,2.076336,0.549618,1.048209,2.828025,288,514,226,288,0,78.74,5,load
1780600605.4098544,5.673340199995437,5881,0.017578,-0.009766,1.053955,-0.038168,2.320611,-1.954198,1.054147,3.03407,291,518,227,291,0,78.74,5,load
1780600605.4413333,5.704819000005955,5912,0.047363,-0.056641,1.05249,3.916031,3.824427,0.061069,1.055077,5.474054,294,522,228,294,0,78.74,5,load
1780600605.4716332,5.735118900003727,5943,0.031006,0.034912,1.029053,0.129771,2.40458,-0.70229,1.030112,2.508397,295,524,229,295,0,71.685,5,load
1780600605.5036461,5.7671317999920575,5974,0.036621,-0.04126,1.064941,0.435114,2.358779,-0.641221,1.066369,2.482806,297,529,232,297,1,71.685,13,load
1780600605.5349422,5.798427799993078,6005,0.045654,-0.024902,1.074219,3.816794,2.870229,-0.358779,1.075477,4.789034,299,532,233,299,0,71.685,5,load
1780600605.5645723,5.8280578999983845,6036,0.041016,0.01416,1.042725,-0.51145,2.40458,-1.580153,1.043627,2.922408,301,536,235,301,0,71.685,5,load
1780600605.5958827,5.859368299992639,6066,0.02417,-0.108643,1.051514,1.045802,2.351145,-0.503817,1.057388,2.622101,302,541,239,302,1,71.685,18,load
1780600605.6264095,5.889895100001013,6098,0.032227,-0.003174,1.050537,2.458015,2.48855,0.099237,1.051036,3.499224,306,546,240,306,0,71.685,5,load
1780600605.659099,5.922584700005245,6129,0.069092,-0.034424,1.063232,-0.656489,2.282443,-2.198473,1.066031,3.236326,307,548,241,307,0,71.685,5,load
1780600605.689343,5.9528286999993725,6160,0.066895,-0.041016,1.045654,4.450382,3.351145,-0.29771,1.048594,5.578952,310,552,242,310,0,71.685,5,load
1780600605.7208872,5.9843727999978,6191,0.054443,-0.0271,1.031006,-0.167939,3.0,-0.351145,1.032798,3.025146,312,556,244,312,0,71.685,5,load
1780600605.7516465,6.015132200001972,6222,0.052246,-0.032227,1.063477,1.038168,2.435115,-0.770992,1.065247,2.757173,314,560,246,314,0,68.1,5,load
1780600605.7832453,6.046730899994145,6253,0.023193,-0.043457,1.042236,3.80916,3.007634,-0.274809,1.0434,4.861181,317,564,247,317,0,68.1,5,load
1780600605.8136525,6.077138099994045,6284,0.068604,0.023926,1.040283,-0.351145,3.557252,-0.862595,1.042817,3.677148,318,566,248,318,0,68.1,5,load
1780600605.8435295,6.107015200002934,6315,0.03833,-0.103271,1.058594,1.0,2.259542,-0.740458,1.06431,2.579498,320,571,251,320,1,68.1,14,load
1780600605.8746626,6.138148300000466,6345,0.030273,-0.032715,1.055176,3.244275,2.900763,-0.076336,1.056117,4.352651,322,574,252,322,0,68.1,5,load
1780600605.9052434,6.168729099998018,6376,0.029297,-0.006104,1.040772,-0.465649,1.847328,-1.687023,1.041202,2.5447,324,578,254,324,0,68.1,5,load
1780600605.9367192,6.200204799999483,6407,0.067383,-0.055908,1.04834,3.435115,2.89313,-0.061069,1.05199,4.491541,325,583,258,325,1,68.1,18,load
1780600605.9659786,6.2294643000059295,6438,0.047852,0.011475,1.054443,1.290076,2.351145,0.0,1.055591,2.681824,329,588,259,329,0,68.1,5,load
1780600605.9972436,6.260729300003732,6468,0.017578,-0.020508,1.042969,-0.923664,2.526718,-1.862595,1.043318,3.272112,330,590,260,330,0,68.1,5,load
1780600606.029157,6.292642700005672,6499,0.067139,-0.024658,1.046143,4.42748,3.320611,0.076336,1.048585,5.534878,332,593,261,332,1,64.982,16,load
1780600606.0586078,6.322093599999789,6530,0.058594,-0.02832,1.043213,-0.007634,2.977099,-0.282443,1.045241,2.990477,336,598,262,336,0,64.982,5,load
1780600606.090211,6.353696599995601,6561,0.056641,-0.018311,1.055664,0.870229,2.778626,-1.221374,1.057341,3.157502,338,602,264,338,0,64.982,4,load
1780600606.1216521,6.385137699995539,6592,0.047607,-0.040039,1.051025,4.053436,3.526718,-0.328244,1.052865,5.38292,341,606,265,341,0,64.982,5,load
1780600606.152324,6.415809700003592,6623,0.063232,0.036865,1.046143,-0.045802,2.885496,-0.534351,1.0487,2.934913,342,608,266,342,0,64.982,5,load
1780600606.18286,6.446345599993947,6653,0.052734,-0.044189,1.067627,1.007634,2.335878,-0.267176,1.069842,2.557936,344,613,269,344,1,64.982,14,load
1780600606.2134418,6.476927399999113,6684,0.035156,-0.034424,1.062012,3.526718,3.282443,-0.038168,1.063151,4.818052,346,616,270,346,0,64.982,5,load
1780600606.2439525,6.507438300002832,6715,0.049805,0.003906,1.055176,-0.732824,2.564885,-1.419847,1.056358,3.02186,348,620,272,348,0,64.982,5,load
1780600606.2752979,6.538783500000136,6746,0.081299,-0.098633,1.050049,1.557252,2.763359,-0.221374,1.0578,3.179653,349,625,276,349,1,64.982,17,load
1780600606.3069465,6.570432299995446,6777,0.042725,-0.001221,1.059326,1.992366,2.641221,0.21374,1.060188,3.315307,353,630,277,353,0,75.54,5,load
1780600606.3372831,6.60076869999466,6808,0.039795,-0.029785,1.054688,-0.854962,2.435115,-1.931298,1.055858,3.223454,354,632,278,354,0,75.54,4,load
1780600606.3677132,6.631198999995831,6839,0.050293,-0.029785,1.048096,4.473282,3.40458,-0.48855,1.049724,5.642704,358,638,280,358,0,75.54,5,load
1780600606.398854,6.662339799993788,6870,0.012451,-0.013916,1.033447,0.19084,2.717557,-0.526718,1.033616,2.774702,359,640,281,359,0,75.54,5,load
1780600606.430047,6.693532699995558,6901,0.035889,-0.024414,1.061523,1.412214,2.557252,-0.335878,1.06241,2.940527,360,644,284,360,0,75.54,4,load
1780600606.4613633,6.724849000005634,6932,0.050049,-0.045654,1.05249,3.954198,3.687023,-0.381679,1.054668,5.419917,363,648,285,363,0,75.54,5,load
1780600606.4924154,6.755901099997573,6963,0.04248,0.024658,1.049316,-0.282443,3.0,-0.923664,1.050465,3.151655,364,650,286,364,0,75.54,5,load
1780600606.5229619,6.786447599995881,6994,0.008301,-0.095459,1.056885,1.389313,2.664122,-0.244275,1.061219,3.014532,365,653,288,365,1,75.54,18,load
1780600606.553404,6.816889800000354,7025,0.005859,-0.020264,1.05542,2.671756,3.10687,0.152672,1.055631,4.100516,367,656,289,367,0,75.54,5,load
1780600606.5848687,6.848354300003848,7056,0.023682,-0.02417,1.042969,-0.519084,2.076336,-1.412214,1.043518,2.56417,369,660,291,369,0,57.348,5,load
1780600606.6161597,6.8796452999959,7087,0.026123,-0.003418,1.05249,4.045802,3.328244,0.068702,1.05282,5.239317,372,665,293,372,1,57.348,17,load
1780600606.6462898,6.909775399995851,7118,0.041016,0.003174,1.044434,1.022901,2.221374,-0.007634,1.045243,2.445585,376,670,294,376,0,57.348,5,load
1780600606.6772003,6.940685900000972,7148,0.023438,-0.024902,1.054199,-0.381679,2.328244,-1.442748,1.054754,2.765488,377,672,295,377,0,57.348,5,load
1780600606.7083094,6.971795000004931,7179,0.049072,-0.033936,1.039062,4.503816,3.526718,-0.221374,1.040774,5.724606,381,678,297,381,0,57.348,5,load
1780600606.7391207,7.002606499998365,7210,0.014893,-0.014648,1.030029,-0.167939,2.290076,-0.832061,1.030241,2.442331,382,680,298,382,0,57.348,5,load
1780600606.7709312,7.034417000002577,7241,0.027832,-0.022949,1.054443,1.450382,2.526718,-0.312977,1.05506,2.930164,383,684,301,383,0,57.348,4,load
1780600606.801808,7.065293899999233,7273,0.006836,-0.02124,1.053467,2.854962,3.053435,0.022901,1.053703,4.180287,386,688,302,386,0,57.348,5,load
1780600606.8336816,7.097167300002184,7304,0.048096,0.012695,1.050781,-0.274809,2.198473,-1.770992,1.051958,2.836409,387,690,303,387,0,57.348,5,load
1780600606.8662999,7.129785600001924,7336,0.050049,-0.038086,1.044678,3.709924,2.977099,0.076336,1.046569,4.75736,388,693,305,388,1,67.857,17,load
1780600606.896947,7.160432499993476,7368,0.018311,-0.011475,1.034424,-0.007634,2.366412,-0.541985,1.03465,2.427697,390,696,306,390,0,67.857,5,load
1780600606.9454038,7.208889400004409,7399,0.027832,-0.02832,1.057617,1.038168,2.603053,-0.862595,1.058362,2.932192,394,702,308,394,0,67.857,0,load
1780600606.959824,7.223309699998936,7430,0.067871,-0.045166,1.052978,3.748092,3.236641,-0.206107,1.05613,4.956462,397,706,309,397,0,67.857,5,load
1780600606.991214,7.254699700002675,7462,0.026855,0.039795,1.040039,-0.21374,3.465649,-0.977099,1.041146,3.607094,400,710,310,400,0,67.857,5,load
1780600607.0220647,7.285550400003558,7493,0.01123,-0.09082,1.051758,1.564886,2.717557,-0.122137,1.055732,3.138296,401,713,312,401,1,67.857,18,load
1780600607.0543919,7.317877499997849,7524,0.050781,-0.014893,1.068115,2.427481,2.854962,0.389313,1.069425,3.76763,405,718,313,405,0,67.857,5,load
1780600607.0840914,7.347577199994703,7555,0.009033,-0.022705,1.035889,-0.534351,2.51145,-1.534351,1.036177,2.991178,408,722,314,408,0,67.857,5,load
1780600607.1163442,7.379829900004552,7586,0.043701,-0.016602,1.04541,4.053436,3.244275,-0.137405,1.046455,5.193702,411,727,316,411,1,92.0,18,load
1780600607.1473653,7.410850899992511,7617,0.049316,-0.020264,1.031006,0.870229,1.763359,-0.534351,1.032383,2.03771,413,730,317,413,0,92.0,4,load
1780600607.1771586,7.4406442000035895,7648,0.044678,-0.027344,1.066406,0.946565,2.763359,-1.0,1.067692,3.087416,414,732,318,414,0,92.0,5,load
1780600607.208369,7.471854799994617,7679,0.0625,-0.037598,1.054199,3.793893,3.427481,-0.022901,1.056719,5.112902,418,738,320,418,0,92.0,5,load
1780600607.2380633,7.501549099994008,7709,0.013672,-0.009521,1.038086,-0.122137,2.374046,-0.854962,1.03822,2.526256,419,740,321,419,0,92.0,5,load
1780600607.2690856,7.532571300005657,7739,0.018799,-0.02002,1.07251,1.687023,2.633588,-0.992366,1.072861,3.281253,422,746,324,422,0,92.0,1,load
1780600607.300613,7.564098599992576,7771,0.044189,-0.015625,1.047607,3.137405,3.465649,-0.396947,1.048655,4.691652,425,750,325,425,0,92.0,5,load
1780600607.3299286,7.593414300004952,7802,0.049805,0.0354,1.044434,0.0,3.221374,-0.961832,1.04622,3.3619,428,754,326,428,0,92.0,5,load
1780600607.361483,7.6249687999952585,7832,0.007324,-0.086182,1.055908,1.396947,2.21374,0.183206,1.059445,2.624056,429,757,328,429,1,92.0,17,load
1780600607.3924887,7.655974399996921,7863,0.004639,-0.015869,1.048828,2.610687,3.083969,-0.175573,1.048958,4.044426,431,760,329,431,0,72.202,5,load
1780600607.4239688,7.6874545000027865,7894,0.028809,0.016846,1.037109,-0.274809,3.351145,-1.412214,1.037646,3.646922,433,764,331,433,0,72.202,5,load
1780600607.4548993,7.718385000000126,7925,0.04834,-0.025635,1.048096,3.290076,2.816794,0.290076,1.049523,4.340861,434,769,335,434,1,72.202,18,load
1780600607.4862392,7.749724799999967,7956,0.043701,0.018799,1.050537,1.633588,3.015267,-0.053435,1.051614,3.429767,436,772,336,436,0,72.202,5,load
1780600607.5164096,7.779895400002715,7987,0.02124,-0.060059,1.061523,-0.10687,2.351145,-1.51145,1.063433,2.797103,437,774,337,437,0,72.202,5,load
1780600607.5476425,7.811128100001952,8018,0.02417,-0.016602,1.05127,3.992366,3.045802,-0.19084,1.051678,5.025168,440,779,339,440,0,72.202,14,load
1780600607.5782285,7.841714199996204,8049,0.015137,-0.012207,1.044678,-0.251908,2.351145,-0.916031,1.044859,2.535834,442,782,340,442,0,72.202,4,load
1780600607.6084037,7.871889400004875,8080,0.041016,-0.023682,1.05957,1.648855,2.610687,-0.656489,1.060628,3.1568,444,788,344,444,0,72.202,0,load
1780600607.6403658,7.903851600000053,8111,0.06543,-0.034912,1.05249,3.534351,3.465649,-0.175573,1.0551,4.953099,447,792,345,447,0,72.202,5,load
1780600607.6714218,7.934907499991823,8142,0.055176,0.044434,1.043213,-0.229008,2.709924,-1.152672,1.045616,2.953774,450,796,346,450,0,68.1,5,load
1780600607.703287,7.966772600004333,8174,0.045166,-0.082031,1.054443,1.877863,3.221374,0.076336,1.058593,3.729537,451,799,348,451,1,68.1,18,load
1780600607.7328503,7.996335899995756,8205,0.03125,0.006836,1.060303,2.221374,1.961832,0.061069,1.060785,2.96429,453,802,349,453,0,68.1,5,load
1780600607.7648506,8.028336300005321,8235,0.041748,-0.022949,1.047363,0.030534,2.053435,-1.419847,1.048446,2.496697,455,806,351,455,0,68.1,5,load
1780600607.794903,8.058388599994942,8266,0.041016,-0.001953,1.051514,3.740458,2.80916,-0.030534,1.052315,4.677963,458,811,353,458,1,68.1,17,load
1780600607.8264034,8.089889099996071,8297,0.054932,0.001221,1.042969,0.885496,2.633588,-0.305344,1.044415,2.795196,462,816,354,462,0,68.1,5,load
1780600607.8566396,8.120125400004326,8328,0.067871,-0.05127,1.0625,0.51145,2.267176,-1.412214,1.065899,2.719562,463,818,355,463,0,68.1,5,load
1780600607.8889148,8.152400599996326,8359,0.047852,-0.033691,1.046631,3.541985,3.748092,-0.725191,1.048266,5.207662,467,824,357,467,0,68.1,5,load
1780600607.9203496,8.18383530000574,8391,0.032227,0.012695,1.034424,-0.091603,2.717557,-1.007634,1.035004,2.899799,468,826,358,468,0,68.1,5,load
1780600607.9515486,8.215034199994989,8422,0.020752,-0.098145,1.051514,1.656489,2.40458,0.10687,1.056288,2.92188,469,831,362,469,1,67.857,17,load
1780600607.9912515,8.254737099996419,8453,0.016846,-0.012451,1.057617,2.305344,2.396947,-0.145038,1.057825,3.328813,471,834,363,471,0,67.857,5,load
1780600608.0146694,8.278155099993455,8485,0.048584,-0.033936,1.054199,-0.152672,2.435115,-1.381679,1.055864,2.803949,472,836,364,472,0,67.857,5,load
1780600608.0455968,8.309082399995532,8516,0.037598,-0.00293,1.05249,4.053436,3.114504,-0.473282,1.053166,5.13366,476,841,365,476,1,67.857,14,load
1780600608.0778937,8.341379499994218,8547,0.060303,-0.014648,1.043457,0.465649,2.091603,-0.480916,1.045301,2.196113,478,844,366,478,0,67.857,5,load
1780600608.1085541,8.372039900001255,8578,0.061768,-0.049561,1.081787,1.091603,2.587786,-0.923664,1.084682,2.956584,482,850,368,482,0,67.857,0,load
1780600608.138571,8.402056699997047,8609,0.050049,-0.036377,1.053223,3.557252,3.557252,-0.236641,1.055038,5.036277,485,854,369,485,0,67.857,5,load
1780600608.1709769,8.434462599994731,8641,0.034668,0.018799,1.038818,0.129771,2.885496,-1.167939,1.039567,3.115608,488,858,370,488,0,67.857,4,load
1780600608.201973,8.465458699996816,8672,0.026123,-0.087158,1.058838,1.91603,2.610687,-0.007634,1.06274,3.238351,489,861,372,489,1,80.0,18,load
1780600608.2332544,8.496740000002319,8703,0.013428,-0.012695,1.059326,2.022901,3.236641,-0.282443,1.059487,3.827238,491,864,373,491,0,80.0,5,load
1780600608.263841,8.52732670000114,8734,0.043945,-0.043945,1.048096,-0.083969,2.343511,-1.045802,1.049937,2.567644,493,868,375,493,0,80.0,5,load
1780600608.2951357,8.558621300006052,8765,0.065918,-0.013184,1.048584,3.59542,3.610687,-0.206107,1.050737,5.099665,496,873,377,496,1,80.0,18,load
1780600608.322991,8.586476600001333,8795,0.022461,-0.00415,1.047363,2.0,2.618321,0.267176,1.047612,3.305599,498,876,378,498,0,80.0,5,load
1780600608.355623,8.619108600003528,8825,0.053955,-0.020264,1.050293,-0.114504,2.435115,-1.175572,1.051873,2.706449,499,878,379,499,0,80.0,5,load
1780600608.3867917,8.65027729999565,8856,0.043945,0.000244,1.04834,3.770992,3.687023,0.038168,1.04926,5.274086,501,883,382,501,1,80.0,14,load
1780600608.4178758,8.681361499999184,8887,0.045654,0.003662,1.040283,0.381679,2.183206,-0.725191,1.041291,2.331946,503,886,383,503,0,80.0,5,load
1780600608.4474406,8.71092630000203,8918,0.057373,-0.056396,1.075928,0.549618,2.564885,-1.236641,1.078931,2.9,508,892,384,508,0,80.0,0,load
1780600608.4801621,8.743647800001781,8949,0.049561,-0.023926,1.051514,3.78626,3.320611,-0.374046,1.052953,5.049963,511,896,385,511,0,79.422,5,load
1780600608.5113943,8.77487999999721,8981,0.068115,0.036133,1.038818,-0.038168,2.954198,-1.137405,1.041676,3.165823,514,900,386,514,0,79.422,5,load
1780600608.542932,8.806417700005113,9012,0.022461,-0.090332,1.052734,1.687023,2.328244,-0.076336,1.056842,2.876212,515,903,388,515,1,79.422,18,load
1780600608.5726538,8.836139399994863,9043,0.017822,-0.009033,1.060303,2.152672,2.114504,-0.290076,1.060491,3.03138,517,906,389,517,0,79.422,5,load
1780600608.6040382,8.86752400000114,9074,0.041504,0.01123,1.051514,-0.366412,3.022901,-1.381679,1.052392,3.343834,519,910,391,519,0,79.422,6,load
1780600608.634855,8.898340600004303,9105,0.068359,-0.035156,1.052246,3.572519,2.396947,0.10687,1.05505,4.303448,520,915,395,520,1,79.422,18,load
1780600608.6657476,8.929233300004853,9136,0.050537,0.023193,1.055908,1.267176,2.366412,-0.427481,1.057371,2.718158,522,918,396,522,0,79.422,5,load
1780600608.69713,8.960615699994378,9167,0.058105,-0.050293,1.068604,0.725191,2.534351,-1.076336,1.071363,2.847338,523,920,397,523,0,79.422,5,load
1780600608.7289433,8.992429000005359,9199,0.046631,-0.026123,1.054932,3.320611,3.206107,-0.412214,1.056285,4.634166,527,926,399,527,0,64.0,5,load
1780600608.759045,9.022530599992024,9230,0.0354,0.019775,1.034424,-0.335878,2.923664,-0.923664,1.035218,3.084442,528,928,400,528,0,64.0,5,load
1780600608.790544,9.054029799997807,9261,0.025391,-0.044434,1.061768,1.839695,2.854962,-0.167939,1.063,3.400513,529,933,404,529,1,64.0,18,load
1780600608.821054,9.084539699993911,9292,0.024902,-0.024414,1.049316,2.40458,2.931298,-0.435114,1.049896,3.816259,531,936,405,531,0,64.0,5,load
1780600608.8523452,9.115830800001277,9322,0.042725,0.015625,1.042725,0.083969,2.908397,-1.267176,1.043716,3.173572,532,938,406,532,0,64.0,5,load
1780600608.884677,9.148162600002252,9354,0.051758,-0.079346,1.039795,2.419847,2.961832,-0.114504,1.044102,3.826385,534,943,409,534,1,64.0,15,load
1780600608.9140646,9.177550299995346,9385,0.026611,-0.010254,1.055908,1.732824,2.664122,0.061069,1.056293,3.178672,536,946,410,536,0,64.0,5,load
1780600608.9463475,9.20983310000156,9416,0.040039,-0.061768,1.06665,0.503817,2.465649,-1.442748,1.069187,2.900824,539,951,412,539,1,64.0,14,load
1780600608.9778516,9.24133730000176,9448,0.040283,-0.029297,1.049561,3.564885,3.725191,-0.694656,1.050742,5.202692,543,956,413,543,0,64.0,6,load
1780600609.0100453,9.27353089999815,9479,0.044678,-0.0271,1.030762,-0.618321,2.580153,-0.961832,1.032085,2.822168,546,960,414,546,0,67.857,5,load
1780600609.040454,9.30393959999492,9510,0.056641,-0.032959,1.053955,2.091603,3.015267,0.923664,1.05599,3.78415,547,962,415,547,0,67.857,4,load
1780600609.0715663,9.335051899994141,9542,0.042969,-0.001465,1.031982,1.977099,3.78626,-0.29771,1.032878,4.281742,550,966,416,550,0,67.857,4,load
1780600609.1028447,9.366330399992876,9573,0.020508,0.010986,1.051514,1.343511,2.251908,-2.007634,1.051771,3.30253,552,970,418,552,0,67.857,5,load
1780600609.1344066,9.397892199995113,9604,0.018799,-0.082031,1.052246,1.572519,2.458015,0.29771,1.055606,2.933136,553,975,422,553,1,67.857,18,load
1780600609.1653028,9.42878849999397,9635,0.012695,-0.006104,1.071045,2.328244,3.236641,-0.748092,1.071138,4.056626,557,980,423,557,0,67.857,5,load
1780600609.1965191,9.460004799999297,9666,0.024902,-0.051025,1.020508,0.083969,3.832061,0.114504,1.022086,3.834691,558,982,424,558,0,67.857,5,load
1780600609.2266858,9.49017140000069,9697,0.04541,-0.000977,1.054932,4.763358,0.992366,-1.656489,1.055909,5.139876,559,985,426,559,1,67.857,18,load
1780600609.2573915,9.520877200004179,9728,0.08374,-0.033447,1.046631,1.167939,3.694656,0.557252,1.050508,3.914728,562,990,428,562,0,67.857,5,load
1780600609.2877402,9.551225799994427,9759,0.005859,0.000244,1.020752,-1.183206,2.900763,-2.618321,1.020769,4.082892,565,994,429,565,0,67.857,5,load
1780600609.3177814,9.581267200002912,9789,-0.000488,0.009766,1.036621,3.664122,2.564885,-1.007634,1.036667,4.58473,567,999,432,567,1,67.857,15,load
1780600609.3491268,9.61261260000174,9819,0.022705,-0.028809,1.043945,0.961832,1.51145,-0.549618,1.04459,1.873949,569,1002,433,569,0,67.857,5,load
1780600609.3801122,9.643597899994347,9850,0.027832,-0.023193,1.080078,1.076336,3.770992,-0.908397,1.080686,4.025428,570,1004,434,570,0,67.857,5,load
1780600609.4122767,9.675762500002747,9882,0.024414,-0.046631,1.031494,0.801527,2.396947,-0.89313,1.032836,2.680574,571,1009,438,571,1,67.857,18,load
1780600609.4447293,9.70821490000526,9914,0.073975,-0.025391,1.056396,0.450382,3.496183,0.274809,1.059288,3.535769,573,1012,439,573,0,67.857,6,load
1780600609.475188,9.738673600004404,9945,0.041016,0.000244,1.075684,2.519084,3.580153,-2.641221,1.076465,5.112663,574,1014,440,574,0,67.857,5,load
1780600609.507555,9.771040599996923,9976,0.035889,-0.058105,1.04541,1.687023,2.847328,1.290076,1.047638,3.552129,577,1018,441,577,0,67.857,1,load
1780600609.5379872,9.801472999999532,10008,0.093018,-0.018555,1.060791,1.412214,4.480916,-0.679389,1.065023,4.747054,579,1021,442,579,1,67.857,18,load
1780600609.5697658,9.833251499992912,10039,-0.032227,-0.023926,1.068115,3.007634,0.10687,-2.839695,1.068869,4.13777,581,1024,443,581,0,57.143,6,load
1780600609.5997167,9.863202399996226,10070,0.049805,-0.008545,1.054199,2.519084,2.900763,-1.221374,1.05541,4.031372,583,1028,445,583,0,57.143,6,load
1780600609.629664,9.893149499999708,10100,0.063232,-0.061279,1.013428,1.984733,3.763359,-0.854962,1.017246,4.3397,584,1030,446,584,0,57.143,6,load
1780600609.66186,9.925345700001344,10131,0.068848,-0.042969,1.070801,1.572519,4.129771,0.664122,1.073872,4.468656,585,1032,447,585,0,57.143,6,load
1780600609.6926208,9.956106500001624,10162,0.071777,-0.046143,1.065674,1.412214,1.312977,0.564886,1.069084,2.009316,586,1036,450,586,0,57.143,4,load
1780600609.7240503,9.987536000000546,10194,0.004395,-0.014893,1.058838,0.061069,2.29771,0.274809,1.058952,2.314891,587,1038,451,587,0,57.143,2,load
1780600609.754057,10.017542600005982,10224,-0.025635,0.018555,1.058594,0.793893,0.709924,-0.282443,1.059067,1.101831,588,1040,452,588,0,57.143,1,load
1780600609.7857525,10.04923809999309,10255,0.017578,-0.054199,1.038086,0.938931,3.358779,0.29771,1.039648,3.500231,590,1044,454,590,0,57.143,1,load
1780600609.8173096,10.080795400004718,10287,0.041992,-0.067383,1.054932,1.801527,3.198473,-0.022901,1.057915,3.671002,591,1046,455,591,0,57.143,1,load
1780600609.8495502,10.11303589999443,10319,0.02417,0.070801,1.034912,2.419847,2.755725,-0.633588,1.037613,3.721709,592,1048,456,592,0,39.286,3,load
1780600609.8794322,10.142917799996212,10350,0.019043,-0.127686,1.068604,2.137405,0.89313,-1.70229,1.076373,2.874712,593,1050,457,593,0,39.286,5,load
1780600609.9134681,10.176953699992737,10381,0.049072,0.04541,1.045654,1.152672,2.908397,0.236641,1.04779,3.137423,594,1052,458,594,0,39.286,9,load
1780600609.9426498,10.206135600004927,10412,0.023438,-0.128418,1.049316,1.694656,2.465649,-1.129771,1.057405,3.198072,595,1054,459,595,0,39.286,8,load
1780600609.9737604,10.237246100004995,10444,0.038086,-0.150635,1.059326,1.412214,2.091603,-0.870229,1.07066,2.669541,596,1056,460,596,0,39.286,8,load
1780600610.005311,10.268796599993948,10475,0.031006,-0.11377,1.058106,1.442748,3.137405,0.80916,1.064656,3.546769,597,1058,461,597,0,39.286,8,load
1780600610.0360048,10.299490399993374,10506,0.037842,-0.049316,1.046143,1.137405,4.061068,1.274809,1.047988,4.405804,598,1061,463,598,1,39.286,5,load
1780600610.0660257,10.329511300005834,10537,0.024414,-0.130127,1.044922,1.442748,1.732824,-1.076336,1.053276,2.49854,599,1063,464,599,1,39.286,18,load
1780600610.0995977,10.363083299991558,10568,0.01001,-0.081543,1.08374,0.526718,2.465649,-1.618321,1.08685,2.995967,600,1065,465,600,1,39.286,22,load
1780600610.1307814,10.394267099996796,10600,0.128662,-0.090088,1.05127,0.038168,5.19084,1.603053,1.062938,5.432868,601,1066,465,601,0,32.028,10,load
1780600610.1628697,10.426355300005525,10631,0.053467,0.115479,1.051025,3.427481,1.610687,-2.305344,1.058701,4.43357,602,1068,466,602,0,32.028,2,load
1780600610.1931274,10.456613000002108,10663,0.015869,-0.148926,1.064941,3.778626,1.091603,-3.839695,1.075421,5.496624,603,1074,471,603,0,32.028,5,load
1780600610.223864,10.487349699993501,10694,-0.005615,0.067139,1.04248,3.564885,2.312977,-2.778626,1.044655,5.077306,604,1076,472,604,0,32.028,9,load
1780600610.2554095,10.51889520000259,10725,-0.03833,-0.076416,1.013184,2.045802,5.67939,-6.969466,1.016784,9.220316,605,1078,473,605,0,32.028,9,load
1780600610.286308,10.549793800004409,10756,0.060791,-0.098389,1.051758,3.618321,3.137405,-3.152672,1.058098,5.733663,606,1080,474,606,0,32.028,9,load
1780600610.3166368,10.580122500003199,10787,0.009033,-0.006104,1.026367,0.343511,3.877863,-1.007634,1.026425,4.021336,607,1082,475,607,0,32.028,8,load
1780600610.3469746,10.610460299998522,10817,-0.037598,-0.003418,1.090332,1.206107,1.129771,-1.419847,1.090985,2.178771,610,1086,476,610,0,32.028,8,load
1780600610.3869755,10.650461299999733,10848,0.040527,-0.015869,1.057617,0.969466,3.70229,-0.183206,1.058512,3.831499,611,1088,477,611,0,32.028,7,load
1780600610.4088445,10.672330100002,10879,0.043213,-0.054932,1.041504,0.977099,4.122138,0.366412,1.043846,4.252176,612,1090,478,612,0,39.427,6,load
1780600610.4403124,10.70379800000228,10910,0.069092,0.030762,1.03418,-0.984733,3.916031,0.381679,1.036941,4.055943,613,1092,479,613,0,39.427,3,load
1780600610.4711344,10.734620200004429,10942,0.032471,-0.018311,1.042969,2.0,3.801527,-0.412214,1.043635,4.315266,614,1094,480,614,0,39.427,4,load
1780600610.5029688,10.76645439999993,10973,0.04541,0.04126,1.038818,2.10687,3.389313,-1.007634,1.040629,4.116026,615,1096,481,615,0,39.427,8,load
1780600610.5345418,10.79802760000166,11004,0.052002,0.10083,1.067871,3.587786,3.229008,-1.328244,1.073881,5.00629,616,1098,482,616,0,39.427,11,load
1780600610.5654774,10.828962999992655,11035,0.040039,-0.157959,1.058594,1.145038,3.557252,-0.48855,1.071062,3.768797,616,1099,483,616,1,39.427,32,load
1780600610.5971205,10.86060620000353,11066,0.054443,0.07251,1.048828,2.312977,3.557252,-0.824427,1.05274,4.322451,617,1100,483,617,0,39.427,13,load
1780600610.6275895,10.891075199993793,11097,0.044922,0.067871,1.033936,3.366412,2.717557,-0.954198,1.037134,4.430388,618,1102,484,618,0,39.427,12,load
1780600610.6582816,10.921767299994826,11128,0.092285,-0.020508,1.037354,1.587786,3.793893,-0.541985,1.041652,4.148306,618,1103,485,618,1,39.427,32,load
1780600610.6898005,10.953286200005095,11159,0.067383,-0.046387,1.04834,1.08397,2.648855,-0.358779,1.051527,2.884466,619,1104,485,619,0,25.0,16,load
1780600610.7262065,10.989692200004356,11190,0.066895,0.087158,1.084961,1.274809,3.78626,-0.59542,1.09051,4.039236,620,1106,486,620,0,25.0,2,load
1780600610.7562954,11.01978109999618,11227,0.060547,-0.165527,1.077393,1.572519,3.083969,0.48855,1.091714,3.49605,621,1110,489,621,0,25.0,1,load
1780600610.7881064,11.051592200004961,11258,0.03833,-0.147461,1.044189,2.816794,3.473282,-1.21374,1.055247,4.633701,622,1112,490,622,0,25.0,6,load
1780600610.8191333,11.082618999993429,11289,0.024902,-0.167236,1.042969,-1.015267,3.167939,-1.21374,1.056585,3.541154,623,1114,491,623,0,25.0,11,load
1780600610.8506413,11.11412699999346,11320,0.047607,0.078857,1.04541,3.648855,2.198473,-1.778626,1.04946,4.616377,624,1116,492,624,0,25.0,11,load
1780600610.8808804,11.14436599999317,11351,0.043945,-0.076416,1.071777,0.877863,1.763359,-2.526718,1.075396,3.203807,624,1117,493,624,1,25.0,28,load
1780600610.9118521,11.175337699998636,11382,0.041992,0.095947,1.060547,0.641221,2.21374,-1.572519,1.065706,2.790094,625,1118,493,625,0,25.0,13,load
1780600610.9432447,11.20673039999383,11413,0.115479,-0.174805,1.056641,0.755725,3.442748,-1.328244,1.07721,3.766678,626,1120,494,626,0,27.559,4,load
1780600610.978224,11.241709800000535,11443,0.138672,-0.181885,1.056396,1.374046,4.503816,0.931298,1.080872,4.799967,627,1122,495,627,0,27.559,10,load
1780600611.0034325,11.266918299996178,11474,-0.045898,0.126465,1.05835,1.832061,-0.465649,-4.57252,1.066866,4.947849,630,1126,496,630,0,27.559,11,load
1780600611.0350263,11.298512099994696,11505,-0.002686,0.093262,1.040527,2.137405,0.412214,-4.442748,1.044702,4.947366,631,1128,497,631,0,27.559,10,load
1780600611.0661628,11.329648600003566,11536,0.048828,-0.137207,1.048584,1.412214,3.458015,-0.954198,1.058649,3.855219,632,1130,498,632,0,27.559,10,load
1780600611.0966234,11.360109000001103,11567,-0.019531,-0.029053,1.028809,3.038168,2.725191,-1.992366,1.029404,4.541658,632,1131,499,632,1,27.559,26,load
1780600611.1283789,11.391864599994733,11598,0.043457,0.04248,1.057129,2.236641,3.648855,1.015267,1.058874,4.398576,633,1132,499,633,0,27.559,15,load
1780600611.1600814,11.423567000005278,11630,0.032227,-0.172363,1.065186,1.656489,1.709924,-3.053435,1.079522,3.871855,634,1134,500,634,0,27.559,2,load
1780600611.1914313,11.454916999995476,11661,-0.003174,-0.185059,1.037354,2.160305,3.167939,-2.717557,1.053736,4.699774,635,1136,501,635,0,27.559,11,load
1780600611.221937,11.485422600002494,11692,0.090332,-0.058838,1.043457,2.496183,4.007634,1.519084,1.049011,4.959806,636,1138,502,636,0,35.842,11,load
1780600611.2542307,11.517716400005156,11723,0.033203,0.015137,1.040283,3.709924,1.51145,-1.603053,1.040923,4.314834,637,1141,504,637,1,35.842,4,load
1780600611.2839513,11.54743690000032,11754,0.165771,-0.081787,1.030273,2.358779,3.48855,-0.091603,1.046725,4.21215,638,1143,505,638,1,35.842,19,load
1780600611.3164554,11.579941100004362,11786,0.081055,0.030029,1.082275,0.0,4.030534,2.526718,1.085722,4.757048,640,1153,513,640,1,35.842,0,load
1780600611.3475318,11.611017400005949,11818,-0.075684,-0.008057,1.07373,4.458016,-1.641221,-5.465648,1.076425,7.241604,642,1161,519,642,1,35.842,0,load
1780600611.3810594,11.644545000002836,11850,0.055908,0.042725,1.071289,0.78626,2.465649,-0.70229,1.073597,2.681574,643,1170,527,643,1,35.842,1,load
1780600611.4118943,11.675379899999825,11881,0.116943,-0.07373,1.067383,0.236641,5.633588,3.412214,1.076298,6.590638,644,1172,528,644,1,35.842,19,load
1780600611.4424076,11.705893299993477,11912,0.097656,-0.08667,1.037598,-0.022901,6.435114,2.21374,1.045781,6.805282,645,1174,529,645,1,35.842,20,load
1780600611.474971,11.738456799997948,11944,0.035156,0.049561,1.059082,0.923664,2.755725,-0.412214,1.060824,2.935489,646,1184,538,646,1,39.683,0,load
1780600611.505333,11.768818600001396,11976,0.068848,-0.001465,1.05835,-0.282443,3.816794,1.183206,1.060588,4.005954,649,1187,538,649,0,39.683,0,load
1780600611.5387032,11.80218889999378,12007,0.034912,-0.058105,1.037109,3.656489,2.801527,-0.70229,1.039322,4.659579,650,1189,539,650,0,39.683,5,load
1780600611.5684745,11.831960299998173,12039,0.039795,-0.089355,1.051514,0.740458,3.396947,-1.648855,1.056054,3.847889,651,1191,540,651,0,39.683,13,load
1780600611.5995014,11.862987100001192,12070,0.046143,-0.072266,1.073486,0.625954,4.0,-0.80916,1.076905,4.128748,651,1192,541,651,1,39.683,33,load
1780600611.629407,11.892892599993502,12100,0.030029,0.035645,1.077637,2.824427,1.740458,-2.847328,1.078644,4.37194,652,1193,541,652,0,39.683,12,load
1780600611.6608863,11.924371999994037,12130,0.043213,-0.111816,1.067627,0.358779,4.091603,-0.832061,1.074336,4.190736,653,1195,542,653,0,39.683,13,load
1780600611.691911,11.955396599994856,12161,0.052246,0.073486,1.043945,3.984733,1.847328,-2.816794,1.047832,5.217762,653,1196,543,653,1,39.683,28,load
1780600611.723256,11.98674179999216,12193,-0.008545,0.082764,1.050293,2.687023,0.083969,-3.496183,1.053584,4.410266,654,1198,544,654,1,39.683,19,load
1780600611.7547112,12.018196899996838,12224,0.097656,-0.101562,1.064209,1.114504,3.625954,-1.030534,1.073495,3.93086,655,1199,544,655,0,32.143,12,load
1780600611.7876394,12.051125099998899,12256,-0.023682,-0.030029,1.07666,0.244275,2.038168,-1.801527,1.077339,2.731171,656,1201,545,656,0,32.143,2,load
1780600611.8177605,12.081246100002318,12288,0.003662,0.008057,1.082275,0.778626,3.022901,-2.244275,1.082312,3.844601,657,1203,546,657,0,32.143,5,load
1780600611.8501754,12.113660999995773,12319,0.077148,0.082275,1.044434,1.381679,4.480916,0.51145,1.050506,4.716908,658,1207,549,658,0,32.143,9,load
1780600611.8803792,12.14386480000394,12351,0.056885,0.106689,1.05835,-1.48855,5.664122,1.015267,1.065234,5.943805,659,1209,550,659,0,32.143,12,load
1780600611.9123776,12.175863299999037,12382,0.037598,0.075439,1.048584,1.78626,3.381679,-0.534351,1.051966,3.861607,660,1211,551,660,0,32.143,11,load
1780600611.954247,12.217732699995395,12414,0.014404,0.098633,1.054932,2.267176,2.694656,-0.725191,1.05963,3.595436,660,1212,552,660,1,32.143,30,load
1780600611.9745197,12.238005299994256,12445,-0.054932,-0.134521,1.02002,4.08397,1.267176,-2.076336,1.030317,4.753495,661,1213,552,661,0,32.143,12,load
1780600612.0049393,12.268424900001264,12476,0.024658,-0.142578,1.048096,-2.183206,3.29771,-0.977099,1.058036,4.073819,662,1215,553,662,0,27.778,12,load
1780600612.0361347,12.29962049999449,12506,0.031494,0.056152,1.04541,3.374046,2.709924,-1.603053,1.047391,4.614938,663,1218,555,663,1,27.778,5,load
1780600612.067571,12.33105660000001,12537,0.041504,-0.131104,1.049561,-1.78626,4.351145,3.068702,1.058531,5.61606,664,1219,555,664,0,27.778,18,load
1780600612.0978568,12.361342399992282,12568,0.054688,-0.071045,1.077148,0.954198,3.534351,-0.59542,1.080873,3.708997,665,1221,556,665,0,27.778,6,load
1780600612.1285834,12.39206899999408,12599,0.001709,-0.125,1.046143,1.419847,2.961832,-2.114504,1.053585,3.906346,666,1223,557,666,0,27.778,13,load
1780600612.1601377,12.423623299997416,12629,0.037354,-0.093262,1.069824,1.137405,1.70229,-2.618321,1.074531,3.323716,666,1224,558,666,1,27.778,33,load
1780600612.191386,12.454871599999024,12660,0.0271,-0.106689,1.041992,2.931298,2.122137,-1.938931,1.04779,4.105536,667,1225,558,667,0,27.778,13,load
1780600612.221919,12.485404699997162,12692,0.004883,0.052734,1.06665,3.381679,3.206107,-0.954198,1.067964,4.756613,668,1227,559,668,0,27.778,13,load
1780600612.2533824,12.516868199993041,12723,0.018066,-0.098633,1.104492,2.519084,2.664122,-2.259542,1.109035,4.306839,668,1228,560,668,1,27.778,31,load
1780600612.2846274,12.548113199998625,12754,0.081787,0.049805,1.086182,1.183206,2.664122,-0.900763,1.090394,3.051049,669,1229,560,669,0,25.18,13,load
1780600612.3162646,12.579750399992918,12786,0.109375,0.031738,1.085693,0.763359,5.29771,-0.145038,1.09165,5.354389,670,1231,561,670,0,25.18,10,load
1780600612.348322,12.611807499997667,12817,0.035889,-0.06958,1.083496,1.954198,1.656489,-4.580152,1.086321,5.247918,671,1233,562,671,0,25.18,12,load
1780600612.3787076,12.642193299994688,12848,0.047607,-0.08374,1.018311,0.381679,3.984733,0.816794,1.022856,4.085453,671,1234,563,671,1,25.18,28,load
1780600612.409092,12.6725776999956,12879,0.108643,-0.098633,1.015137,-0.923664,4.91603,2.992366,1.025687,5.828788,672,1235,563,672,0,25.18,14,load
1780600612.440991,12.704476500002784,12910,0.012207,0.140137,1.056396,0.465649,3.21374,1.740458,1.065721,3.684311,673,1237,564,673,0,25.18,2,load
1780600612.4717834,12.73526899999706,12941,0.106201,-0.095703,1.086426,1.519084,5.038168,-0.80916,1.095791,5.324049,674,1241,567,674,0,25.18,6,load
1780600612.5021687,12.765654300004826,12972,0.031738,0.009521,1.023438,2.793893,3.51145,-0.427481,1.023974,4.507644,675,1243,568,675,0,25.18,10,load
1780600612.5330467,12.796532299995306,13003,0.070312,-0.158691,1.046631,2.847328,3.21374,-0.59542,1.060926,4.334736,676,1245,569,676,0,25.18,11,load
1780600612.5643582,12.827843799997936,13034,0.011475,0.087891,1.072022,0.862595,3.633588,-0.648855,1.07568,3.79052,676,1246,570,676,1,25.0,28,load
1780600612.5951967,12.858682299993234,13065,0.101318,-0.106201,1.078857,0.977099,4.244274,0.732824,1.088796,4.416517,677,1247,570,677,0,25.0,15,load
1780600612.626804,12.890289699993446,13096,0.005859,-0.101562,1.038086,3.961832,1.099237,-1.91603,1.043059,4.536034,678,1249,571,678,0,25.0,5,load
1780600612.6562471,12.91973280000093,13127,0.085205,0.061768,1.054443,2.282443,3.40458,-0.160305,1.059682,4.102,679,1251,572,679,0,25.0,12,load
1780600612.6877565,12.951242199997068,13157,0.008057,0.086426,1.051025,2.221374,0.862595,-4.32061,1.054603,4.934192,679,1252,573,679,1,25.0,28,load
1780600612.7183516,12.981837200000882,13188,-0.009521,0.066895,1.04834,0.969466,2.160305,-1.938931,1.050515,3.060431,680,1254,574,680,1,25.0,19,load
1780600612.7503185,13.013804300004267,13220,-0.003418,-0.087402,1.064697,2.435115,1.969466,-1.503817,1.068284,3.474197,683,1265,582,683,1,25.0,0,load
1780600612.7817006,13.04518640000606,13251,0.021484,-0.048584,1.072266,2.641221,0.045802,-4.847328,1.073581,5.520393,686,1269,583,686,1,25.0,16,load
1780600612.8129523,13.07643800000369,13282,0.057129,-0.037354,1.047119,1.587786,2.694656,-0.625954,1.049341,3.18968,692,1278,586,692,0,25.0,1,load
1780600612.8436985,13.107184099993901,13313,0.065918,-0.030029,1.077637,1.854962,3.244275,-0.282443,1.080068,3.747796,695,1284,589,695,0,68.1,1,load
1780600612.8740501,13.137535799993202,13344,0.050781,-0.015625,1.063721,1.48855,3.320611,-0.061069,1.065047,3.639501,697,1289,592,697,1,68.1,14,load
1780600612.9044812,13.167966900000465,13375,0.050049,-0.00415,1.048828,0.587786,2.351145,-0.259542,1.05003,2.437363,702,1296,594,702,0,68.1,1,load
1780600612.935741,13.199226600001566,13406,0.065186,-0.032715,1.062256,1.267176,3.099237,-0.435114,1.064757,3.376437,704,1300,596,704,0,68.1,1,load
1780600612.9673653,13.230851000000257,13437,0.041992,-0.01416,1.049316,1.442748,3.114504,-0.740458,1.050252,3.511401,706,1305,599,706,1,68.1,14,load
1780600612.9987824,13.26226809999207,13468,0.049805,-0.015869,1.054443,0.320611,3.389313,-0.259542,1.055738,3.414322,712,1314,602,712,0,68.1,0,load
1780600613.0301375,13.29362329999276,13499,0.047852,-0.025146,1.055664,1.274809,2.755725,-0.954198,1.057047,3.182712,714,1318,604,714,0,68.1,0,load
1780600613.07194,13.335425600002054,13530,0.04834,-0.025635,1.049316,1.625954,2.870229,-0.015267,1.050742,3.298814,718,1324,606,718,0,68.1,5,load
1780600613.0909538,13.354439499991713,13561,0.041504,-0.000244,1.053467,1.198473,3.312977,-0.587786,1.054284,3.571785,720,1328,608,720,0,68.1,1,load
1780600613.123612,13.387097600003472,13592,0.056152,-0.053223,1.043945,1.053435,2.832061,0.045802,1.046808,3.021985,721,1331,610,721,1,93.19,18,load
1780600613.1549761,13.418461799999932,13624,0.045654,-0.021973,1.049561,1.648855,3.267176,-0.587786,1.050783,3.706569,723,1334,611,723,0,93.19,5,load
1780600613.1864898,13.44997560000047,13656,0.044922,-0.049072,1.052002,1.641221,3.091603,-1.10687,1.054104,3.671073,726,1338,612,726,0,93.19,5,load
1780600613.2174673,13.480953000005684,13687,0.033691,-0.042725,1.047852,2.770992,2.954198,-0.51145,1.049263,4.082556,729,1342,613,729,0,93.19,5,load
1780600613.2485006,13.51198629999999,13719,0.046875,-0.011719,1.056152,0.435114,2.549618,-0.778626,1.057257,2.701136,730,1344,614,730,0,93.19,5,load
1780600613.280402,13.543887599997106,13750,0.049072,-0.021973,1.062744,1.435114,2.503817,0.320611,1.064103,2.903695,732,1349,617,732,1,93.19,14,load
1780600613.3112082,13.5746938999946,13781,0.016846,-0.028076,1.047363,2.328244,2.793893,-0.206107,1.047875,3.64267,734,1352,618,734,0,93.19,5,load
1780600613.3430061,13.606491900005494,13812,0.053955,0.011475,1.052002,2.175573,3.465649,0.412214,1.053447,4.112634,736,1356,620,736,0,93.19,4,load
1780600613.3735702,13.637055800005328,13843,0.05957,-0.015869,1.066894,3.267176,3.862595,-0.320611,1.068674,5.069208,737,1361,624,737,1,63.745,18,load
1780600613.4053345,13.668820099992445,13874,0.082275,-0.011963,1.053955,1.587786,3.061069,0.10687,1.057229,3.450019,741,1366,625,741,0,63.745,5,load
1780600613.4363496,13.699835199993686,13906,0.033203,-0.002686,1.062012,0.183206,2.625954,-1.374046,1.062534,2.969377,742,1368,626,742,0,63.745,5,load
1780600613.4664805,13.729966099999729,13937,0.051025,-0.056152,1.056396,4.183206,3.59542,-0.091603,1.059118,5.51676,746,1374,628,746,0,63.745,5,load
1780600613.4971716,13.76065739999467,13967,0.049805,0.023193,1.033447,0.412214,2.931298,-0.396947,1.034906,2.986636,747,1376,629,747,0,63.745,5,load
1780600613.5285084,13.79199399999925,13998,0.042969,-0.04834,1.064941,0.442748,2.290076,-0.625954,1.066904,2.415014,749,1383,634,749,1,63.745,4,load
1780600613.560881,13.824366500004544,14030,0.062012,-0.027832,1.061279,3.885496,2.877863,0.038168,1.063454,4.835352,753,1388,635,753,0,63.745,0,load
1780600613.5930996,13.856585200002883,14062,0.041016,-0.031494,1.042236,-1.068702,2.175573,-2.145038,1.043518,3.236731,754,1390,636,754,0,63.745,5,load
1780600613.6233935,13.886879099998623,14093,0.037598,-0.031006,1.050537,4.305344,3.778626,-0.030534,1.051667,5.728432,757,1394,637,757,0,80.0,5,load
1780600613.6541817,13.917667500005336,14125,0.049316,-0.005615,1.03125,0.10687,2.740458,-0.160305,1.032444,2.747222,758,1396,638,758,0,80.0,5,load
1780600613.6850998,13.948585499994806,14155,0.036865,-0.029297,1.060547,0.885496,2.015267,-0.450382,1.061592,2.246831,761,1402,641,761,0,80.0,0,load
1780600613.717174,13.980659699998796,14187,0.04126,-0.025146,1.065674,3.839695,3.236641,-0.282443,1.066769,5.029798,764,1406,642,764,0,80.0,5,load
1780600613.7482042,14.01168979999784,14218,0.058105,0.015625,1.042236,-0.610687,2.229008,-1.832061,1.043972,2.949214,765,1408,643,765,0,80.0,5,load
1780600613.77921,14.042695800002548,14249,0.061279,-0.099609,1.063965,1.732824,2.641221,-0.259542,1.070373,3.169557,766,1411,645,766,1,80.0,18,load
1780600613.8106668,14.074152500004857,14280,0.046875,0.011719,1.050781,2.587786,3.19084,0.251908,1.051892,4.116012,768,1414,646,768,0,80.0,5,load
1780600613.8426232,14.106109000000288,14311,0.02832,-0.040771,1.043945,-1.045802,2.320611,-2.061069,1.045125,3.275201,770,1418,648,770,0,80.0,0,load
1780600613.8727946,14.136280399994575,14342,0.040039,-0.0271,1.045654,4.358778,3.656489,-0.145038,1.046771,5.691212,774,1424,650,774,0,80.0,5,load
1780600613.9037132,14.167198900002404,14373,0.031738,-0.013672,1.037109,0.358779,2.320611,-0.572519,1.037685,2.416968,776,1428,652,776,0,67.857,1,load
1780600613.935109,14.19859460000589,14404,0.026367,-0.023193,1.068604,0.717557,2.343511,-0.954198,1.06918,2.6301,777,1430,653,777,0,67.857,5,load
1780600613.9648821,14.228367899995646,14435,0.031494,-0.031982,1.05542,4.351145,3.198473,-0.549618,1.056374,5.428147,780,1434,654,780,0,67.857,5,load
1780600613.9963973,14.259882900005323,14466,0.042236,0.044922,1.046387,-0.053435,2.778626,-0.465649,1.048202,2.81788,783,1438,655,783,0,67.857,5,load
1780600614.0273132,14.290798899994115,14497,0.018555,-0.090088,1.057861,0.129771,2.335878,-0.51145,1.061852,2.394733,785,1443,658,785,1,67.857,3,load
1780600614.0588064,14.322292099997867,14528,0.047852,-0.032227,1.069336,3.885496,3.129771,-0.137405,1.070891,4.991135,787,1446,659,787,0,67.857,5,load
1780600614.0885625,14.352048200002173,14559,0.027832,-0.01709,1.030762,-0.671756,2.480916,-1.343511,1.031279,2.900211,789,1450,661,789,0,67.857,0,load
1780600614.1207776,14.384263300002203,14590,0.049316,-0.030518,1.057373,2.541985,2.557252,-0.748092,1.058962,3.682508,791,1453,662,791,1,67.857,17,load
1780600614.1508567,14.414342300005956,14621,0.02832,-0.007813,1.062256,2.740458,2.389313,0.007634,1.062662,3.635792,793,1456,663,793,0,67.857,5,load
1780600614.1824236,14.445909300004132,14651,0.055176,-0.015869,1.039307,-0.145038,2.473282,-1.732824,1.040891,3.023383,796,1460,664,796,0,71.942,1,load
1780600614.2123377,14.47582350000448,14683,0.054932,-0.01123,1.042969,2.259542,3.0,-0.671756,1.044475,3.815336,800,1466,666,800,0,71.942,5,load
1780600614.2423365,14.505822199993418,14713,0.040527,-0.063232,1.060791,2.030534,3.137405,-0.007634,1.063446,3.73717,801,1468,667,801,0,71.942,5,load
1780600614.2751844,14.538670099995215,14744,0.061035,0.011963,1.040772,0.045802,1.564886,-0.374046,1.042628,1.609619,802,1470,668,802,0,71.942,5,load
1780600614.305177,14.56866259999515,14775,0.062012,-0.068604,1.046143,2.152672,3.290076,-1.114504,1.050222,4.086652,805,1474,669,805,1,71.942,5,load
1780600614.3370166,14.600502200002666,14807,0.044189,-0.000488,1.066162,1.259542,2.725191,-0.473282,1.067078,3.039261,808,1478,670,808,0,71.942,4,load
1780600614.3694701,14.632955699999002,14838,0.052246,-0.036621,1.051514,0.221374,2.519084,-0.816794,1.053448,2.657432,809,1481,672,809,1,71.942,18,load
1780600614.3998706,14.663356200006092,14869,0.031494,-0.016357,1.060547,3.89313,3.725191,-1.053435,1.061141,5.490286,811,1484,673,811,0,71.942,4,load
1780600614.430151,14.693636700001662,14900,0.020996,-0.052246,1.05542,-0.251908,2.366412,-0.473282,1.056921,2.426388,813,1488,675,813,0,71.942,1,load
1780600614.4620311,14.725516899998183,14931,0.027832,-0.011963,1.04541,2.541985,3.748092,-0.679389,1.045849,4.57946,816,1492,676,816,0,71.429,4,load
1780600614.4929562,14.756441799996537,14963,0.05957,-0.004395,1.074951,1.938931,3.717557,-0.229008,1.07661,4.199063,819,1496,677,819,0,71.429,5,load
1780600614.5243723,14.78785799999605,14994,0.062256,-0.016846,1.051514,-0.099237,1.633588,-0.641221,1.05349,1.757732,820,1499,679,820,1,71.429,18,load
1780600614.5552042,14.818689799998538,15025,0.063232,-0.062988,1.030518,3.687023,3.358779,-0.519084,1.034375,5.014477,822,1502,680,822,0,71.429,5,load
1780600614.586478,14.84996360000514,15056,0.071533,0.026123,1.079102,1.282443,2.931298,-0.664122,1.081785,3.267755,824,1506,682,824,0,71.429,1,load
1780600614.6171699,14.880655600005412,15087,0.048096,-0.053467,1.041504,-0.419847,2.496183,-0.839695,1.043984,2.666888,825,1509,684,825,1,71.429,18,load
1780600614.6489532,14.912438800005475,15118,0.043701,-0.030518,1.059814,4.305344,3.381679,-1.381679,1.061154,5.646306,827,1512,685,827,0,71.429,5,load
1780600614.6788616,14.942347300006077,15149,0.043213,-0.022217,1.061523,-0.648855,1.748092,-0.916031,1.062635,2.077486,828,1514,686,828,0,71.429,5,load
1780600614.7095263,14.973011900001438,15180,0.041016,-0.036621,1.04248,2.450382,2.59542,-1.740458,1.04393,3.971117,831,1518,687,831,0,71.429,5,load
1780600614.741592,15.005077599998913,15211,0.017822,-0.029785,1.055908,1.572519,3.847328,-3.770992,1.056478,5.612052,832,1520,688,832,0,57.143,4,load
1780600614.7725348,15.036020400002599,15242,0.029541,-0.026367,1.048828,-0.381679,1.80916,-4.534352,1.049575,4.896844,833,1522,689,833,0,57.143,4,load
1780600614.805088,15.068573800002923,15274,0.045654,-0.038086,1.023926,2.824427,3.870229,-2.816794,1.02565,5.557912,836,1526,690,836,0,57.143,5,load
1780600614.8347905,15.098276200005785,15305,0.053711,0.025635,1.073486,1.679389,2.633588,-1.0,1.075135,3.279654,839,1530,691,839,0,57.143,4,load
1780600614.8672907,15.13077639999392,15336,0.036621,-0.023682,1.043701,1.053435,1.221374,-0.419847,1.044612,1.666659,840,1533,693,840,1,57.143,19,load
1780600614.897536,15.161021799998707,15367,0.03833,-0.066895,1.021484,2.442748,3.251908,-1.656489,1.02439,4.391569,842,1536,694,842,0,57.143,4,load
1780600614.9287882,15.192273799999384,15398,0.05835,-0.004883,1.038086,1.671756,4.343512,1.419847,1.039736,4.865884,844,1540,696,844,0,57.143,0,load
1780600614.9596236,15.223109300000942,15429,0.060059,-0.051025,1.070068,1.29771,1.076336,1.076336,1.072966,2.000262,846,1543,697,846,1,57.143,18,load
1780600614.9910405,15.254526200005785,15460,0.026367,-0.029541,1.040039,2.045802,2.129771,-2.984733,1.040793,4.198792,848,1546,698,848,0,57.143,4,load
1780600615.0209727,15.284458399997675,15492,0.043701,0.009521,1.054932,0.480916,2.70229,0.625954,1.055879,2.815221,849,1548,699,849,0,60.498,4,load
1780600615.0519514,15.315437099998235,15522,0.031982,-0.050537,1.05249,2.022901,0.755725,-0.290076,1.054188,2.178851,852,1552,700,852,0,60.498,5,load
1780600615.0829122,15.346397799992701,15553,0.075195,-0.040039,1.051758,1.603053,3.229008,-1.694656,1.055202,3.983482,854,1556,702,854,0,60.498,0,load
1780600615.1131122,15.37659800000256,15584,0.07373,-0.011475,1.055908,1.0,2.80916,1.671756,1.058541,3.418501,855,1558,703,855,0,60.498,4,load
1780600615.1456215,15.409107200001017,15615,0.046631,-0.060059,1.051758,1.91603,2.877863,-1.366412,1.054503,3.717573,858,1562,704,858,0,60.498,4,load
1780600615.1761508,15.439636399998562,15646,0.067871,0.014648,1.057373,2.053435,6.870229,0.244275,1.05965,7.1747,859,1564,705,859,0,60.498,4,load
1780600615.2081723,15.471657999994932,15677,0.032471,-0.01001,1.056396,1.435114,1.160305,0.992366,1.056943,2.095389,860,1567,707,860,1,60.498,19,load
1780600615.2411714,15.504656999997678,15709,0.043457,-0.040283,1.05957,3.099237,3.160305,-2.137405,1.061226,4.915414,864,1572,708,864,0,60.498,0,load
1780600615.2721765,15.535662099995534,15741,0.035645,-0.030029,1.050537,-0.045802,3.068702,0.709924,1.05157,3.150083,865,1574,709,865,0,60.498,4,load
1780600615.3049011,15.5683868000051,15773,0.041748,-0.014893,1.041748,1.91603,3.389313,-1.198473,1.04269,4.07369,869,1580,711,869,0,71.174,4,load
1780600615.3386803,15.60216589999618,15805,0.041504,-0.04834,1.063232,0.610687,3.389313,-1.839695,1.06514,3.904466,870,1582,712,870,0,71.174,4,load
1780600615.3665686,15.630054299996118,15836,0.028809,-0.032471,1.077148,0.70229,1.847328,0.061069,1.078023,1.977261,871,1584,713,871,0,71.174,5,load
1780600615.3973248,15.660810400004266,15867,0.063477,-0.059082,1.060059,1.167939,2.618321,2.450382,1.0636,3.771479,874,1588,714,874,0,71.174,5,load
1780600615.4284606,15.691946299994015,15898,0.034668,-0.014404,1.028564,1.503817,4.053436,-0.78626,1.029249,4.394315,875,1590,715,875,0,71.174,4,load
1780600615.4594433,15.72292909999669,15929,0.04248,-0.052734,1.080078,1.175572,0.954198,0.679389,1.082199,1.659529,876,1592,716,876,0,71.174,3,load
1780600615.4912791,15.754764800003613,15961,0.009766,-0.077148,1.05957,2.183206,1.969466,-1.381679,1.06242,3.248726,879,1596,717,879,0,71.174,4,load
1780600615.5228553,15.786340999999084,15992,0.104248,0.041748,1.040527,2.908397,4.770992,-0.916031,1.04657,5.662178,880,1598,718,880,0,71.174,5,load
1780600615.5626898,15.826175399997737,16023,0.01709,-0.035889,1.054199,2.610687,2.274809,-4.755726,1.054948,5.882803,882,1603,721,882,1,52.0,15,load
1780600615.5856833,15.849168999993708,16054,0.028564,-0.058838,1.073975,2.793893,1.557252,-1.557252,1.075964,3.557514,884,1607,723,884,0,52.0,4,load
1780600615.615965,15.879450599997654,16085,0.073242,0.018555,1.05127,2.320611,4.175572,-2.290076,1.053981,5.29765,886,1610,724,886,0,52.0,4,load
1780600615.645553,15.909038900004816,16116,0.007568,-0.015381,1.038574,1.80916,3.061069,-3.687023,1.038716,5.12224,887,1613,726,887,1,52.0,19,load
1780600615.676227,15.939712799998233,16146,0.013672,-0.040527,1.060791,2.610687,1.480916,-1.885496,1.061653,3.544558,889,1616,727,889,0,52.0,5,load
1780600615.7069733,15.970459000003757,16177,0.102783,0.0,1.06543,1.328244,3.068702,-7.396946,1.070376,8.117634,890,1618,728,890,0,52.0,5,load
1780600615.738092,16.001577599992743,16207,0.079834,-0.016602,1.046875,1.923664,2.175573,-4.389313,1.050046,5.263047,891,1620,729,891,0,52.0,4,load
1780600615.7691197,16.032605500004138,16238,0.083984,-0.071045,1.068115,1.08397,2.473282,-0.824427,1.073765,2.823437,894,1624,730,894,0,52.0,4,load
1780600615.79813,16.0616158000048,16269,0.052734,-0.00415,1.02002,1.0,3.351145,0.442748,1.02139,3.525081,895,1626,731,895,0,52.0,4,load
1780600615.8300285,16.093514199994388,16299,0.070801,-0.014893,1.063232,1.48855,4.259542,0.984733,1.065691,4.618352,896,1628,732,896,0,50.725,5,load
1780600615.8611255,16.124611199993524,16330,0.030762,-0.054199,1.067627,2.80916,2.091603,-0.267176,1.069444,3.512487,899,1632,733,899,0,50.725,4,load
1780600615.892531,16.15601659999811,16362,0.096924,0.01709,1.052246,0.732824,4.251908,1.206107,1.056839,4.480006,900,1634,734,900,0,50.725,5,load
1780600615.9234595,16.186945099994773,16393,0.059082,-0.022705,1.041992,1.854962,2.076336,-0.641221,1.043913,2.857135,901,1636,735,901,0,50.725,4,load
1780600615.9550488,16.21853440000268,16424,0.032715,-0.000732,1.04834,2.748092,0.80916,-2.312977,1.04885,3.68193,904,1640,736,904,0,50.725,5,load
1780600615.984927,16.248412699991604,16455,0.070312,-0.030762,1.075684,0.641221,3.580153,-0.129771,1.078418,3.639437,905,1642,737,905,0,50.725,4,load
1780600616.0168993,16.28038490000472,16486,0.024414,-0.049316,1.023682,0.70229,1.458015,-0.099237,1.02516,1.621378,907,1646,739,907,0,50.725,0,load
1780600616.0483181,16.311803799995687,16517,0.050293,-0.061279,1.088135,2.374046,2.603053,-0.435114,1.091019,3.549832,910,1650,740,910,0,50.725,5,load
1780600616.0787058,16.342191499992623,16549,0.083252,0.006836,1.055176,0.290076,4.633588,0.396947,1.058477,4.659598,912,1654,742,912,0,64.0,5,load
1780600616.1093988,16.37288460000127,16579,0.0271,-0.058105,1.0354,1.480916,2.114504,-0.541985,1.037383,2.6378,914,1658,744,914,0,64.0,0,load
1780600616.141049,16.404534600005718,16610,0.042236,-0.04126,1.088135,2.526718,2.664122,-0.526718,1.089736,3.70935,917,1662,745,917,0,64.0,4,load
1780600616.1710138,16.43449959999998,16641,0.063721,-0.003174,1.038818,0.641221,3.969466,-0.564886,1.040776,4.060408,920,1666,746,920,0,64.0,5,load
1780600616.2035816,16.467067299992777,16672,0.025635,-0.026123,1.033203,1.534351,2.053435,-1.358779,1.033851,2.901225,923,1670,747,923,0,64.0,1,load
1780600616.2333033,16.49678899999708,16703,0.052246,-0.04541,1.071289,3.183206,1.671756,0.053435,1.073523,3.59589,926,1674,748,926,0,64.0,5,load
1780600616.263725,16.527210799991735,16734,0.027588,0.001709,1.03418,-0.022901,3.244275,-0.633588,1.034549,3.305643,927,1676,749,927,0,64.0,5,load
1780600616.295507,16.558992699996452,16765,0.043945,-0.017578,1.04126,1.465649,3.40458,-0.78626,1.042335,3.789129,928,1678,750,928,0,64.0,5,load
1780600616.325641,16.589126699996996,16795,0.065918,-0.046387,1.055908,3.328244,3.450382,-0.022901,1.05898,4.794045,931,1682,751,931,0,64.0,5,load
1780600616.361806,16.625291699994705,16832,0.016602,-0.03125,1.025879,-0.129771,2.396947,0.564886,1.026489,2.466027,934,1686,752,934,0,77.739,1,load
1780600616.3940513,16.657537099992624,16863,0.060547,-0.035645,1.044922,3.824427,3.59542,-0.427481,1.047281,5.2665,937,1690,753,937,0,77.739,5,load
1780600616.424324,16.68780980000156,16894,0.053955,-0.014648,1.037598,0.549618,2.671756,-0.458015,1.039103,2.765888,938,1692,754,938,0,77.739,5,load
1780600616.4553435,16.718829100005678,16925,0.041748,-0.029541,1.054199,0.587786,2.610687,-1.274809,1.055439,2.964172,939,1694,755,939,0,77.739,5,load
1780600616.4862149,16.74970050000411,16956,0.042725,-0.050293,1.05127,4.160306,3.312977,-0.396947,1.053339,5.33306,944,1700,756,944,0,77.739,5,load
1780600616.5187685,16.78225429999293,16987,0.08374,0.040039,1.040527,-0.335878,2.900763,-0.709924,1.044659,3.005201,945,1702,757,945,0,77.739,5,load
1780600616.5491242,16.812609999993583,17018,0.053467,-0.048828,1.056641,-0.564886,1.885496,-0.458015,1.059119,2.020883,946,1707,761,946,1,77.739,18,load
1780600616.5810988,16.844584399994346,17050,0.026367,-0.0271,1.054688,3.793893,3.389313,0.19084,1.055365,5.090922,948,1710,762,948,0,77.739,5,load
1780600616.6132572,16.876742899999954,17082,0.046387,-0.03833,1.052246,0.145038,2.442748,-1.450382,1.053965,2.844584,949,1712,763,949,0,60.0,5,load
1780600616.6436777,16.907163399999263,17113,0.043213,-0.019043,1.056885,3.274809,3.022901,0.129771,1.057939,4.458604,952,1717,765,952,1,60.0,14,load
1780600616.673833,16.937318600001163,17144,0.022217,-0.001953,1.050049,0.572519,2.458015,-0.458015,1.050286,2.565033,954,1720,766,954,0,60.0,5,load
1780600616.706733,16.970218699992984,17175,0.044922,-0.038818,1.05249,1.145038,2.78626,-1.244275,1.054163,3.259229,957,1724,767,957,0,60.0,5,load
1780600616.736275,16.99976059999608,17206,0.061279,-0.03125,1.054199,2.167939,3.312977,-0.824427,1.056441,4.044188,960,1728,768,960,0,60.0,6,load
1780600616.767515,17.031000599992694,17237,0.056396,0.002441,1.054688,1.320611,3.206107,-0.458015,1.056197,3.497558,963,1732,769,963,0,60.0,5,load
1780600616.798884,17.06236949999584,17268,0.042725,-0.054932,1.050293,1.221374,2.137405,-0.946565,1.052596,2.637468,964,1735,771,964,1,60.0,18,load
1780600616.8294592,17.092944899995928,17299,0.045166,-0.051025,1.046631,2.091603,3.122137,0.137405,1.048847,3.760508,966,1738,772,966,0,60.0,5,load
1780600616.8611119,17.12459750000562,17330,0.042969,-0.022949,1.056885,1.549618,3.007634,-0.450382,1.058007,3.413213,968,1742,774,968,0,60.0,5,load
1780600616.8917465,17.155232199991588,17361,0.020752,-0.030029,1.048096,0.51145,1.610687,-1.435114,1.048731,2.217081,969,1745,776,969,1,71.685,19,load
1780600616.922111,17.185596700001042,17392,0.007813,-0.005615,1.058594,2.152672,1.40458,-2.175573,1.058638,3.367485,971,1748,777,971,0,71.685,6,load
1780600616.9521089,17.21559459999844,17422,0.104248,-0.033447,1.053955,1.587786,5.19084,0.40458,1.059626,5.443304,972,1750,778,972,0,71.685,5,load
1780600616.9842672,17.247752800001763,17453,0.056152,-0.039062,1.054932,1.320611,3.969466,-0.48855,1.057147,4.211811,975,1754,779,975,0,71.685,6,load
1780600617.0171213,17.280606999993324,17484,0.022949,-0.01709,1.034912,1.969466,3.671756,-0.465649,1.035308,4.192543,977,1759,782,977,1,71.685,15,load
1780600617.0473275,17.310813200005214,17516,0.000977,-0.060059,1.04541,2.664122,0.51145,-0.954198,1.047134,2.875695,981,1764,783,981,0,71.685,6,load
1780600617.0769386,17.340424299996812,17547,0.054932,-0.004883,1.053955,2.229008,2.526718,-2.564885,1.055397,4.23455,986,1772,786,986,0,71.685,1,load
1780600617.1073935,17.370879099995364,17577,0.026855,0.003906,1.06543,1.496183,2.549618,-0.40458,1.065775,2.983756,987,1774,787,987,0,71.685,6,load
1780600617.1397753,17.403260899998713,17608,0.040039,-0.030029,1.038086,1.824428,3.412214,-1.503817,1.039292,4.15129,988,1776,788,988,0,71.685,6,load
1780600617.1696713,17.433156999992207,17639,0.006348,-0.061035,1.072754,2.305344,0.687023,-2.030534,1.074508,3.147964,989,1778,789,989,0,71.942,5,load
1780600617.2014277,17.46491330000572,17670,0.035889,-0.012451,1.103516,2.061069,2.343511,-1.51145,1.104169,3.467641,990,1781,791,990,1,71.942,18,load
1780600617.2322102,17.49569579999661,17702,0.001953,-0.066895,1.092285,1.465649,0.755725,-1.21374,1.094333,2.047538,991,1784,793,991,0,71.942,2,load
1780600617.2634988,17.526984399999492,17733,0.068359,-0.009033,1.019043,1.045802,3.625954,0.793893,1.021373,3.85636,992,1786,794,992,0,71.942,1,load
1780600617.2943637,17.557849299992085,17764,0.134033,-0.029297,1.015137,1.412214,6.48855,0.374046,1.024366,6.65098,993,1788,795,993,0,71.942,1,load
1780600617.32618,17.589665699997568,17795,0.093262,-0.016357,1.016602,1.389313,3.503817,0.29771,1.021001,3.780946,996,1793,797,996,1,71.942,3,load
1780600617.3589787,17.622464400003082,17827,0.08667,-0.040771,1.046631,1.946565,3.541985,0.351145,1.051004,4.056855,999,1797,798,999,1,71.942,16,load
1780600617.3878639,17.651349499996286,17858,-0.19165,-0.009033,1.033203,3.022901,0.557252,-3.923664,1.050866,4.984336,1003,1802,799,1003,0,71.942,8,load
1780600617.4188206,17.68230620000395,17888,0.261475,-0.02002,1.085693,2.145038,4.984732,0.076336,1.116915,5.427207,1007,1808,801,1007,0,71.942,0,load
1780600617.4501536,17.71363919999567,17919,0.020996,0.031006,1.059082,1.778626,2.625954,-0.969466,1.059744,3.316475,1008,1810,802,1008,0,67.857,7,load
1780600617.4810154,17.74450099999376,17950,-0.004395,-0.062744,1.052002,1.59542,2.122137,0.244275,1.05388,2.666177,1010,1814,804,1010,0,67.857,1,load
1780600617.511286,17.77477180000278,17981,0.148438,-0.036621,1.04541,2.351145,5.175572,-0.221374,1.056531,5.688888,1012,1818,806,1012,0,67.857,0,load
1780600617.5428996,17.806385200005025,18012,-0.077148,-0.017334,1.106689,1.908397,1.015267,-1.167939,1.109511,2.456996,1015,1823,808,1015,1,67.857,17,load
1780600617.575131,17.838616699998965,18044,0.104004,-0.038818,1.032715,1.290076,5.717558,0.839695,1.038664,5.921136,1018,1827,809,1018,1,67.857,15,load
1780600617.606455,17.869940699994913,18076,0.060547,0.010742,1.051758,0.969466,4.122138,-1.160305,1.053554,4.390693,1020,1830,810,1020,0,67.857,8,load
1780600617.6374705,17.90095609999844,18108,0.018066,-0.002686,1.060059,1.503817,3.282443,-2.78626,1.060216,4.560608,1021,1832,811,1021,0,67.857,8,load
1780600617.6683037,17.931789399997797,18138,0.086182,-0.022217,1.054688,1.541985,3.931298,-1.167939,1.058436,4.381427,1022,1834,812,1022,0,67.857,8,load
1780600617.6984444,17.96193000000494,18169,0.011719,0.0,1.048096,0.572519,3.412214,-1.396947,1.048161,3.731279,1025,1840,815,1025,0,68.0,0,load
1780600617.7285595,17.992045099992538,18199,0.000977,-0.02002,1.046143,2.229008,1.877863,-1.755725,1.046334,3.40256,1027,1844,817,1027,0,68.0,1,load
1780600617.7599258,18.02341159999196,18229,0.052734,-0.019043,1.041504,1.061069,4.816794,-0.709924,1.043012,4.983108,1029,1848,819,1029,0,68.0,0,load
1780600617.790518,18.054003600002034,18260,0.026611,-0.015137,1.067627,-0.396947,2.916031,0.21374,1.068066,2.950676,1031,1852,821,1031,0,68.0,0,load
1780600617.8226163,18.08610210000188,18291,0.028564,-0.035156,1.075684,1.732824,1.473282,-1.709924,1.076637,2.845537,1033,1855,822,1033,1,68.0,19,load
1780600617.8526468,18.116132499999367,18322,-0.00415,-0.032715,1.055908,2.068702,0.045802,-0.877863,1.056423,2.247726,1036,1859,823,1036,1,68.0,14,load
1780600617.8844745,18.147960300004343,18353,0.015869,-0.057373,1.033203,2.618321,1.435114,-1.282443,1.034916,3.249587,1038,1862,824,1038,0,68.0,8,load
1780600617.9141421,18.177627800003393,18384,0.017822,0.002686,1.037598,1.618321,3.496183,0.167939,1.037754,3.856224,1040,1866,826,1040,0,68.0,8,load
1780600617.9453218,18.208807400005753,18415,0.062256,-0.081787,1.031006,2.832061,3.305344,-1.839695,1.036117,4.725499,1041,1868,827,1041,0,68.0,8,load
1780600617.9762602,18.23974580000504,18446,0.015381,0.027832,1.069336,0.954198,3.19084,-0.358779,1.069809,3.349728,1041,1869,828,1041,1,57.762,25,load
1780600618.01724,18.280725599994184,18477,0.025391,0.064453,1.072266,2.175573,1.70229,-1.717557,1.074501,3.252831,1042,1871,829,1042,1,57.762,15,load
1780600618.0385556,18.30204140000569,18507,0.083984,-0.166504,1.036621,2.427481,5.251908,0.480916,1.053262,5.805729,1043,1873,830,1043,1,57.762,20,load
1780600618.0697298,18.333215499995276,18539,-0.017578,-0.093994,1.045898,0.21374,1.992366,0.0,1.050261,2.003798,1044,1874,830,1044,0,57.762,11,load
1780600618.1019506,18.365436299995054,18570,0.069336,-0.014648,1.047852,0.045802,3.366412,0.900763,1.050245,3.48514,1045,1876,831,1045,0,57.762,2,load
1780600618.1335251,18.39701079999213,18602,0.031006,-0.118408,1.02832,1.694656,2.374046,0.358779,1.035579,2.938822,1046,1878,832,1046,0,57.762,4,load
1780600618.1658127,18.429298499992,18634,0.006104,-0.046631,1.034424,2.633588,1.442748,-2.580153,1.035492,3.959103,1047,1880,833,1047,0,57.762,5,load
1780600618.1951752,18.458660899996175,18665,-0.006104,0.049072,1.055664,1.961832,1.908397,-1.648855,1.056822,3.195228,1048,1882,834,1048,0,57.762,6,load
1780600618.2260585,18.489544099997147,18696,-0.014404,0.039062,1.039795,1.740458,2.603053,-2.832061,1.040628,4.222043,1049,1886,837,1049,0,32.0,5,load
1780600618.2577136,18.521199199996772,18727,0.112061,-0.084473,1.057373,0.343511,3.89313,0.946565,1.066645,4.02125,1050,1888,838,1050,0,32.0,8,load
1780600618.2889726,18.552458299993305,18758,0.063232,-0.118652,1.060059,-0.587786,4.206106,0.068702,1.068551,4.247534,1051,1890,839,1051,0,32.0,9,load
1780600618.3203983,18.583883899991633,18790,0.102539,0.056885,1.041992,3.007634,3.885496,-0.381679,1.048569,4.928348,1054,1894,840,1054,0,32.0,10,load
1780600618.3523054,18.61579100000381,18821,0.060303,0.06543,1.049805,1.671756,3.534351,-1.022901,1.053569,4.041378,1055,1896,841,1055,0,32.0,10,load
1780600618.3829439,18.64642960000492,18853,0.029297,-0.125977,1.078613,2.343511,1.984733,-3.236641,1.08634,4.461732,1055,1897,842,1055,1,32.0,26,load
1780600618.413897,18.677382599998964,18884,0.035645,0.083252,1.056396,1.145038,3.885496,-2.557252,1.060271,4.790378,1056,1899,843,1056,1,32.0,18,load
1780600618.445641,18.709126599991578,18915,0.019775,-0.075439,1.080322,2.854962,2.389313,-3.206107,1.083134,4.91312,1058,1904,846,1058,1,32.0,1,load
1780600618.4773822,18.740867899992736,18946,0.210205,-0.062256,1.040527,2.099237,7.114504,1.320611,1.063372,7.534386,1059,1906,847,1059,1,40.0,20,load
1780600618.5087757,18.77226129999326,18977,-0.058838,0.043701,1.061279,1.664122,1.847328,-2.465649,1.063807,3.501621,1060,1908,848,1060,1,40.0,19,load
1780600618.537781,18.80126670000027,19008,-0.022949,0.082031,1.056396,1.328244,3.038168,-1.419847,1.059825,3.60703,1061,1910,849,1061,1,40.0,17,load
1780600618.5690894,18.832575199994608,19038,0.075928,-0.072754,1.043945,1.015267,3.824427,0.503817,1.049228,3.98884,1063,1914,851,1063,1,40.0,3,load
1780600618.5996644,18.86315019999165,19069,0.093262,-0.024414,1.036133,0.603053,3.816794,0.778626,1.040608,3.941808,1064,1916,852,1064,0,40.0,14,load
1780600618.6311247,18.894610300005297,19100,0.044678,0.000732,1.055908,0.908397,4.358778,1.061069,1.056853,4.577117,1066,1919,853,1066,0,40.0,9,load
1780600618.6614192,18.924904800005606,19131,-0.000977,0.074951,1.049561,0.748092,2.061069,-1.496183,1.052234,2.65447,1066,1920,854,1066,1,40.0,23,load
1780600618.6938653,18.957350900003803,19162,0.153076,-0.082764,1.032959,2.770992,5.984732,-0.419847,1.047514,6.608456,1067,1922,855,1067,1,40.0,15,load
1780600618.7242548,18.987740500000655,19194,0.017334,-0.120605,1.076904,2.091603,1.854962,-2.541985,1.083775,3.778541,1068,1924,856,1068,1,40.0,18,load
1780600618.7559423,19.01942810000037,19225,0.169678,0.068359,1.06665,1.10687,5.67939,0.541985,1.082223,5.811572,1069,1925,856,1069,0,35.842,13,load
1780600618.788729,19.05221470000106,19257,0.056152,-0.143066,1.074219,2.061069,3.389313,-0.412214,1.085158,3.988153,1070,1927,857,1070,0,35.842,0,load
1780600618.820751,19.084236599999713,19289,-0.010254,0.092285,1.078369,1.435114,2.839695,0.122137,1.082359,3.184076,1071,1929,858,1071,0,35.842,5,load
1780600618.8513951,19.11488079999981,19321,0.125488,-0.131836,1.072266,0.244275,5.870229,0.770992,1.087604,5.92568,1072,1931,859,1072,0,35.842,10,load
1780600618.8824744,19.145960099995136,19352,0.132324,-0.073486,1.05835,1.076336,4.610687,-0.687023,1.069118,4.784238,1073,1933,860,1073,0,35.842,10,load
1780600618.9142218,19.177707399998326,19383,-0.01001,0.061035,1.061035,1.305344,3.198473,-1.664122,1.062836,3.834508,1074,1936,862,1074,1,35.842,4,load
1780600618.9447565,19.208242199994856,19414,-0.001465,-0.104248,1.02832,2.832061,3.274809,-0.923664,1.033592,4.426974,1075,1938,863,1075,1,35.842,20,load
1780600618.9769616,19.240447300006053,19445,0.025635,-0.053955,1.079834,0.21374,2.969466,-0.519084,1.081485,3.022062,1076,1939,863,1076,0,35.842,11,load
1780600619.0074272,19.27091300000029,19476,0.065918,-0.149658,1.031982,2.282443,4.656488,-0.267176,1.044859,5.192669,1077,1941,864,1077,0,31.873,8,load
1780600619.0368562,19.30034180000075,19507,0.049316,0.058105,1.053223,3.419847,2.70229,-2.641221,1.055976,5.096448,1078,1943,865,1078,0,31.873,11,load
1780600619.0691078,19.332593500002986,19537,0.058105,0.093506,1.073242,3.664122,2.977099,-1.549618,1.078874,4.968926,1078,1944,866,1078,1,31.873,29,load
1780600619.0980015,19.361487100002705,19568,0.096436,0.002441,1.092285,-0.78626,3.419847,0.717557,1.096537,3.581682,1079,1945,866,1079,0,31.873,15,load
1780600619.1303825,19.393868300001486,19599,0.011963,-0.101807,1.073975,0.961832,1.274809,-1.793893,1.078856,2.401731,1080,1947,867,1080,0,31.873,6,load
1780600619.161315,19.42480059999798,19630,0.054199,-0.079834,1.055176,0.465649,3.954198,-1.137405,1.059579,4.140798,1081,1949,868,1081,0,31.873,11,load
1780600619.192917,19.45640280000225,19661,0.037598,-0.150879,1.048096,-0.694656,3.587786,1.862595,1.059567,4.10171,1082,1952,870,1082,1,31.873,6,load
1780600619.2241893,19.48767489999591,19693,0.043701,0.066406,1.060303,1.320611,3.167939,-1.030534,1.063279,3.583553,1083,1953,870,1083,0,31.873,17,load
1780600619.2546136,19.518099399996572,19725,0.048096,0.003662,1.061035,2.183206,3.015267,-1.0,1.062131,3.854637,1084,1955,871,1084,0,31.873,10,load
1780600619.2862852,19.54977090000466,19755,0.033203,-0.131348,1.040527,0.160305,3.198473,-0.320611,1.04931,3.218496,1084,1956,872,1084,1,25.09,39,load
1780600619.317499,19.5809847000055,19787,0.035156,0.002441,1.072266,1.465649,3.10687,-1.870229,1.072845,3.911333,1085,1957,872,1085,0,25.09,15,load
1780600619.3482056,19.61169119999977,19818,0.056152,-0.090088,1.043213,0.603053,3.0,-0.70229,1.0486,3.139568,1085,1958,873,1085,1,25.09,43,load
1780600619.3797576,19.643243200000143,19848,0.045898,0.043945,1.055176,2.51145,3.335878,-0.21374,1.057087,4.181046,1086,1959,873,1086,0,25.09,16,load
1780600619.4115372,19.675022800001898,19880,0.042969,-0.085938,1.04248,0.290076,3.312977,-1.114504,1.046899,3.507432,1086,1960,874,1086,1,25.09,41,load
1780600619.4419804,19.705466100000194,19911,0.056396,0.0271,1.062012,3.030534,3.267176,-0.938931,1.063853,4.554137,1087,1961,874,1087,0,25.09,23,load
1780600619.4734013,19.73688690000563,19942,0.056885,-0.072021,1.042236,0.946565,2.923664,-0.740458,1.046269,3.161024,1088,1963,875,1088,0,25.09,14,load
1780600619.5038004,19.76728610000282,19973,0.056885,-0.057129,1.042236,1.503817,2.977099,-1.068702,1.04535,3.502386,1088,1963,875,1088,0,25.09,14,load
1780600619.5344424,19.79792820000148,20004,0.049561,0.003662,1.059326,2.984733,3.419847,-0.396947,1.060491,4.556484,1089,1965,876,1089,0,25.09,9,load
1780600619.5654173,19.828903000001446,20035,0.087891,-0.099121,1.034668,4.694656,3.198473,-1.183206,1.043114,5.802586,1089,1966,877,1089,1,17.857,35,load
1780600619.5960615,19.859547200001543,20066,-0.005371,-0.137451,1.025635,4.91603,2.0,-2.129771,1.034818,5.718678,1090,1967,877,1090,0,17.857,18,load
1780600619.6280444,19.89153009999427,20097,0.034668,-0.048096,1.024902,3.862595,2.236641,0.10687,1.026616,4.464709,1091,1969,878,1091,0,17.857,5,load
1780600619.6578581,19.921343800000614,20128,0.009766,-0.138672,1.045166,1.21374,3.114504,-1.427481,1.05437,3.634694,1092,1971,879,1092,0,17.857,10,load
1780600619.6896334,19.95311909999873,20158,0.074707,-0.087158,1.031738,3.725191,4.366412,-0.076336,1.038105,5.740073,1093,1973,880,1093,0,17.857,11,load
1780600619.7208838,19.984369500001776,20189,0.026855,-0.191406,1.040527,2.244275,2.251908,-1.633588,1.058326,3.574419,1093,1974,881,1093,1,17.857,28,load
1780600619.7521977,20.01568349999434,20221,0.055176,0.063477,1.06543,-0.862595,3.679389,0.137405,1.068744,3.781647,1094,1975,881,1094,0,17.857,14,load
1780600619.7843828,20.047868399997242,20253,0.010986,-0.147217,1.041504,-0.633588,2.625954,-1.137405,1.051914,2.930999,1095,1977,882,1095,0,17.857,5,load
1780600619.8138912,20.077376799992635,20284,0.009033,-0.014893,1.026611,1.015267,3.51145,-0.877863,1.026759,3.759214,1096,1979,883,1096,0,17.857,12,load
1780600619.8456802,20.109165799993207,20315,0.045898,-0.120117,1.041016,-0.419847,3.961832,0.076336,1.048927,3.984748,1096,1979,883,1096,0,25.0,12,load
1780600619.8764498,20.13993560000381,20346,0.063477,-0.089111,1.038574,1.832061,3.274809,0.740458,1.044321,3.824801,1097,1981,884,1097,0,25.0,5,load
1780600619.9073803,20.170865899999626,20377,0.06543,-0.112305,1.033936,1.610687,3.381679,-1.709924,1.042073,4.117512,1097,1982,885,1097,1,25.0,41,load
1780600619.938348,20.2018337000045,20408,0.040771,-0.005127,1.046875,1.557252,3.435115,0.305344,1.047681,3.78395,1098,1983,885,1098,0,25.0,16,load
1780600619.9713085,20.234794200005126,20439,0.009033,0.082764,1.057617,1.870229,2.007634,-1.610687,1.060889,3.181613,1098,1984,886,1098,1,25.0,43,load
1780600620.0013738,20.26485949999187,20470,0.036377,-0.116943,1.041016,0.328244,3.389313,-1.274809,1.048195,3.635976,1099,1985,886,1099,0,25.0,19,load
1780600620.0316012,20.295086900005117,20501,0.028076,-0.021973,1.052246,1.473282,2.221374,-0.541985,1.05285,2.720076,1099,1986,887,1099,1,25.0,39,load
1780600620.063116,20.32660169999872,20532,0.061279,-0.109131,1.045166,0.19084,2.80916,-1.053435,1.052633,3.006248,1100,1987,887,1100,0,25.0,23,load
1780600620.093824,20.357309500002884,20563,0.05542,0.038818,1.051758,2.748092,2.931298,-0.648855,1.053932,4.070077,1101,1989,888,1101,0,25.0,14,load
1780600620.125416,20.38890160000301,20594,0.057373,0.01416,1.051758,3.465649,2.633588,-0.748092,1.053417,4.416576,1101,1989,888,1101,0,17.921,14,load
1780600620.1572545,20.42074020000291,20626,0.000244,0.018311,1.046631,2.274809,2.114504,-1.381679,1.046791,3.399253,1102,1991,889,1102,0,17.921,9,load
1780600620.1885958,20.452081499999622,20657,0.038574,-0.048828,1.036377,2.083969,2.732824,0.312977,1.038243,3.450972,1102,1992,890,1102,1,17.921,39,load
1780600620.218705,20.4821907000005,20688,0.061523,0.082764,1.062012,2.259542,3.557252,-0.396947,1.067007,4.232864,1103,1993,890,1103,0,17.921,14,load
1780600620.25135,20.51483559999906,20719,0.04248,0.065918,1.068848,2.419847,2.984733,-0.435114,1.071721,3.86699,1104,1995,891,1104,0,17.921,14,load
1780600620.282122,20.54560759999731,20751,0.029785,-0.074463,1.060547,2.175573,3.274809,-1.183206,1.063575,4.105785,1104,1995,891,1104,0,17.921,14,load
1780600620.3138847,20.57737040000211,20783,0.03418,0.020752,1.08374,1.259542,3.290076,-1.160305,1.084478,3.709091,1105,1997,892,1105,0,17.921,12,load
1780600620.3454087,20.608894399993005,20815,0.051514,-0.006592,1.0625,3.717557,2.519084,-0.465649,1.063768,4.514736,1105,1998,893,1105,1,17.921,41,load
1780600620.3769445,20.640430200000992,20845,0.036621,0.080566,1.064453,1.366412,3.351145,-0.847328,1.068126,3.716883,1106,1999,893,1106,0,19.92,16,load
1780600620.4070601,20.670545799992396,20876,0.056152,0.030518,1.0625,1.633588,2.839695,-2.091603,1.06442,3.886808,1106,2000,894,1106,1,19.92,45,load
1780600620.4381654,20.701651199997286,20907,0.048828,-0.119141,1.053467,0.664122,4.099236,-1.099237,1.061306,4.29571,1107,2001,894,1107,0,19.92,15,load
1780600620.4692945,20.732780099991942,20938,0.051025,-0.089844,1.039551,0.709924,3.419847,-0.854962,1.044673,3.595874,1107,2002,895,1107,1,19.92,45,load
1780600620.4999774,20.76346299999568,20969,0.047607,-0.073242,1.047607,2.0,3.145038,-1.244275,1.051243,3.929311,1108,2003,895,1108,0,19.92,16,load
1780600620.5300486,20.79353429999901,21000,-0.000732,0.024902,1.064209,2.312977,2.648855,-0.847328,1.0645,3.617217,1108,2004,896,1108,1,19.92,44,load
1780600620.5633116,20.82679730000382,21031,0.035156,-0.052246,1.044678,3.244275,2.175573,-1.236641,1.046574,4.097282,1109,2005,896,1109,0,19.92,14,load
1780600620.592149,20.85563469999761,21062,0.032471,0.039062,1.058838,2.183206,2.068702,-2.206107,1.060056,3.72999,1110,2007,897,1110,0,19.92,11,load
1780600620.6238284,20.88731409999309,21093,0.131836,-0.077148,1.086426,3.244275,2.572519,-3.89313,1.097111,5.683276,1110,2008,898,1110,1,19.92,29,load
1780600620.6553655,20.918851099995663,21124,0.064453,-0.025146,1.05835,2.282443,3.083969,-0.900763,1.060608,3.941039,1111,2010,899,1111,1,17.921,20,load
1780600620.6856263,20.94911200000206,21155,0.0354,-0.043213,1.071533,2.175573,1.51145,-1.480916,1.072988,3.034915,1113,2014,901,1113,1,17.921,3,load
1780600620.7160358,20.97952150000492,21186,0.040039,-0.024658,1.048096,1.740458,3.656489,-2.0,1.04915,4.516536,1117,2019,902,1117,0,17.921,7,load
1780600620.7470708,21.01055649999762,21216,0.048096,-0.036865,1.0625,0.587786,3.030534,-0.610687,1.064227,3.146835,1121,2025,904,1121,0,17.921,0,load
1780600620.7777169,21.04120249999687,21247,0.040283,-0.038818,1.063232,1.274809,1.732824,0.053435,1.064703,2.1519,1123,2029,906,1123,0,17.921,0,load
1780600620.8089004,21.072386100000585,21278,0.051025,-0.032959,1.04834,2.091603,3.526718,-0.671756,1.050098,4.154972,1128,2036,908,1128,1,17.921,14,load
1780600620.8402314,21.10371719999239,21309,0.039551,-0.013428,1.057129,0.572519,2.496183,-0.244275,1.057954,2.572621,1133,2043,910,1133,0,17.921,0,load
1780600620.8710444,21.134530099996482,21340,0.041992,-0.024658,1.063965,1.175572,2.709924,-0.557252,1.065079,3.006025,1134,2045,911,1134,0,17.921,5,load
1780600620.9023962,21.165881799999624,21372,0.036377,-0.034912,1.046631,2.015267,2.59542,-0.381679,1.047844,3.308049,1137,2051,914,1137,0,17.921,6,load
1780600620.9322834,21.19576899999811,21402,0.036865,-0.01123,1.064453,1.282443,2.816794,-0.48855,1.06515,3.133316,1138,2053,915,1138,0,97.122,5,load
1780600620.9643342,21.227820000000065,21433,0.046143,-0.051025,1.043457,1.664122,2.549618,-0.435114,1.045722,3.075578,1140,2060,920,1140,1,97.122,4,load
1780600620.9949183,21.258403899992118,21464,0.037842,-0.021729,1.052002,1.458015,2.770992,-1.145038,1.052906,3.333964,1142,2063,921,1142,0,97.122,5,load
1780600621.0254178,21.288903499997105,21495,0.064209,-0.015625,1.056396,0.312977,2.0,-1.496183,1.058461,2.517244,1143,2065,922,1143,0,97.122,4,load
1780600621.075171,21.338656599997194,21525,0.027832,-0.037598,1.052246,0.351145,2.969466,-6.587786,1.053285,7.234636,1144,2068,924,1144,1,97.122,18,load
1780600621.0875008,21.35098649999418,21556,0.094482,-0.079102,1.065674,4.458016,3.343511,0.923664,1.072774,5.648551,1146,2071,925,1146,0,97.122,5,load
1780600621.1191733,21.382658899994567,21588,0.032471,-0.033447,1.056641,-1.061069,1.793893,-0.381679,1.057668,2.118867,1148,2075,927,1148,0,97.122,0,load
1780600621.1515028,21.414988599994103,21620,0.055176,-0.053955,1.016846,2.877863,3.381679,-1.557252,1.01977,4.705622,1151,2079,928,1151,0,97.122,5,load
1780600621.182488,21.44597369999974,21652,0.048584,0.030762,1.033203,0.320611,2.374046,-0.282443,1.034802,2.41219,1153,2083,930,1153,0,60.0,0,load
1780600621.213424,21.476909599994542,21683,0.02417,-0.075928,1.046631,0.396947,2.832061,-0.648855,1.04966,2.932431,1154,2086,932,1154,1,60.0,18,load
1780600621.2441893,21.507675000000745,21714,0.029053,-0.036621,1.055176,3.419847,3.19084,0.351145,1.056211,4.690428,1156,2089,933,1156,0,60.0,4,load
1780600621.2753277,21.53881339999498,21745,0.052734,-0.027588,1.052002,-0.633588,2.122137,-1.679389,1.053684,2.779433,1157,2091,934,1157,0,60.0,5,load
1780600621.3062875,21.569773099996382,21776,0.057617,-0.028076,1.059082,3.59542,3.244275,-0.396947,1.06102,4.859005,1160,2096,936,1160,1,60.0,3,load
1780600621.3359573,21.599442999999155,21806,0.037109,0.000244,1.055908,1.946565,3.183206,0.29771,1.05656,3.743066,1162,2099,937,1162,0,60.0,5,load
1780600621.3663323,21.62981790000049,21836,0.044922,-0.019287,1.046631,-1.030534,2.381679,-2.015267,1.047772,3.285681,1163,2101,938,1163,0,60.0,5,load
1780600621.3984396,21.661925399996107,21867,0.0354,-0.034424,1.043701,4.305344,3.061069,-0.389313,1.044869,5.296951,1166,2105,939,1166,0,60.0,5,load
1780600621.4276872,21.69117279999773,21898,0.013184,-0.014893,1.025635,0.694656,2.496183,0.0,1.025828,2.591038,1169,2109,940,1169,0,60.0,5,load
1780600621.4584498,21.721935399997164,21928,0.057617,-0.015137,1.063232,-0.083969,2.053435,-1.580153,1.0649,2.592398,1172,2113,941,1172,0,68.841,0,load
1780600621.4892876,21.752773200001684,21959,0.065186,-0.061768,1.045898,4.259542,3.282443,-0.427481,1.049747,5.394522,1176,2119,943,1176,0,68.841,5,load
1780600621.5206385,21.784124099998735,21990,0.033447,0.045654,1.035644,0.091603,3.198473,-0.305344,1.03719,3.214321,1178,2123,945,1178,0,68.841,0,load
1780600621.551822,21.815307600001688,22021,0.019287,-0.068604,1.068848,0.427481,1.984733,-0.343511,1.071221,2.059103,1179,2126,947,1179,1,68.841,18,load
1780600621.5817544,21.8452399999951,22052,0.020752,-0.03125,1.059082,3.870229,3.572519,0.152672,1.059746,5.269238,1182,2131,949,1182,0,68.841,0,load
1780600621.6126626,21.87614819999726,22083,0.025146,-0.001221,1.039062,-0.618321,2.389313,-1.534351,1.039367,2.906092,1183,2133,950,1183,0,68.841,5,load
1780600621.6439075,21.907393200002844,22113,0.029297,-0.07959,1.056885,-0.854962,1.08397,-1.038168,1.060282,1.727351,1185,2138,953,1185,1,68.841,3,load
1780600621.6746495,21.93813510000473,22144,0.030029,-0.026123,1.062012,2.961832,3.419847,-0.358779,1.062757,4.53834,1188,2143,955,1188,0,68.841,5,load
1780600621.7056584,21.969144000002416,22175,0.04126,-0.02832,1.062744,1.335878,3.030534,-1.206107,1.063922,3.524685,1190,2147,957,1190,0,68.841,0,load
1780600621.7363489,21.999834599992028,22206,0.044189,-0.024658,1.052246,3.290076,3.145038,0.007634,1.053462,4.551475,1193,2151,958,1193,0,75.54,5,load
1780600621.7677202,22.031205899998895,22237,0.029541,-0.023193,1.039062,0.656489,2.068702,-0.320611,1.039741,2.193923,1194,2153,959,1194,0,75.54,5,load
1780600621.7979834,22.0614690999937,22268,0.032471,-0.013916,1.049561,0.70229,2.870229,-0.732824,1.050155,3.044414,1196,2157,961,1196,0,75.54,0,load
1780600621.8301117,22.093597500002943,22299,0.055908,-0.063721,1.047607,3.633588,3.740458,-1.007634,1.051032,5.311244,1200,2163,963,1200,0,75.54,5,load
1780600621.8605604,22.12404599999718,22330,0.065674,0.018555,1.046631,0.351145,2.854962,-0.396947,1.048853,2.903735,1201,2165,964,1201,0,75.54,5,load
1780600621.8921208,22.15560650000407,22361,0.038818,-0.059814,1.047852,-0.29771,2.236641,-0.709924,1.050275,2.365415,1202,2168,966,1202,1,75.54,18,load
1780600621.9232337,22.18671949999407,22392,0.062988,-0.052002,1.062256,3.923664,3.145038,0.152672,1.065392,5.030876,1205,2173,968,1205,0,75.54,0,load
1780600621.9600685,22.223554199998034,22429,0.029785,-0.023193,1.048828,-0.587786,2.564885,-1.007634,1.049507,2.817704,1206,2176,970,1206,1,75.54,20,load
1780600621.9906163,22.25410209999245,22460,0.047363,-0.030029,1.064697,3.541985,3.458015,0.015267,1.066173,4.950127,1209,2181,972,1209,0,62.992,5,load
1780600622.0217433,22.28522890000022,22491,0.072266,-0.03833,1.062256,-1.465649,2.465649,-1.519084,1.065401,3.245792,1212,2185,973,1212,0,62.992,5,load
1780600622.0531237,22.316609500005143,22522,0.056396,-0.006836,1.050293,1.175572,2.175573,-0.358779,1.051828,2.498762,1216,2191,975,1216,0,62.992,5,load
1780600622.0838234,22.347309000004316,22553,0.056641,-0.053467,1.067383,1.908397,2.648855,-0.389313,1.070221,3.287853,1217,2193,976,1217,0,62.992,4,load
1780600622.1145995,22.378085200005444,22584,0.053467,-0.031494,1.05835,0.412214,2.526718,-0.938931,1.060167,2.726869,1219,2197,978,1219,0,62.992,1,load
1780600622.146144,22.409629500005394,22615,0.04126,-0.054932,1.038574,1.793893,3.580153,-0.648855,1.040844,4.056668,1222,2201,979,1222,0,62.992,4,load
1780600622.1768916,22.440377199993236,22646,0.0354,0.01416,1.061035,2.374046,3.19084,-0.152672,1.06172,3.980058,1223,2203,980,1223,0,62.992,5,load
1780600622.2079973,22.471483100001933,22678,0.043945,-0.056396,1.050049,0.496183,1.496183,-0.740458,1.05248,1.741562,1224,2206,982,1224,1,62.992,18,load
1780600622.2384188,22.501904599994305,22708,0.051758,-0.040283,1.044922,3.984733,3.816794,-0.916031,1.046978,5.59331,1228,2211,983,1228,0,62.992,5,load
1780600622.2695653,22.533051099992008,22739,0.015869,-0.007324,1.057617,0.312977,2.496183,-0.412214,1.057762,2.549275,1229,2213,984,1229,0,71.685,4,load
1780600622.3010454,22.564531199997873,22770,0.03833,-0.026855,1.041016,0.885496,2.458015,-0.992366,1.042067,2.794769,1231,2216,985,1231,1,71.685,17,load
1780600622.331127,22.594612699991558,22801,0.03125,-0.014893,1.062988,2.725191,3.389313,-0.946565,1.063552,4.450853,1233,2219,986,1233,0,71.685,4,load
1780600622.3639634,22.62744899999234,22832,0.0354,-0.018799,1.046631,-1.099237,1.328244,-0.877863,1.047398,1.934734,1234,2221,987,1234,0,71.685,5,load
1780600622.3940995,22.65758509999432,22863,0.062256,-0.039062,1.015137,2.603053,3.236641,-1.206107,1.017794,4.325093,1237,2225,988,1237,0,71.685,5,load
1780600622.4251146,22.688600399997085,22895,0.091309,0.00415,1.06958,1.816794,3.48855,-1.221374,1.073478,4.118552,1238,2227,989,1238,0,71.685,4,load
1780600622.457107,22.720592800003942,22926,0.03125,-0.018555,1.067627,-0.251908,0.916031,-0.366412,1.068245,1.018247,1239,2230,991,1239,1,71.685,18,load
1780600622.488196,22.751681499998085,22957,0.017334,-0.050049,1.012695,2.366412,3.045802,-1.557252,1.014079,4.159549,1241,2233,992,1241,0,71.685,4,load
1780600622.524476,22.78796180000063,22988,0.096924,0.00415,1.090332,3.572519,4.67939,-1.694656,1.094639,6.126291,1242,2235,993,1242,0,71.685,4,load
1780600622.5498123,22.813297999993665,23019,0.012207,-0.017334,1.095459,0.801527,1.206107,0.587786,1.095664,1.562892,1243,2238,995,1243,1,50.0,20,load
1780600622.5813146,22.844800199993188,23051,-0.006836,-0.082275,1.018799,-0.083969,0.709924,-1.175572,1.022138,1.375868,1253,2249,996,1253,0,50.0,0,load
1780600622.6104653,22.873950900000636,23081,0.045898,0.00708,1.02832,3.122137,4.89313,-0.030534,1.029368,5.804428,1254,2251,997,1254,0,50.0,4,load
1780600622.6420214,22.905507100003888,23111,0.007568,0.060547,1.062988,1.473282,3.618321,1.931298,1.064738,4.358063,1255,2254,999,1255,1,50.0,19,load
1780600622.6728876,22.93637320000562,23142,-0.012451,-0.060303,1.040772,1.053435,1.954198,-1.076336,1.042591,2.467208,1257,2257,1000,1257,0,50.0,4,load
1780600622.7038167,22.96730239999306,23173,0.057861,-0.010986,1.070557,2.801527,3.152672,0.900763,1.072175,4.312686,1258,2259,1001,1258,0,50.0,5,load
1780600622.7346137,22.998099399992498,23204,0.034912,0.011475,1.070312,1.923664,1.89313,5.862596,1.070943,6.454026,1259,2262,1003,1259,1,50.0,19,load
1780600622.765412,23.028897700001835,23235,0.070068,-0.087891,1.048096,1.557252,3.534351,-2.816794,1.054106,4.780272,1261,2265,1004,1261,0,50.0,4,load
1780600622.7970486,23.06053429999156,23266,0.065918,0.0271,1.064209,2.694656,4.564886,-1.80916,1.066593,5.601108,1262,2267,1005,1262,0,50.0,4,load
1780600622.8290467,23.0925322999974,23297,0.036865,-0.036377,1.07959,0.160305,0.244275,0.946565,1.080831,0.990633,1263,2270,1007,1263,1,71.942,19,load
1780600622.8594332,23.122918900000514,23329,0.042725,-0.055664,1.052246,2.603053,2.977099,-5.236642,1.054583,6.56212,1267,2275,1008,1267,0,71.942,4,load
1780600622.889773,23.153258599995752,23360,0.053467,-0.007813,1.078857,1.603053,2.40458,-2.717557,1.08021,3.966976,1269,2279,1010,1269,0,71.942,0,load
1780600622.9211304,23.18461599999864,23390,0.05127,0.005371,1.055908,1.122137,1.992366,0.40458,1.057166,2.322154,1270,2282,1012,1270,1,71.942,18,load
1780600622.9595695,23.223055199996452,23421,0.031738,-0.056641,1.040527,2.374046,3.129771,-1.923664,1.042551,4.374019,1272,2285,1013,1272,0,71.942,5,load
1780600622.9821162,23.245601899994654,23452,0.047607,0.004395,1.040527,2.122137,3.541985,-0.160305,1.041625,4.132169,1273,2287,1014,1273,0,71.942,5,load
1780600623.0145779,23.27806359999522,23483,0.034912,-0.050781,1.051514,-0.015267,2.633588,1.229008,1.053318,2.906282,1275,2290,1015,1275,1,71.942,18,load
1780600623.04503,23.30851580000308,23515,0.063477,-0.068848,1.050293,2.335878,3.267176,-3.70229,1.054459,5.462391,1277,2293,1016,1277,0,71.942,5,load
1780600623.0756993,23.339185100005125,23545,0.040283,-0.012939,1.064209,1.351145,3.541985,-1.320611,1.06505,4.014382,1278,2295,1017,1278,0,71.942,5,load
1780600623.1066563,23.370141899999,23576,0.040283,-0.054199,1.052246,1.0,2.465649,0.427481,1.054411,2.69484,1281,2299,1018,1281,0,64.516,5,load
1780600623.1380131,23.40149879999808,23607,0.060547,-0.052246,1.063965,2.045802,2.564885,-2.564885,1.066966,4.164442,1283,2303,1020,1283,0,64.516,0,load
1780600623.1690788,23.432564599992475,23638,0.042236,0.000488,1.056152,0.755725,3.755725,-0.877863,1.056997,3.930297,1284,2305,1021,1284,0,64.516,4,load
1780600623.200618,23.464103699996485,23669,0.028076,-0.017578,1.041992,2.229008,2.335878,0.29771,1.042518,3.242442,1287,2309,1022,1287,0,64.516,5,load
1780600623.2324767,23.49596250000468,23701,0.043213,-0.013916,1.050049,2.465649,3.748092,-2.320611,1.05103,5.051024,1288,2311,1023,1288,0,64.516,4,load
1780600623.264087,23.52757269999711,23733,0.023193,0.021973,1.067139,1.129771,1.862595,2.259542,1.067617,3.138658,1289,2314,1025,1289,1,64.516,19,load
1780600623.2948704,23.55835599999409,23764,0.040039,-0.076416,1.025146,0.755725,2.519084,-0.763359,1.02877,2.738544,1293,2319,1026,1293,0,64.516,1,load
1780600623.3261597,23.589645300002303,23795,0.063477,-0.01001,1.046387,3.183206,3.709924,-0.801527,1.048358,4.953664,1294,2321,1027,1294,0,64.516,4,load
1780600623.3568535,23.62033920000249,23826,0.016602,0.02832,1.068604,0.816794,2.122137,1.656489,1.069108,2.813285,1296,2326,1030,1296,1,60.0,15,load
1780600623.3878536,23.651339200005168,23857,0.04126,-0.077393,1.032227,1.763359,2.923664,-1.900763,1.035946,3.907704,1298,2329,1031,1298,0,60.0,4,load
1780600623.419229,23.6827145999996,23888,0.021484,-0.02002,1.05127,2.152672,3.358779,-0.732824,1.05168,4.056158,1299,2331,1032,1299,0,60.0,4,load
1780600623.4504526,23.713938200002303,23919,0.023438,-0.030762,1.03418,0.824427,2.366412,0.465649,1.034903,2.548807,1301,2334,1033,1301,1,60.0,17,load
1780600623.4798331,23.74331869999878,23950,0.030762,-0.032959,1.039307,2.503817,4.0229,-2.29771,1.040284,5.266146,1303,2337,1034,1303,0,60.0,4,load
1780600623.5102003,23.773686000000453,23980,0.051758,0.006592,1.058594,1.175572,3.305344,-0.48855,1.059879,3.542026,1305,2341,1036,1305,0,60.0,0,load
1780600623.5422363,23.80572210000537,24011,0.034912,-0.052002,1.041016,1.045802,1.946565,-0.29771,1.042898,2.229674,1308,2345,1037,1308,0,60.0,4,load
1780600623.5729158,23.83640149999701,24042,0.023926,-0.021973,1.042236,2.587786,4.839694,-2.442748,1.042742,6.007188,1309,2347,1038,1309,0,60.0,4,load
1780600623.6046057,23.868091299998923,24073,0.019775,0.037842,1.031982,1.305344,4.160306,0.916031,1.032865,4.455466,1310,2349,1039,1310,0,60.0,4,load
1780600623.635566,23.899051700005657,24104,0.043213,-0.013672,1.059814,1.458015,2.206107,0.961832,1.060783,2.813865,1313,2353,1040,1313,0,61.151,4,load
1780600623.667257,23.930742700002156,24136,0.021484,-0.037109,1.036377,2.083969,2.290076,-0.694656,1.037264,3.173314,1314,2355,1041,1314,0,61.151,4,load
1780600623.6980643,23.961549999992712,24167,0.057129,0.031494,1.073242,1.778626,2.549618,3.145038,1.075223,4.42214,1315,2357,1042,1315,0,61.151,4,load
1780600623.7276337,23.99111940000148,24198,0.006348,-0.003174,1.045898,1.442748,2.59542,1.10687,1.045922,3.169052,1318,2361,1043,1318,0,61.151,4,load
1780600623.7591698,24.02265559999796,24228,0.046387,-0.030273,1.069336,2.664122,2.022901,-1.061069,1.07077,3.50935,1320,2365,1045,1320,0,61.151,0,load
1780600623.790217,24.053702699995483,24259,0.075684,0.000732,1.060059,1.351145,3.068702,1.740458,1.062757,3.777793,1321,2367,1046,1321,0,61.151,4,load
1780600623.821776,24.085261600004742,24290,0.032715,0.015137,1.049561,1.80916,1.801527,0.351145,1.050179,2.577181,1325,2373,1048,1325,0,61.151,4,load
1780600623.8526237,24.116109399998095,24321,0.051758,-0.067627,1.046387,1.78626,2.564885,-1.969466,1.049846,3.694341,1326,2375,1049,1326,0,61.151,4,load
1780600623.8838038,24.147289500004263,24352,0.07666,0.011475,1.059326,1.91603,4.183206,1.40458,1.062158,4.810741,1327,2377,1050,1327,0,61.151,4,load
1780600623.9138465,24.177332199993543,24383,0.042725,0.005127,1.061768,1.946565,1.725191,1.10687,1.062639,2.826758,1332,2383,1051,1332,0,68.1,5,load
1780600623.9454176,24.208903399994597,24414,0.039551,-0.029053,1.037354,2.419847,2.572519,-0.305344,1.038514,3.544961,1334,2387,1053,1334,0,68.1,0,load
1780600623.9756958,24.239181500000996,24445,0.068848,-0.012695,1.06543,1.59542,4.08397,2.076336,1.067727,4.851324,1335,2389,1054,1335,0,68.1,4,load
1780600624.0062857,24.269771299994318,24476,0.048828,-0.008545,1.066894,2.022901,2.381679,0.572519,1.068046,3.176838,1338,2393,1055,1338,0,68.1,4,load
1780600624.0376675,24.30115329999535,24507,0.062012,-0.056641,1.084228,2.389313,2.946565,-1.40458,1.087476,4.045233,1339,2395,1056,1339,0,68.1,4,load
1780600624.068293,24.331778799998574,24538,0.044189,0.011475,1.041748,0.335878,3.40458,1.977099,1.042748,3.951316,1340,2397,1057,1340,0,68.1,4,load
1780600624.1003149,24.363800499995705,24569,0.011963,-0.055176,1.061523,1.366412,0.969466,-1.778626,1.063024,2.443452,1344,2403,1059,1344,0,68.1,4,load
1780600624.1310806,24.394566400005715,24600,0.027344,-0.089111,1.021973,2.21374,2.419847,-7.10687,1.026215,7.827126,1345,2405,1060,1345,0,68.1,4,load
1780600624.1625104,24.425996000005398,24631,0.04541,0.013184,1.069824,0.801527,2.541985,-1.465649,1.070869,3.041752,1346,2407,1061,1346,0,68.1,5,load
1780600624.193344,24.456829899994773,24662,0.062256,-0.042725,1.089356,1.389313,1.061069,1.091603,1.091969,2.060984,1350,2413,1063,1350,0,64.516,4,load
1780600624.2236712,24.48715679999441,24693,0.071533,-0.064209,1.039307,3.412214,3.992366,-3.496183,1.043742,6.309159,1352,2417,1065,1352,0,64.516,0,load
1780600624.2547207,24.518206299995654,24724,0.048096,0.009277,1.068848,0.167939,3.496183,0.549618,1.069969,3.543103,1353,2419,1066,1353,0,64.516,5,load
1780600624.2863088,24.549794399994425,24755,0.015869,-0.028076,1.070801,1.526718,0.816794,1.343511,1.071286,2.191584,1356,2423,1067,1356,0,64.516,4,load
1780600624.3172684,24.580753999995068,24786,0.05127,-0.066895,1.0354,2.122137,4.251908,-3.89313,1.038825,6.14318,1357,2425,1068,1357,0,64.516,4,load
1780600624.3483844,24.61186999999336,24817,0.057129,0.000977,1.057617,0.496183,3.946565,0.587786,1.05916,4.020829,1358,2427,1069,1358,0,64.516,4,load
1780600624.37902,24.642505700001493,24848,0.043701,-0.045898,1.05249,2.282443,0.923664,-0.59542,1.054396,2.533224,1361,2431,1070,1361,0,64.516,5,load
1780600624.4098916,24.673377200000687,24879,0.079346,-0.022217,1.043457,2.198473,3.717557,-2.022901,1.046705,4.76924,1362,2433,1071,1362,0,64.516,4,load
1780600624.4411747,24.704660499992315,24910,0.05249,-0.012451,1.061768,1.167939,2.145038,0.908397,1.063137,2.60585,1363,2436,1073,1363,1,64.516,19,load
1780600624.4730167,24.73650240000279,24942,0.049072,-0.076172,1.044189,1.603053,1.946565,-2.358779,1.048114,3.452931,1365,2439,1074,1365,0,53.571,4,load
1780600624.5037956,24.767281299995375,24973,0.023682,0.016357,1.042236,2.122137,3.832061,0.832061,1.042634,4.458754,1366,2441,1075,1366,0,53.571,5,load
1780600624.5355692,24.799054799994337,25004,0.041504,-0.011719,1.076172,0.129771,1.572519,1.801527,1.077036,2.394818,1368,2444,1076,1368,1,53.571,18,load
1780600624.5669093,24.830395099997986,25036,0.06958,-0.049805,1.023438,2.328244,3.061069,-2.770992,1.027008,4.740175,1370,2447,1077,1370,0,53.571,4,load
1780600624.5967457,24.860231500002556,25067,0.044678,0.0271,1.067871,1.0,5.519084,1.381679,1.069149,5.776618,1371,2449,1078,1371,0,53.571,4,load
1780600624.627817,24.89130249999289,25097,0.033447,-0.090576,1.071289,0.89313,0.900763,-1.007634,1.075632,1.619994,1374,2453,1079,1374,0,53.571,4,load
1780600624.6596599,24.92314559999795,25128,0.048584,-0.016602,1.030273,2.290076,4.687022,-5.229008,1.031552,7.386146,1375,2455,1080,1375,0,53.571,4,load
1780600624.6909087,24.954394400003366,25159,0.05957,-0.02417,1.095459,0.396947,1.206107,-5.832062,1.097344,5.968684,1376,2457,1081,1376,0,53.571,4,load
1780600624.7217488,24.985234499996295,25191,0.0896,-0.035156,1.025391,1.496183,3.129771,-2.564885,1.029898,4.31424,1379,2461,1082,1379,0,53.571,4,load
1780600624.752406,25.015891499991994,25222,0.002197,-0.078613,1.043457,2.854962,3.961832,-7.961832,1.046416,9.340112,1380,2463,1083,1380,0,53.571,4,load
1780600624.78247,25.045955699999467,25252,0.063232,-0.001709,1.072754,1.40458,2.526718,-5.534352,1.074617,6.243892,1381,2465,1084,1381,0,53.571,3,load
1780600624.8142228,25.07770840000012,25283,0.018311,-0.013184,1.080811,0.290076,-1.038168,1.137405,1.081046,1.567044,1383,2468,1085,1383,1,53.571,19,load
1780600624.8453014,25.108787000004668,25314,0.048828,-0.039062,1.034912,3.229008,-0.557252,-2.78626,1.036799,4.301193,1387,2473,1086,1387,0,53.571,4,load
