host_epoch_s,host_elapsed_s,time_ms,ax,ay,az,gx,gy,gz,acc_mag,gyro_mag,pulse_count,edge_count,rise_count,fall_count,state,pulse_rate_hz,last_edge_dt_ms,label
1780594790.6033869,0.014023199997609481,187,0.048584,-0.084229,1.044189,2.282443,3.343511,-0.305344,1.048707,4.059784,18,31,13,18,1,0.0,13,normal
1780594790.6339307,0.04456699998991098,218,0.039307,0.015625,1.042236,1.778626,2.419847,-0.755725,1.043094,3.096819,21,36,15,21,0,0.0,1,normal
1780594790.6655757,0.07621220000146423,249,0.029053,-0.039062,1.059326,1.053435,2.740458,-1.251908,1.060444,3.191725,23,40,17,23,0,0.0,0,normal
1780594790.6961033,0.10673980000137817,280,0.053955,-0.018555,1.062744,3.29771,4.152672,0.053435,1.064275,5.303058,27,46,19,27,0,96.429,6,normal
1780594790.7273362,0.13797250000061467,311,0.046631,-0.008301,1.047119,0.40458,3.389313,-1.160305,1.04819,3.605196,31,52,21,31,0,96.429,0,normal
1780594790.7579033,0.16853979999723379,342,0.055908,-0.04126,1.061768,2.458015,2.946565,-0.709924,1.064039,3.902317,33,57,24,33,1,96.429,14,normal
1780594790.7885416,0.19917799999529961,373,0.0354,-0.023438,1.061035,2.175573,2.610687,0.0,1.061884,3.398353,38,64,26,38,0,96.429,1,normal
1780594790.8281915,0.2388280000013765,404,0.05249,-0.001953,1.060059,0.374046,3.740458,-0.923664,1.061359,3.870929,40,68,28,40,0,96.429,0,normal
1780594790.8515618,0.2621980999974767,435,0.051025,-0.084717,1.044678,2.870229,3.145038,-0.267176,1.049348,4.266247,42,73,31,42,1,96.429,13,normal
1780594790.8818107,0.29244699999981094,466,0.041016,0.005859,1.048584,1.709924,2.557252,-0.732824,1.049402,3.162342,47,80,33,47,0,96.429,1,normal
1780594790.9130104,0.32364679999591317,496,0.035889,-0.031738,1.053223,0.80916,2.709924,-1.099237,1.054312,3.034262,49,84,35,49,0,96.429,0,normal
1780594790.9428613,0.35349769999447744,527,0.046631,-0.030518,1.054932,3.442748,3.664122,0.412214,1.056403,5.044624,52,89,37,52,1,96.429,13,normal
1780594790.9735277,0.3841641000035452,558,0.042236,0.000244,1.042969,0.549618,3.496183,-0.778626,1.043824,3.62376,57,96,39,57,0,107.914,0,normal
1780594791.0050364,0.41567279999435414,588,0.028564,-0.036865,1.056152,1.007634,2.725191,-1.221374,1.057182,3.151784,59,100,41,59,0,107.914,0,normal
1780594791.03685,0.44748629999230616,619,0.043213,-0.03833,1.06958,2.717557,3.167939,0.206107,1.071139,4.178928,64,106,42,64,0,107.914,5,normal
1780594791.0672855,0.47792189999017864,651,0.040283,-0.002197,1.053223,0.19084,3.763359,-1.358779,1.053995,4.005692,68,112,44,68,0,107.914,0,normal
1780594791.0991783,0.5098147999960929,682,0.034668,-0.068115,1.03833,2.007634,2.854962,-0.51145,1.041139,3.527461,70,117,47,70,1,107.914,13,normal
1780594791.129174,0.5398103999905288,713,0.039062,0.015869,1.050537,2.21374,2.229008,-0.625954,1.051383,3.20327,75,124,49,75,0,107.914,1,normal
1780594791.1616898,0.5723261999955866,745,0.03418,-0.043945,1.059814,0.900763,2.633588,-1.21374,1.061276,3.036499,77,128,51,77,0,107.914,0,normal
1780594791.1924353,0.6030716999957804,776,0.048828,-0.016113,1.060059,3.335878,3.900763,0.221374,1.061305,5.137416,81,134,53,81,0,107.914,6,normal
1780594791.222857,0.6334934999904362,807,0.046387,-0.006592,1.047363,0.358779,3.19084,-0.763359,1.048411,3.300439,85,140,55,85,0,107.914,0,normal
1780594791.2552054,0.665841800000635,838,0.050781,-0.030029,1.051514,2.267176,2.80916,-1.091603,1.053167,3.771348,87,145,58,87,1,107.143,13,normal
1780594791.2866309,0.6972671999974409,870,0.038086,0.009277,1.058594,1.832061,2.282443,-0.48855,1.059319,2.967267,92,152,60,92,0,107.143,1,normal
1780594791.3174744,0.7281108000024687,901,0.037109,-0.031494,1.047119,0.564886,3.625954,-1.29771,1.04825,3.892389,94,156,62,94,0,107.143,0,normal
1780594791.3491833,0.7598197999905096,932,0.056641,-0.028809,1.05542,2.885496,3.618321,0.198473,1.057331,4.632248,96,161,65,96,1,107.143,13,normal
1780594791.3803282,0.7909645999898203,964,0.05127,0.000977,1.047119,-0.022901,3.885496,-0.938931,1.048374,3.997399,101,168,67,101,0,107.143,1,normal
1780594791.4113693,0.8220058000006247,995,0.045898,-0.042236,1.060059,2.152672,2.59542,-1.099237,1.061892,3.546621,103,173,70,103,1,107.143,14,normal
1780594791.4428482,0.8534846999973524,1026,0.037109,-0.036377,1.05957,2.374046,2.51145,-0.328244,1.060844,3.471487,107,178,71,107,0,107.143,5,normal
1780594791.4742725,0.8849088999995729,1057,0.039307,0.011719,1.062744,0.51145,4.198474,-0.900763,1.063535,4.324366,111,184,73,111,0,107.143,0,normal
1780594791.5041976,0.9148339999956079,1088,0.052734,-0.076904,1.044922,2.236641,2.801527,-0.603053,1.049074,3.635215,113,189,76,113,1,104.0,14,normal
1780594791.5348434,0.9454798999940977,1119,0.047607,-0.004395,1.047119,1.763359,2.610687,-0.381679,1.04821,3.173453,118,196,78,118,0,104.0,1,normal
1780594791.5658362,0.9764727000001585,1149,0.038574,-0.025635,1.058106,0.40458,2.969466,-0.885496,1.059119,3.124982,119,198,79,119,0,104.0,6,normal
1780594791.595658,1.0062943999946583,1180,0.053711,-0.061279,1.051758,3.290076,3.59542,0.145038,1.05491,4.875724,122,203,81,122,1,104.0,14,normal
1780594791.6262538,1.0368902999907732,1210,0.038574,0.010498,1.049072,1.59542,2.229008,-0.992366,1.049834,2.915241,127,210,83,127,0,104.0,0,normal
1780594791.657247,1.0678834999998799,1241,0.041992,-0.049561,1.053223,0.938931,2.778626,-0.931298,1.055224,3.077283,129,214,85,129,0,104.0,1,normal
1780594791.6886888,1.0993251999898348,1272,0.040527,-0.011963,1.057129,3.251908,3.229008,0.083969,1.057973,4.583498,132,218,86,132,0,104.0,5,normal
1780594791.7191403,1.129776599991601,1303,0.060059,0.012207,1.054199,0.541985,3.427481,-1.061069,1.055979,3.628669,136,224,88,136,0,104.0,0,normal
1780594791.750668,1.1613043999968795,1334,0.043701,-0.042236,1.054932,2.557252,2.320611,-0.908397,1.056681,3.570708,138,229,91,138,1,104.0,13,normal
1780594791.781835,1.1924714999913704,1365,0.03833,-0.032715,1.046143,1.900763,2.427481,-0.160305,1.047356,3.087274,143,236,93,143,0,108.303,0,normal
1780594791.8143632,1.224999600002775,1397,0.035889,-0.031494,1.063477,0.320611,2.847328,-1.198473,1.064548,3.105867,145,240,95,145,0,108.303,0,normal
1780594791.847988,1.2586242999968817,1428,0.053711,-0.068115,1.053467,3.114504,2.664122,-0.419847,1.057032,4.119946,148,245,97,148,1,108.303,14,normal
1780594791.8754158,1.2860522999981185,1459,0.039062,0.026367,1.048096,0.900763,2.931298,-0.793893,1.049155,3.167672,151,250,99,151,0,108.303,0,normal
1780594791.9067807,1.317417199999909,1490,0.031494,-0.036377,1.056885,1.267176,2.847328,-1.427481,1.05798,3.427931,153,254,101,153,0,108.303,1,normal
1780594791.9383454,1.348981899995124,1521,0.053467,-0.039795,1.067383,2.557252,2.740458,0.206107,1.069462,3.753948,156,260,104,156,0,108.303,5,normal
1780594791.9686108,1.3792472999921301,1552,0.048096,0.015869,1.069336,0.099237,3.664122,-1.29771,1.070535,3.888405,160,266,106,160,0,108.303,0,normal
1780594792.000055,1.4106916000018828,1583,0.057129,-0.032227,1.053467,2.21374,2.267176,-0.343511,1.055507,3.187277,162,271,109,162,1,108.303,14,normal
1780594792.0302582,1.4408946999901673,1614,0.025879,0.005615,1.054443,1.931298,2.053435,-0.564886,1.054776,2.874996,167,278,111,167,0,108.303,0,normal
1780594792.060894,1.4715303999983007,1645,0.035645,-0.027588,1.063477,0.267176,3.541985,-0.969466,1.064431,3.68197,169,282,113,169,0,92.857,1,normal
1780594792.0926502,1.5032866999972612,1676,0.054688,-0.068359,1.052978,3.152672,3.274809,-0.458015,1.056611,4.568752,171,287,116,171,1,92.857,14,normal
1780594792.1239805,1.5346169999975245,1707,0.043457,0.006592,1.043213,1.022901,2.427481,-1.160305,1.044138,2.878419,176,294,118,176,0,92.857,0,normal
1780594792.154609,1.565245399993728,1738,0.040527,-0.034912,1.055664,1.259542,2.389313,-1.244275,1.057018,2.973799,178,298,120,178,0,92.857,1,normal
1780594792.186945,1.5975813999975799,1769,0.049072,-0.03418,1.072022,2.885496,3.870229,0.290076,1.073688,4.836208,181,304,123,181,0,92.857,5,normal
1780594792.217529,1.6281654999911552,1801,0.047363,0.0271,1.059082,0.473282,3.717557,-0.938931,1.060487,3.863395,185,310,125,185,0,92.857,0,normal
1780594792.2483265,1.6589629999944009,1832,0.040771,-0.07959,1.045898,1.954198,2.770992,-0.458015,1.049714,3.421559,187,315,128,187,1,92.857,13,normal
1780594792.2794428,1.6900792999949772,1863,0.039062,0.005615,1.053467,1.954198,2.175573,-0.70229,1.054206,3.007527,192,322,130,192,0,92.857,0,normal
1780594792.311356,1.7219923999946332,1894,0.03418,-0.034912,1.039551,0.603053,2.977099,-1.427481,1.040698,3.356262,194,326,132,194,0,92.857,0,normal
1780594792.3425908,1.7532271999953082,1925,0.052734,-0.025635,1.059082,3.198473,3.320611,0.091603,1.060704,4.611407,197,331,134,197,1,100.0,14,normal
1780594792.3718433,1.782479699992109,1956,0.049072,-0.006348,1.050781,0.229008,3.29771,-1.19084,1.051946,3.513607,202,338,136,202,0,100.0,0,normal
1780594792.4024587,1.813095199991949,1986,0.03125,-0.0354,1.059082,1.328244,2.618321,-1.328244,1.060134,3.222432,204,342,138,204,0,100.0,1,normal
1780594792.432371,1.8430072999908589,2016,0.045654,-0.016602,1.061768,2.977099,3.641221,0.267176,1.062878,4.710944,208,348,140,208,0,100.0,5,normal
1780594792.462443,1.8730795000010403,2047,0.042969,-0.008057,1.048584,0.541985,3.435115,-1.244275,1.049495,3.693505,212,354,142,212,0,100.0,0,normal
1780594792.4945672,1.9052034999913303,2078,0.042969,-0.048828,1.047852,2.19084,3.175573,-0.900763,1.049868,3.961744,214,359,145,214,1,100.0,13,normal
1780594792.525408,1.936044399990351,2109,0.037354,-0.021729,1.052734,2.167939,2.870229,-0.435114,1.053621,3.623189,219,366,147,219,0,100.0,0,normal
1780594792.5566134,1.967249900000752,2140,0.054688,-0.012451,1.064697,0.175573,3.725191,-1.221374,1.066173,3.924236,221,370,149,221,0,100.0,0,normal
1780594792.5871172,1.9977535999933025,2171,0.044922,-0.084473,1.042725,2.145038,2.694656,-0.374046,1.047105,3.46443,223,375,152,223,1,100.0,14,normal
1780594792.6193461,2.0299824999965494,2202,0.042236,0.021973,1.056885,1.641221,2.183206,-0.816794,1.057957,2.850816,227,380,153,227,0,108.303,6,normal
1780594792.6505945,2.0612309999996796,2233,0.03418,-0.052979,1.055664,0.748092,2.496183,-1.312977,1.057545,2.917958,229,384,155,229,0,108.303,1,normal
1780594792.6796508,2.090287300001364,2264,0.044678,-0.01416,1.058594,2.870229,3.603053,0.282443,1.059631,4.61519,233,390,157,233,0,108.303,5,normal
1780594792.7111435,2.121779900000547,2295,0.042236,-0.008057,1.059326,0.465649,3.267176,-0.877863,1.060198,3.414954,237,396,159,237,0,108.303,0,normal
1780594792.743699,2.154335600003833,2326,0.042236,-0.040771,1.059082,2.290076,2.671756,-0.877863,1.060708,3.626758,239,401,162,239,1,108.303,14,normal
1780594792.7737625,2.1843988000036916,2357,0.039551,-0.02417,1.057129,2.122137,2.503817,-0.099237,1.058145,3.283658,244,408,164,244,0,108.303,0,normal
1780594792.8062754,2.216911900002742,2389,0.041748,-0.034668,1.05957,0.351145,3.358779,-1.282443,1.060959,3.612389,245,410,165,245,0,108.303,5,normal
1780594792.8361712,2.2468074999924283,2420,0.057129,-0.061768,1.051025,2.977099,2.725191,-0.099237,1.054388,4.03728,248,415,167,248,1,108.303,13,normal
1780594792.8682094,2.278845699998783,2451,0.047607,0.026855,1.047363,0.89313,2.374046,-0.870229,1.048789,2.681618,253,422,169,253,0,108.303,0,normal
1780594792.8985882,2.309224600001471,2482,0.032227,-0.032959,1.058838,1.160305,2.167939,-1.480916,1.059841,2.870432,255,426,171,255,0,100.0,1,normal
1780594792.9307292,2.3413655000040308,2513,0.048096,-0.045166,1.056641,2.801527,3.496183,0.167939,1.058698,4.483308,258,430,172,258,0,100.0,5,normal
1780594792.9606416,2.3712779999914346,2544,0.051514,0.002441,1.054199,0.442748,3.740458,-1.312977,1.05546,3.988854,262,436,174,262,0,100.0,0,normal
1780594792.9912453,2.4018818000040483,2575,0.056641,-0.037109,1.049805,2.320611,2.534351,-0.618321,1.051986,3.491488,264,441,177,264,1,100.0,14,normal
1780594793.0230622,2.4336986999987857,2606,0.040527,0.008789,1.054688,1.725191,2.236641,-0.687023,1.055502,2.907034,269,448,179,269,0,100.0,0,normal
1780594793.054184,2.464820299996063,2637,0.042725,-0.040527,1.058594,0.198473,2.854962,-1.091603,1.06023,3.062972,271,452,181,271,0,100.0,0,normal
1780594793.085738,2.496374399997876,2668,0.056885,-0.063232,1.046143,2.877863,3.480916,-0.381679,1.049594,4.53261,274,457,183,274,1,100.0,13,normal
1780594793.1156452,2.526281700003892,2699,0.037598,0.006592,1.046143,0.885496,2.412214,-0.877863,1.046839,2.715423,277,462,185,277,0,100.0,0,normal
1780594793.146852,2.5574883999943268,2730,0.031738,-0.037598,1.052978,1.320611,2.572519,-1.503817,1.054127,3.259345,279,466,187,279,0,100.0,1,normal
1780594793.1780388,2.5886752999940654,2761,0.046875,-0.0354,1.054443,2.694656,3.770992,0.076336,1.056078,4.635448,282,472,190,282,0,96.774,5,normal
1780594793.2104445,2.621080900004017,2793,0.056641,0.026855,1.05542,0.564886,3.854962,-0.969466,1.05728,4.014934,286,478,192,286,0,96.774,0,normal
1780594793.2406201,2.651256500001182,2824,0.037354,-0.052979,1.0354,2.312977,2.503817,-0.381679,1.037428,3.429962,288,483,195,288,1,96.774,13,normal
1780594793.2716703,2.6823067999939667,2855,0.029541,0.003906,1.049561,1.832061,2.091603,-0.793893,1.049983,2.891629,292,488,196,292,0,96.774,5,normal
1780594793.3023655,2.713002000004053,2886,0.026855,-0.034668,1.056396,0.671756,2.801527,-1.229008,1.057306,3.132135,294,492,198,294,0,96.774,0,normal
1780594793.3336759,2.7443121999967843,2917,0.045654,-0.026123,1.054443,3.259542,3.19084,-0.244275,1.055754,4.567904,297,497,200,297,1,96.774,13,normal
1780594793.3634605,2.774096900000586,2948,0.039307,-0.009277,1.047852,0.48855,3.129771,-1.320611,1.04863,3.431932,302,504,202,302,0,96.774,0,normal
1780594793.395767,2.8064034999988507,2979,0.053467,-0.050537,1.061279,1.839695,2.381679,-0.900763,1.063826,3.141376,304,508,204,304,0,96.774,0,normal
1780594793.4266384,2.8372747999965213,3010,0.050293,-0.040527,1.066406,2.40458,2.450382,-0.175573,1.06836,3.437616,309,514,205,309,0,96.774,5,normal
1780594793.4576313,2.8682677000033436,3041,0.052246,0.003418,1.066406,0.473282,3.870229,-1.045802,1.067691,4.036876,313,520,207,313,0,110.714,0,normal
1780594793.489002,2.899638499991852,3072,0.042725,-0.060303,1.044189,2.259542,2.328244,-0.870229,1.046801,3.359099,315,525,210,315,1,110.714,13,normal
1780594793.5186634,2.929299900002661,3103,0.032715,0.002197,1.047363,1.664122,2.244275,-0.427481,1.047876,2.826449,320,532,212,320,0,110.714,1,normal
1780594793.5502553,2.960891700000502,3134,0.023193,-0.030029,1.054199,0.732824,2.70229,-1.236641,1.054882,3.060831,322,536,214,322,0,110.714,0,normal
1780594793.5813563,2.991992700000992,3165,0.043213,-0.032715,1.049561,3.503817,3.51145,0.290076,1.050959,4.96902,326,542,216,326,0,110.714,6,normal
1780594793.6117206,3.0223568999936106,3196,0.031494,-0.000244,1.043213,-0.007634,3.335878,-1.183206,1.043688,3.539508,330,548,218,330,0,110.714,1,normal
1780594793.643662,3.0542983999912394,3226,0.029541,-0.041016,1.050049,1.167939,2.717557,-1.580153,1.051265,3.353518,332,552,220,332,0,110.714,0,normal
1780594793.674847,3.085483299990301,3257,0.045654,-0.033936,1.061279,2.618321,3.259542,-0.183206,1.062803,4.184947,336,558,222,336,0,110.714,6,normal
1780594793.7058568,3.1164931999956025,3288,0.056396,0.027344,1.055664,0.374046,3.832061,-0.679389,1.057523,3.909754,340,564,224,340,0,110.714,0,normal
1780594793.7358575,3.14649400000053,3319,0.057861,-0.032227,1.049561,2.381679,2.618321,-0.748092,1.051648,3.617684,342,569,227,342,1,104.317,13,normal
1780594793.767432,3.1780684999976074,3351,0.028809,0.009277,1.043701,1.625954,2.656489,-0.442748,1.04414,3.1459,347,576,229,347,0,104.317,1,normal
1780594793.7991407,3.2097770999971544,3382,0.032227,-0.033936,1.050537,0.694656,2.656489,-1.374046,1.051579,3.07042,349,580,231,349,0,104.317,0,normal
1780594793.8315158,3.2421520999923814,3414,0.058838,-0.012695,1.069824,2.847328,3.122137,0.030534,1.071516,4.22563,353,586,233,353,0,104.317,6,normal
1780594793.861621,3.272257399992668,3446,0.054443,0.00415,1.054443,0.572519,3.977099,-1.137405,1.055856,4.175977,357,592,235,357,0,104.317,1,normal
1780594793.8936486,3.3042849999910686,3477,0.041748,-0.061035,1.03418,2.137405,2.648855,-0.778626,1.03682,3.491588,359,597,238,359,1,104.317,14,normal
1780594793.924737,3.3353734999982407,3508,0.046875,0.010254,1.053711,1.687023,2.183206,-0.450382,1.054803,2.795582,364,604,240,364,0,104.317,1,normal
1780594793.956116,3.36675249999098,3539,0.036865,-0.029297,1.05835,0.618321,3.145038,-0.938931,1.059397,3.339937,366,608,242,366,0,104.317,1,normal
1780594793.9872172,3.39785349999147,3570,0.042725,-0.023682,1.058838,3.21374,3.427481,-0.022901,1.059964,4.69854,369,613,244,369,1,107.57,14,normal
1780594794.026474,3.4371105000027455,3602,0.047119,-0.003662,1.05127,0.022901,3.641221,-0.984733,1.052331,3.772097,374,620,246,374,0,107.57,0,normal
1780594794.050612,3.4612482999946224,3633,0.055664,-0.038818,1.052002,2.129771,2.877863,-0.938931,1.054188,3.701298,376,625,249,376,1,107.57,13,normal
1780594794.080408,3.4910444999986794,3664,0.039551,-0.03418,1.056396,1.89313,2.480916,-0.282443,1.057689,3.133474,381,632,251,381,0,107.57,0,normal
1780594794.1111887,3.521825000003446,3695,0.046387,-0.008057,1.064941,0.549618,3.541985,-1.305344,1.065982,3.814664,383,636,253,383,0,107.57,0,normal
1780594794.1438346,3.5544709999958286,3726,0.05127,-0.090088,1.043213,2.045802,2.320611,-0.549618,1.04835,3.142072,385,641,256,385,1,107.57,14,normal
1780594794.173507,3.5841433000023244,3757,0.0354,0.005127,1.050293,1.534351,2.206107,-0.80916,1.050902,2.8064,390,648,258,390,0,107.57,0,normal
1780594794.2043934,3.6150299000000814,3787,0.035156,-0.044189,1.059326,0.229008,2.801527,-1.244275,1.06083,3.073958,392,652,260,392,0,107.57,1,normal
1780594794.2347302,3.64536660000158,3818,0.049805,-0.013184,1.061279,3.305344,3.351145,0.259542,1.062529,4.71411,395,657,262,395,1,107.57,14,normal
1780594794.2660966,3.6767330000002403,3849,0.032227,-0.00708,1.053467,0.335878,2.725191,-1.389313,1.053983,3.077283,400,664,264,400,0,111.111,0,normal
1780594794.2969096,3.707545899989782,3880,0.036377,-0.047363,1.058106,1.496183,2.679389,-0.931298,1.059789,3.207024,402,668,266,402,0,111.111,1,normal
1780594794.3288007,3.739437199998065,3911,0.0354,-0.036133,1.056396,2.450382,2.984733,-0.030534,1.057607,3.861856,407,674,267,407,0,111.111,5,normal
1780594794.3598058,3.7704422999959206,3943,0.048096,-0.02002,1.062988,0.167939,3.946565,-0.977099,1.064264,4.069189,411,680,269,411,0,111.111,0,normal
1780594794.3912127,3.8018491999973776,3974,0.048584,-0.080078,1.039062,2.656489,2.717557,-0.412214,1.043276,3.82256,413,685,272,413,1,111.111,13,normal
1780594794.4222744,3.8329108000034466,4006,0.040039,0.000732,1.05127,0.870229,2.450382,-1.137405,1.052032,2.838196,418,692,274,418,0,111.111,1,normal
1780594794.4540365,3.864673000003677,4037,0.037842,-0.048096,1.054443,1.114504,2.458015,-1.351145,1.056218,3.018203,420,696,276,420,0,111.111,0,normal
1780594794.484159,3.8947953000024427,4068,0.038574,-0.034912,1.061035,2.725191,3.19084,0.114504,1.06231,4.197766,424,702,278,424,0,111.111,6,normal
1780594794.5158179,3.926454200001899,4099,0.04126,0.023926,1.057373,0.427481,3.580153,-0.885496,1.058448,3.712726,428,708,280,428,0,112.0,1,normal
1780594794.546926,3.957562499999767,4130,0.029297,-0.052979,1.043945,2.312977,2.603053,-0.587786,1.045699,3.531464,430,713,283,430,1,112.0,14,normal
1780594794.5777314,3.9883677000034368,4161,0.046387,0.006348,1.050293,1.969466,2.396947,-0.29771,1.051336,3.116533,435,720,285,435,0,112.0,1,normal
1780594794.6101692,4.020805599997402,4192,0.042725,-0.024414,1.063232,0.641221,3.305344,-0.969466,1.06437,3.503759,437,724,287,437,0,112.0,1,normal
1780594794.639636,4.0502723999961745,4223,0.0625,-0.025635,1.068848,3.129771,3.19084,-0.236641,1.07098,4.475816,440,729,289,440,1,112.0,14,normal
1780594794.6705527,4.081189199991059,4254,0.048584,-0.006348,1.050781,0.419847,2.763359,-1.328244,1.051923,3.094617,445,736,291,445,0,112.0,0,normal
1780594794.7013917,4.112028199990164,4285,0.04248,-0.029785,1.072022,1.694656,2.251908,-1.038168,1.073276,3.003455,447,740,293,447,0,112.0,0,normal
1780594794.732969,4.143605399993248,4316,0.03833,-0.030762,1.056885,2.358779,3.312977,0.015267,1.058027,4.066926,452,746,294,452,0,112.0,5,normal
1780594794.772531,4.183167399998638,4347,0.046143,0.001465,1.054443,0.465649,4.0,-1.045802,1.055453,4.160592,455,750,295,455,0,112.0,6,normal
1780594794.7938375,4.204473899997538,4377,0.059326,-0.043457,1.042236,2.618321,2.198473,-0.427481,1.044828,3.445523,457,755,298,457,1,104.317,14,normal
1780594794.8257737,4.236410099998466,4409,0.038086,0.010254,1.055664,1.91603,2.251908,-0.374046,1.056401,2.980298,462,762,300,462,0,104.317,0,normal
1780594794.8583443,4.268980699998792,4441,0.040527,-0.045898,1.064453,0.755725,2.496183,-1.343511,1.066213,2.933781,464,766,302,464,0,104.317,1,normal
1780594794.8891926,4.2998289999959525,4472,0.043213,-0.008545,1.062988,3.244275,3.541985,-0.152672,1.063901,4.805651,468,772,304,468,0,104.317,5,normal
1780594794.9199734,4.330609700002242,4503,0.039551,-0.01416,1.050537,-0.061069,3.221374,-1.236641,1.051377,3.451125,472,778,306,472,0,104.317,0,normal
1780594794.950517,4.3611532999930205,4534,0.047607,-0.026611,1.05249,2.549618,2.221374,-0.557252,1.053902,3.427183,473,781,308,473,1,104.317,18,normal
1780594794.9814641,4.392100600001868,4565,0.045898,-0.009033,1.051025,2.221374,3.061069,-0.022901,1.052066,3.782218,478,788,310,478,0,104.317,0,normal
1780594795.0131686,4.423805099999299,4596,0.057861,-0.013184,1.068359,0.587786,3.435115,-1.206107,1.070006,3.687845,480,792,312,480,0,104.317,0,normal
1780594795.0431314,4.4537676999898395,4627,0.060547,-0.085205,1.044922,2.29771,2.78626,-0.458015,1.050137,3.640397,482,797,315,482,1,100.0,13,normal
1780594795.0726426,4.483278999992763,4657,0.034912,0.007324,1.053955,1.78626,2.19084,-0.381679,1.054558,2.852399,485,802,317,485,0,100.0,0,normal
1780594795.1052644,4.51590079999005,4688,0.04541,-0.046387,1.058594,0.572519,2.854962,-1.259542,1.060582,3.172543,487,806,319,487,0,100.0,0,normal
1780594795.1364381,4.54707449999114,4719,0.053955,-0.020996,1.066894,3.618321,3.526718,-0.061069,1.068464,5.05309,490,811,321,490,1,100.0,14,normal
1780594795.1666439,4.577280299999984,4750,0.054199,-0.002441,1.051514,0.534351,3.007634,-1.175572,1.052912,3.273127,495,818,323,495,0,100.0,0,normal
1780594795.1980042,4.608640699996613,4781,0.042725,-0.040527,1.057861,1.625954,2.503817,-1.129771,1.059499,3.192054,497,822,325,497,0,100.0,1,normal
1780594795.2288551,4.639491599999019,4812,0.037598,-0.031006,1.057861,2.137405,2.572519,-0.167939,1.058983,3.348814,502,828,326,502,0,100.0,5,normal
1780594795.259338,4.669974399992498,4843,0.045166,-0.000977,1.069092,0.59542,3.801527,-0.687023,1.070046,3.908725,504,832,328,504,0,100.0,0,normal
1780594795.2915347,4.702171199998702,4874,0.031006,-0.069824,1.04834,2.198473,2.412214,-0.412214,1.05112,3.289678,506,837,331,506,1,100.0,13,normal
1780594795.322444,4.733080499994685,4905,0.033691,0.011475,1.059326,1.740458,2.503817,-0.748092,1.059924,3.139735,511,844,333,511,0,104.317,0,normal
1780594795.352897,4.763533399993321,4936,0.021729,-0.041016,1.048828,0.480916,2.458015,-1.137405,1.049855,2.750783,513,848,335,513,0,104.317,0,normal
1780594795.3833601,4.793996499996865,4967,0.05835,-0.022705,1.056885,3.167939,3.717557,-0.015267,1.058738,4.884291,516,853,337,516,1,104.317,13,normal
1780594795.4141772,4.824813600003836,4998,0.040039,-0.004639,1.050293,0.320611,2.954198,-1.389313,1.051066,3.280285,520,858,338,520,0,104.317,6,normal
1780594795.4464462,4.85708249999152,5029,0.046387,-0.047852,1.050781,1.961832,2.526718,-0.900763,1.052893,3.323321,522,862,340,522,0,104.317,1,normal
1780594795.4777253,4.888361599994823,5060,0.033936,-0.028564,1.061768,2.251908,2.854962,-0.19084,1.062694,3.641198,527,868,341,527,0,104.317,5,normal
1780594795.5097966,4.920432999992045,5092,0.048096,-0.013916,1.067383,0.267176,3.862595,-0.938931,1.068556,3.984045,531,874,343,531,0,104.317,0,normal
1780594795.5408301,4.951466500002425,5124,0.065674,-0.039551,1.050781,3.152672,2.824427,-0.312977,1.053574,4.244371,533,879,346,533,1,104.317,13,normal
1780594795.5713305,4.981966999999713,5155,0.048584,0.009033,1.049072,0.580153,2.496183,-0.984733,1.050236,2.745397,538,886,348,538,0,108.0,0,normal
1780594795.6032422,5.013878600002499,5186,0.03833,-0.046631,1.056641,1.351145,2.641221,-1.343511,1.058363,3.256788,540,890,350,540,0,108.0,0,normal
1780594795.633338,5.043974300002446,5217,0.044678,-0.036133,1.06543,3.038168,3.40458,0.122137,1.066978,4.564707,543,896,353,543,0,108.0,5,normal
1780594795.6637025,5.074338799997349,5247,0.055664,-0.009766,1.046875,0.603053,3.328244,-1.007634,1.048399,3.529336,547,902,355,547,0,108.0,0,normal
1780594795.6950326,5.105668999996851,5278,0.047852,-0.031494,1.063477,2.412214,2.916031,-0.885496,1.065018,3.886658,549,907,358,549,1,108.0,13,normal
1780594795.7258992,5.136535700003151,5309,0.04541,-0.027344,1.054443,2.183206,2.633588,-0.381679,1.055775,3.442071,554,914,360,554,0,108.0,1,normal
1780594795.7564943,5.167130699992413,5340,0.045166,-0.006104,1.060303,0.526718,3.984733,-1.053435,1.061282,4.155148,556,918,362,556,0,108.0,0,normal
1780594795.7884932,5.199129499989795,5371,0.042725,-0.087891,1.05127,2.099237,2.732824,-0.480916,1.055802,3.479426,558,923,365,558,1,108.0,13,normal
1780594795.8185456,5.229181899994728,5402,0.029053,0.015625,1.047119,1.290076,2.458015,-0.916031,1.047638,2.923226,563,930,367,563,0,108.0,0,normal
1780594795.850893,5.261529399998835,5433,0.033691,-0.049072,1.050537,0.48855,2.320611,-1.328244,1.052222,2.718115,565,934,369,565,0,97.122,1,normal
1780594795.8816438,5.292280099994969,5464,0.057373,-0.014404,1.06543,3.167939,3.900763,-0.328244,1.067071,5.035825,569,940,371,569,0,97.122,5,normal
1780594795.916567,5.327203399996506,5496,0.05249,0.018066,1.060547,0.694656,3.862595,-0.992366,1.061999,4.048084,573,946,373,573,0,97.122,0,normal
1780594795.949297,5.359933300002012,5527,0.04126,-0.039307,1.039551,2.389313,2.480916,-0.618321,1.041112,3.49944,575,951,376,575,1,97.122,14,normal
1780594795.9808016,5.391437899990706,5564,0.067139,0.016602,1.057129,0.664122,3.717557,-1.076336,1.059389,3.926804,580,958,378,580,0,97.122,1,normal
1780594796.0127592,5.4233956999960355,5595,0.031006,-0.06543,1.039551,2.183206,2.587786,-0.503817,1.042069,3.422989,582,963,381,582,1,97.122,14,normal
1780594796.0430357,5.453672100004042,5626,0.032715,0.023926,1.051025,1.969466,2.206107,-0.312977,1.051807,2.973829,587,970,383,587,0,97.122,0,normal
1780594796.0738075,5.484444000001531,5657,0.039795,-0.039307,1.049561,0.259542,3.557252,-1.160305,1.05105,3.750695,589,974,385,589,0,97.122,0,normal
1780594796.1036868,5.514323199997307,5687,0.047607,-0.084473,1.046875,2.427481,3.198473,0.038168,1.051356,4.015514,591,979,388,591,1,102.362,14,normal
1780594796.13523,5.545866500004195,5718,0.040039,0.015869,1.050537,0.900763,2.816794,-1.152672,1.05142,3.174012,596,986,390,596,0,102.362,1,normal
1780594796.166183,5.576819399997476,5749,0.022461,-0.038818,1.053467,1.167939,2.351145,-1.541985,1.054421,3.044615,598,990,392,598,0,102.362,0,normal
1780594796.1974626,5.608098900003824,5780,0.045166,-0.01123,1.06543,2.916031,3.137405,0.022901,1.066446,4.283348,602,996,394,602,0,102.362,6,normal
1780594796.2286716,5.63930789999722,5812,0.044678,0.01416,1.058594,0.59542,3.931298,-0.900763,1.059631,4.076886,606,1002,396,606,0,102.362,1,normal
1780594796.2600195,5.670655900001293,5843,0.0271,-0.058105,1.048584,2.412214,2.625954,-0.358779,1.050542,3.583732,608,1007,399,608,1,102.362,14,normal
1780594796.2906964,5.70133270000224,5874,0.031982,0.007568,1.044678,1.755725,2.259542,-0.10687,1.045194,2.863481,613,1014,401,613,0,102.362,1,normal
1780594796.3224275,5.733064000000013,5905,0.029297,-0.030518,1.062012,0.389313,3.328244,-1.251908,1.062854,3.577156,615,1018,403,615,0,102.362,0,normal
1780594796.3535616,5.764198099990608,5936,0.05835,-0.031494,1.058838,3.305344,3.229008,0.114504,1.060912,4.622218,618,1023,405,618,1,102.362,14,normal
1780594796.3835142,5.794150699992315,5967,0.049561,-0.009033,1.042969,0.671756,2.816794,-1.236641,1.044185,3.148788,621,1028,407,621,0,107.143,0,normal
1780594796.414644,5.8252804999938235,5997,0.025391,-0.037109,1.05542,1.137405,2.717557,-1.167939,1.056377,3.169052,623,1032,409,623,0,107.143,0,normal
1780594796.4457529,5.856389299995499,6028,0.045898,-0.018066,1.06665,2.847328,3.076336,0.160305,1.06779,4.194856,627,1038,411,627,0,107.143,6,normal
1780594796.4758523,5.886488699994516,6059,0.039062,-0.002197,1.043457,0.687023,3.503817,-0.992366,1.04419,3.705877,631,1044,413,631,0,107.143,0,normal
1780594796.5074794,5.918115799999214,6090,0.054443,-0.059082,1.041016,2.061069,2.641221,-0.458015,1.044111,3.381395,633,1049,416,633,1,107.143,14,normal
1780594796.5385444,5.94918090000283,6122,0.036377,0.004639,1.048828,1.778626,2.152672,-0.694656,1.049469,2.877508,637,1054,417,637,0,107.143,6,normal
1780594796.570602,5.9812382999953115,6153,0.033447,-0.052002,1.03833,0.381679,2.664122,-1.450382,1.040169,3.057259,639,1058,419,639,0,107.143,1,normal
1780594796.6008558,6.011492299992824,6184,0.05127,-0.023926,1.056641,3.366412,3.572519,0.198473,1.058154,4.91274,642,1063,421,642,1,107.143,14,normal
1780594796.6316233,6.0422598000004655,6215,0.037598,-0.000977,1.053223,0.236641,3.282443,-1.610687,1.053894,3.663979,647,1070,423,647,0,107.143,0,normal
1780594796.6632214,6.073857800001861,6246,0.044678,-0.053223,1.044678,1.618321,2.763359,-0.977099,1.046986,3.34811,648,1072,424,648,0,96.774,5,normal
1780594796.694137,6.104773600003682,6277,0.04541,-0.038818,1.061768,2.236641,3.21374,-0.076336,1.063447,3.916186,653,1078,425,653,0,96.774,5,normal
1780594796.725835,6.136471499994514,6308,0.05835,0.011475,1.062012,0.969466,3.916031,-1.076336,1.063675,4.175363,656,1082,426,656,0,96.774,6,normal
1780594796.756866,6.167502399999648,6340,0.064697,-0.067139,1.049805,2.412214,2.793893,-0.389313,1.053937,3.711628,658,1087,429,658,1,96.774,13,normal
1780594796.78885,6.1994865000015125,6371,0.055176,0.019043,1.046631,1.412214,2.908397,-0.465649,1.048257,3.266489,663,1094,431,663,0,96.774,1,normal
1780594796.8189368,6.229573299991898,6402,0.039307,-0.056396,1.05957,0.984733,2.48855,-1.305344,1.061798,2.977667,665,1098,433,665,0,96.774,0,normal
1780594796.8615446,6.272180999992997,6433,0.055664,-0.021973,1.060791,3.351145,3.770992,0.267176,1.062478,5.051924,668,1102,434,668,0,96.774,5,normal
1780594796.880381,6.291017499999725,6464,0.045654,-0.004395,1.055664,0.152672,3.40458,-0.877863,1.05666,3.51925,672,1108,436,672,0,96.774,0,normal
1780594796.9102514,6.320887900001253,6494,0.043701,-0.044922,1.059326,1.687023,3.015267,-1.10687,1.061178,3.628091,674,1112,438,674,0,96.774,1,normal
1780594796.941759,6.352395599998999,6525,0.049561,-0.034912,1.062256,2.442748,2.793893,0.030534,1.063984,3.711306,679,1118,439,679,0,111.111,5,normal
1780594796.9739444,6.384580899990397,6557,0.044434,-0.019043,1.054932,0.259542,3.839695,-1.038168,1.056039,3.986027,683,1124,441,683,0,111.111,0,normal
1780594797.0043552,6.414991700003156,6588,0.057861,-0.065918,1.047852,2.175573,2.519084,0.091603,1.051516,3.329758,685,1129,444,685,1,111.111,13,normal
1780594797.0363133,6.446949799996219,6619,0.044434,0.023682,1.052002,1.519084,2.358779,-0.931298,1.053206,2.956141,688,1134,446,688,0,111.111,1,normal
1780594797.0678601,6.478496600000653,6650,0.034912,-0.067383,1.053711,0.603053,2.549618,-1.290076,1.05644,2.920364,690,1138,448,690,0,111.111,0,normal
1780594797.0978463,6.508482699995511,6681,0.064453,-0.022949,1.05835,3.435115,3.664122,-0.061069,1.060559,5.0229,694,1144,450,694,0,111.111,6,normal
1780594797.1287146,6.539350899998681,6712,0.043213,0.01001,1.055908,0.465649,3.114504,-1.267176,1.05684,3.39451,698,1150,452,698,0,111.111,0,normal
1780594797.1600704,6.570706799990148,6743,0.048828,-0.029297,1.056152,1.992366,2.351145,-1.007634,1.057686,3.242334,700,1155,455,700,1,111.111,14,normal
1780594797.1917207,6.60235709999688,6775,0.041016,0.008789,1.053955,1.923664,2.022901,-0.343511,1.054789,2.812581,704,1160,456,704,0,100.0,5,normal
1780594797.222402,6.633038599989959,6806,0.050537,-0.023682,1.056641,0.549618,3.473282,-0.946565,1.058114,3.641669,706,1164,458,706,0,100.0,0,normal
1780594797.2541473,6.66478379999171,6837,0.054199,-0.025146,1.055176,3.251908,3.007634,-0.083969,1.056866,4.43033,709,1169,460,709,1,100.0,13,normal
1780594797.2842605,6.694896899993182,6868,0.050781,0.002197,1.053955,0.824427,2.763359,-1.412214,1.05518,3.210947,714,1176,462,714,0,100.0,1,normal
1780594797.3160145,6.726650999989943,6898,0.040527,-0.053955,1.053955,1.022901,2.496183,-1.48855,1.056113,3.081077,716,1180,464,716,0,100.0,0,normal
1780594797.3458986,6.756534999993164,6929,0.058838,-0.019531,1.058106,3.366412,3.557252,0.167939,1.05992,4.900508,720,1186,466,720,0,100.0,6,normal
1780594797.3769689,6.78760529999272,6960,0.050537,0.000732,1.055664,0.335878,2.969466,-1.129771,1.056873,3.194828,724,1192,468,724,0,100.0,1,normal
1780594797.4075153,6.818151699990267,6991,0.055908,-0.035156,1.051514,2.221374,2.80916,-1.0,1.053586,3.718317,726,1197,471,726,1,100.0,14,normal
1780594797.4382274,6.848863799998071,7021,0.052734,-0.036377,1.066406,2.099237,3.167939,-0.496183,1.068329,3.832601,730,1202,472,730,0,100.0,5,normal
1780594797.470067,6.8807033999910345,7052,0.05127,0.002686,1.057129,0.78626,3.717557,-0.78626,1.058375,3.880289,734,1208,474,734,0,108.303,0,normal
1780594797.5006518,6.91128819998994,7083,0.037842,-0.082275,1.047363,1.885496,2.236641,-0.526718,1.051271,2.972388,736,1213,477,736,1,108.303,13,normal
1780594797.531033,6.94166939999559,7114,0.029785,0.011963,1.045654,1.923664,2.274809,-0.282443,1.046147,2.992493,741,1220,479,741,0,108.303,1,normal
1780594797.5624824,6.973118699999759,7145,0.033936,-0.053467,1.043701,0.534351,3.076336,-1.534351,1.045621,3.479024,743,1224,481,743,0,108.303,0,normal
1780594797.5930526,7.003689099990879,7176,0.047119,-0.0271,1.051758,3.099237,3.923664,0.480916,1.053162,5.023115,746,1229,483,746,1,108.303,13,normal
1780594797.6244829,7.035119299995131,7207,0.042969,-0.008301,1.047607,0.244275,3.320611,-1.007634,1.048521,3.478714,751,1236,485,751,0,108.303,0,normal
1780594797.656196,7.066832500000601,7238,0.051025,-0.042725,1.053711,2.229008,2.580153,-1.152672,1.05581,3.59921,753,1241,488,753,1,108.303,14,normal
1780594797.6873307,7.097967099995003,7270,0.031006,-0.026123,1.056641,2.435115,2.618321,-0.061069,1.057418,3.576187,758,1248,490,758,0,108.303,1,normal
1780594797.7194855,7.130122000002302,7302,0.039551,-0.028076,1.054199,0.549618,3.114504,-0.916031,1.055314,3.292617,760,1252,492,760,0,104.0,0,normal
1780594797.750834,7.16147049999563,7333,0.05835,-0.025879,1.056885,3.351145,2.80916,-0.221374,1.05881,4.37842,763,1257,494,763,1,104.0,13,normal
1780594797.7790399,7.1896762999967905,7364,0.057129,-0.00293,1.050537,0.549618,2.847328,-1.0,1.052093,3.067468,768,1264,496,768,0,104.0,1,normal
1780594797.811714,7.222350299998652,7394,0.029297,-0.042725,1.062256,1.259542,2.633588,-1.305344,1.063518,3.197836,770,1268,498,770,0,104.0,0,normal
1780594797.8421538,7.252790300000925,7425,0.059326,-0.018311,1.063965,3.366412,3.381679,-0.015267,1.065775,4.771658,774,1274,500,774,0,104.0,6,normal
1780594797.872978,7.283614400002989,7456,0.051758,0.004639,1.058106,0.114504,3.541985,-0.954198,1.059381,3.67005,778,1280,502,778,0,104.0,1,normal
1780594797.9043093,7.314945699996315,7487,0.047119,-0.043701,1.046631,2.259542,2.236641,-0.839695,1.048602,3.28834,780,1285,505,780,1,104.0,14,normal
1780594797.9387534,7.349389800001518,7518,0.03418,-0.018311,1.063232,2.40458,2.610687,-0.389313,1.063939,3.57061,785,1292,507,785,0,104.0,0,normal
1780594797.965503,7.376139500003774,7549,0.046143,-0.002441,1.070068,-0.030534,3.992366,-1.053435,1.071065,4.129122,787,1296,509,787,0,104.0,0,normal
1780594797.9979649,7.408601299990551,7580,0.041992,-0.090332,1.046387,2.534351,2.709924,-0.19084,1.051118,3.715244,789,1301,512,789,1,104.317,14,normal
1780594798.0279393,7.438575799998944,7611,0.047119,0.015137,1.053223,1.038168,2.763359,-0.854962,1.054385,3.073256,794,1308,514,794,0,104.317,1,normal
1780594798.0599809,7.470617200000561,7642,0.042969,-0.056152,1.050537,0.992366,2.534351,-1.320611,1.052914,3.025184,796,1312,516,796,0,104.317,0,normal
1780594798.0916712,7.502307599992491,7674,0.047607,-0.042236,1.070312,2.618321,3.450382,-0.061069,1.072203,4.331797,800,1318,518,800,0,104.317,6,normal
1780594798.1224186,7.533054999992601,7705,0.043701,0.001709,1.062256,0.290076,3.977099,-1.007634,1.063156,4.113002,804,1324,520,804,0,104.317,1,normal
1780594798.1535623,7.564198699998087,7736,0.033203,-0.066895,1.037354,2.312977,2.908397,-0.496183,1.040038,3.748978,805,1327,522,805,1,104.317,17,normal
1780594798.1864312,7.597067599999718,7768,0.048096,0.013672,1.049316,1.709924,2.358779,-0.320611,1.050507,2.93095,810,1334,524,810,0,104.317,0,normal
1780594798.217209,7.627845600000001,7800,0.024902,-0.052734,1.055176,1.152672,2.419847,-1.580153,1.056786,3.111462,812,1338,526,812,0,104.317,0,normal
1780594798.2496784,7.660314799999469,7831,0.053467,-0.043701,1.06543,2.78626,3.725191,0.129771,1.067665,4.653722,816,1344,528,816,0,107.57,6,normal
1780594798.2786696,7.689306100000977,7863,0.038818,-0.005371,1.064697,0.0,3.519084,-0.778626,1.065418,3.604194,818,1348,530,818,0,107.57,0,normal
1780594798.3108392,7.721475600003032,7893,0.062256,-0.045898,1.047607,2.198473,2.221374,-0.763359,1.050459,3.21722,820,1353,533,820,1,107.57,14,normal
1780594798.3420188,7.752655299991602,7924,0.042725,-0.017578,1.057617,2.259542,2.335878,-0.564886,1.058626,3.298628,825,1360,535,825,0,107.57,1,normal
1780594798.3725016,7.783138099999633,7956,0.02417,-0.024658,1.043701,0.740458,3.076336,-1.221374,1.044272,3.391736,827,1364,537,827,0,107.57,1,normal
1780594798.4050097,7.815646100003505,7987,0.054199,-0.030029,1.042725,3.358779,3.816794,0.091603,1.044564,5.085047,830,1369,539,830,1,107.57,14,normal
1780594798.4364738,7.847110200003954,8018,0.056641,-0.008789,1.047363,0.152672,3.435115,-1.061069,1.04893,3.598498,834,1374,540,834,0,107.57,6,normal
1780594798.466021,7.876657400003751,8049,0.034668,-0.032715,1.05835,1.503817,2.89313,-1.21374,1.059422,3.4792,836,1378,542,836,0,107.57,0,normal
1780594798.49812,7.908756499993615,8080,0.042725,-0.029297,1.061523,2.526718,3.458015,-0.122137,1.062787,4.284518,841,1384,543,841,0,107.57,6,normal
1780594798.5282216,7.93885799999407,8111,0.057617,0.006348,1.067627,0.351145,4.0229,-1.122137,1.069199,4.191208,845,1390,545,845,0,103.571,1,normal
1780594798.5605142,7.971150700002909,8142,0.026855,-0.062256,1.041016,2.229008,2.343511,-0.557252,1.043221,3.281928,847,1395,548,847,1,103.571,14,normal
1780594798.5908442,8.001480499995523,8174,0.029297,0.003418,1.040283,1.419847,2.89313,-0.557252,1.040701,3.27058,852,1402,550,852,0,103.571,0,normal
1780594798.622746,8.033382299996447,8205,0.032227,-0.041016,1.046875,0.801527,2.496183,-1.51145,1.048174,3.026195,854,1406,552,854,0,103.571,1,normal
1780594798.6541436,8.064780100001371,8236,0.056152,-0.025635,1.061768,3.221374,3.694656,0.137405,1.06356,4.903735,858,1412,554,858,0,103.571,5,normal
1780594798.6855638,8.096200200001476,8268,0.056396,0.014404,1.054443,0.633588,3.526718,-0.824427,1.056049,3.676799,862,1418,556,862,0,103.571,0,normal
1780594798.7170963,8.127732699998887,8299,0.049072,-0.027588,1.054199,2.328244,2.557252,-0.473282,1.055701,3.490595,864,1423,559,864,1,103.571,14,normal
1780594798.7472615,8.157897900004173,8331,0.027344,0.008057,1.046875,2.145038,2.061069,0.007634,1.047263,2.974769,869,1430,561,869,0,103.571,0,normal
1780594798.7788832,8.189519699997618,8362,0.033936,-0.046875,1.05542,0.572519,3.076336,-1.320611,1.057005,3.396415,871,1434,563,871,0,103.586,1,normal
1780594798.8114507,8.222087200003443,8393,0.046143,-0.03833,1.052978,3.328244,3.328244,-0.030534,1.054686,4.706948,874,1439,565,874,1,103.586,14,normal
1780594798.8414876,8.252124099992216,8425,0.045654,-0.004883,1.052246,0.335878,3.419847,-0.923664,1.053247,3.558276,879,1446,567,879,0,103.586,0,normal
1780594798.873099,8.28373539999302,8456,0.047607,-0.043457,1.064697,2.21374,2.78626,-0.694656,1.066647,3.625802,881,1451,570,881,1,103.586,13,normal
1780594798.9057794,8.316415799999959,8488,0.032227,0.015381,1.055664,1.992366,2.572519,-0.29771,1.056268,3.267416,886,1458,572,886,0,103.586,0,normal
1780594798.938015,8.348651399996015,8520,0.036133,-0.04248,1.052246,0.480916,2.847328,-1.496183,1.053723,3.252249,888,1462,574,888,0,103.586,0,normal
1780594798.984998,8.395634500004235,8551,0.053955,-0.030273,1.060059,3.229008,3.610687,0.038168,1.061862,4.84407,891,1467,576,891,1,103.586,13,normal
1780594798.9989958,8.409632099996088,8582,0.049805,-0.003662,1.049072,0.419847,3.343511,-1.099237,1.05026,3.544526,896,1474,578,896,0,103.586,0,normal
1780594799.031231,8.44186739998986,8613,0.04541,-0.040283,1.063721,2.587786,2.694656,-0.832061,1.065451,3.82755,898,1479,581,898,1,107.57,14,normal
1780594799.0625596,8.47319599999173,8645,0.037354,-0.018555,1.058838,1.969466,2.51145,-0.290076,1.059659,3.204734,903,1486,583,903,0,107.57,1,normal
1780594799.0947716,8.505408099998021,8677,0.029541,-0.030273,1.05249,0.534351,2.763359,-1.152672,1.05334,3.041436,905,1490,585,905,0,107.57,0,normal
1780594799.1256104,8.536246799994842,8708,0.056885,-0.044678,1.053467,3.351145,3.717557,0.015267,1.055947,5.005061,908,1495,587,908,1,107.57,14,normal
1780594799.155108,8.565744299994549,8739,0.051758,-0.006104,1.050049,0.755725,3.022901,-0.977099,1.051341,3.265543,913,1502,589,913,0,107.57,0,normal
1780594799.1870787,8.597715199997765,8770,0.043945,-0.030029,1.056885,1.740458,2.480916,-1.076336,1.058224,3.215997,915,1506,591,915,0,107.57,0,normal
1780594799.2177253,8.628361600000062,8801,0.053711,-0.04248,1.063477,2.877863,2.847328,-0.389313,1.065679,4.067055,919,1512,593,919,0,107.57,6,normal
1780594799.2486346,8.659270899996045,8832,0.057373,0.026123,1.068115,0.061069,3.687023,-0.931298,1.069974,3.803312,923,1518,595,923,0,107.57,0,normal
1780594799.279859,8.69049539999105,8863,0.02417,-0.066895,1.049072,2.221374,2.450382,-0.618321,1.051481,3.364698,925,1523,598,925,1,108.0,13,normal
1780594799.3104255,8.72106189999613,8894,0.028564,-0.000488,1.052246,2.122137,2.29771,-0.259542,1.052634,3.138519,930,1530,600,930,0,108.0,0,normal
1780594799.340589,8.751225500003784,8924,0.043457,-0.014648,1.06665,0.167939,2.603053,-1.59542,1.067636,3.057688,932,1534,602,932,0,108.0,0,normal
1780594799.3713877,8.782024100000854,8955,0.061279,-0.067627,1.048584,3.022901,3.854962,-0.229008,1.052548,4.904192,934,1539,605,934,1,108.0,14,normal
1780594799.4010854,8.811721899997792,8986,0.037842,0.001953,1.043701,0.725191,2.519084,-1.0,1.044389,2.805653,939,1546,607,939,0,108.0,1,normal
1780594799.4333732,8.844009599997662,9016,0.040283,-0.055176,1.048828,0.625954,2.641221,-1.465649,1.051051,3.084801,941,1550,609,941,0,108.0,0,normal
1780594799.4646091,8.875245599992923,9047,0.045166,-0.020996,1.058594,2.923664,3.419847,0.160305,1.059765,4.502096,945,1556,611,945,0,108.0,6,normal
1780594799.4943337,8.904970199990203,9078,0.048096,-0.00708,1.043457,0.312977,3.229008,-1.229008,1.044589,3.469136,949,1562,613,949,0,108.0,1,normal
1780594799.5265205,8.937156999993022,9109,0.05542,-0.04541,1.053223,2.061069,2.40458,-0.755725,1.055657,3.255938,951,1567,616,951,1,108.0,14,normal
1780594799.5585487,8.969184999994468,9140,0.041016,-0.015625,1.057129,1.900763,2.748092,-0.335878,1.05804,3.358232,956,1574,618,956,0,111.913,1,normal
1780594799.5894763,9.000112800000352,9172,0.027588,-0.024902,1.05249,0.282443,3.114504,-1.282443,1.053146,3.380025,958,1578,620,958,0,111.913,0,normal
1780594799.620795,9.031431399998837,9203,0.044678,-0.023193,1.055176,3.450382,3.503817,0.305344,1.056376,4.926976,961,1583,622,961,1,111.913,14,normal
1780594799.6527195,9.063355999998748,9235,0.056396,-0.00708,1.045166,0.618321,3.389313,-0.854962,1.04671,3.54975,966,1590,624,966,0,111.913,0,normal
1780594799.6840513,9.09468769999512,9266,0.049805,-0.036133,1.052246,2.458015,2.480916,-0.748092,1.054044,3.571614,968,1595,627,968,1,111.913,13,normal
1780594799.713817,9.124453299999004,9297,0.029297,-0.036865,1.061035,2.29771,2.625954,-0.167939,1.06208,3.493324,973,1602,629,973,0,111.913,0,normal
1780594799.7445107,9.155146999997669,9328,0.046387,0.0,1.063721,0.633588,3.603053,-1.053435,1.064732,3.806987,975,1606,631,975,0,111.913,0,normal
1780594799.7773106,9.187947099999292,9359,0.059082,-0.07959,1.05542,2.206107,2.89313,-0.526718,1.060064,3.676213,977,1611,634,977,1,111.913,13,normal
1780594799.807409,9.218045399989933,9390,0.04126,0.016846,1.049805,1.664122,2.931298,-0.89313,1.05075,3.487046,982,1618,636,982,0,104.0,0,normal
1780594799.8388608,9.249497099997825,9421,0.036865,-0.05835,1.053711,0.763359,2.343511,-1.419847,1.055969,2.844421,984,1622,638,984,0,104.0,0,normal
1780594799.8700943,9.280730799990124,9452,0.060303,-0.025635,1.061279,3.236641,3.396947,0.053435,1.0633,4.692328,988,1628,640,988,0,104.0,6,normal
1780594799.900209,9.310845400003018,9483,0.051758,0.008057,1.05127,0.061069,3.557252,-0.916031,1.052574,3.67381,992,1634,642,992,0,104.0,0,normal
1780594799.9359481,9.346584600003553,9514,0.046875,-0.021973,1.053467,2.267176,2.450382,-0.221374,1.054738,3.345663,994,1639,645,994,1,104.0,14,normal
1780594799.9626648,9.373301300001913,9546,0.052002,0.009277,1.056152,1.870229,2.358779,-0.59542,1.057472,3.06857,999,1646,647,999,0,104.0,1,normal
1780594799.9939234,9.404559899994638,9577,0.054688,-0.028076,1.060059,0.29771,3.274809,-1.10687,1.061839,3.469606,1001,1650,649,1001,0,104.0,0,normal
1780594800.0256243,9.43626079999376,9608,0.048828,-0.033691,1.049072,3.19084,2.854962,-0.274809,1.050748,4.29043,1004,1655,651,1004,1,104.0,13,normal
1780594800.055297,9.46593330000178,9639,0.041504,-0.002441,1.051514,0.694656,2.969466,-1.167939,1.052335,3.265633,1009,1662,653,1009,0,104.0,0,normal
1780594800.087139,9.497775199997704,9670,0.038086,-0.036621,1.058106,1.519084,2.732824,-1.099237,1.059424,3.314252,1011,1666,655,1011,0,103.571,0,normal
1780594800.1186604,9.529296799999429,9701,0.041992,-0.039062,1.065186,2.580153,3.099237,-0.007634,1.066728,4.032681,1015,1672,657,1015,0,103.571,6,normal
1780594800.1494534,9.560089799997513,9732,0.036621,0.000977,1.068359,0.267176,3.603053,-0.977099,1.068987,3.74274,1019,1678,659,1019,0,103.571,1,normal
1780594800.180496,9.591132499990636,9763,0.039062,-0.079346,1.037109,2.259542,2.572519,-0.358779,1.040873,3.442689,1021,1683,662,1021,1,103.571,14,normal
1780594800.2118955,9.622531899993191,9794,0.044922,0.006836,1.057373,1.839695,2.099237,-0.251908,1.058349,2.802629,1026,1690,664,1026,0,103.571,1,normal
1780594800.2422016,9.652837999994517,9825,0.040527,-0.037598,1.05249,0.564886,2.763359,-1.40458,1.053941,3.150888,1028,1694,666,1028,0,103.571,1,normal
1780594800.2743192,9.68495549999352,9857,0.058594,-0.018066,1.070801,3.59542,3.679389,0.099237,1.072555,5.145366,1032,1700,668,1032,0,103.571,5,normal
1780594800.304891,9.715527499996824,9888,0.056152,-0.008057,1.041748,0.030534,3.832061,-1.259542,1.043291,4.033866,1036,1706,670,1036,0,103.571,0,normal
1780594800.3371923,9.747828799998388,9919,0.055176,-0.037598,1.051514,2.282443,2.244275,-0.854962,1.053631,3.313197,1038,1711,673,1038,1,103.571,13,normal
1780594800.3684826,9.779118899998139,9951,0.037598,0.004395,1.053467,2.022901,2.48855,-0.374046,1.054147,3.228764,1043,1718,675,1043,0,113.879,1,normal
1780594800.3989863,9.80962269999145,9982,0.051514,-0.004883,1.057373,0.358779,2.916031,-1.122137,1.058638,3.14502,1045,1722,677,1045,0,113.879,0,normal
1780594800.4297302,9.840366499993252,10013,0.05957,-0.03125,1.05249,2.977099,2.664122,-0.48855,1.054638,4.024842,1047,1727,680,1047,1,113.879,13,normal
1780594800.4605584,9.871194899998954,10043,0.036133,0.010498,1.039307,1.603053,2.816794,-0.496183,1.039987,3.278766,1052,1734,682,1052,0,113.879,0,normal
1780594800.491708,9.902344399990398,10074,0.032471,-0.048584,1.053467,0.854962,2.442748,-1.381679,1.055086,2.933772,1054,1738,684,1054,0,113.879,0,normal
1780594800.5229576,9.933594100002665,10105,0.060791,-0.033203,1.068604,3.114504,3.648855,0.19084,1.070846,4.801114,1058,1744,686,1058,0,113.879,6,normal
1780594800.5516477,9.962284199995338,10136,0.053467,-0.000488,1.0625,0.114504,3.091603,-0.992366,1.063845,3.248986,1062,1750,688,1062,0,113.879,0,normal
1780594800.5828001,9.993436599994311,10166,0.041016,-0.050049,1.041992,1.427481,3.076336,-1.10687,1.043999,3.567451,1064,1754,690,1064,0,113.879,0,normal
1780594800.615124,10.025760399992578,10197,0.045654,-0.038574,1.06665,2.534351,2.89313,-0.229008,1.068324,3.852996,1069,1760,691,1069,0,113.879,5,normal
1780594800.6455157,10.05615219999163,10228,0.050781,0.002197,1.069336,0.282443,3.435115,-0.961832,1.070543,3.578395,1073,1766,693,1073,0,108.303,0,normal
1780594800.6769202,10.087556600003154,10259,0.047363,-0.077881,1.044434,2.129771,2.290076,-0.51145,1.048404,3.168904,1075,1771,696,1075,1,108.303,14,normal
1780594800.7068255,10.117461999994703,10290,0.04541,-0.000488,1.05127,1.70229,2.236641,-0.427481,1.05225,2.843079,1080,1778,698,1080,0,108.303,1,normal
1780594800.737729,10.148365400003968,10320,0.033203,-0.029053,1.054688,0.267176,3.129771,-0.89313,1.05561,3.265659,1082,1782,700,1082,0,108.303,0,normal
1780594800.768227,10.178863499997533,10351,0.062988,-0.059814,1.045898,3.091603,3.053435,-0.251908,1.049499,4.352578,1085,1787,702,1085,1,108.303,13,normal
1780594800.7995372,10.210173500003293,10382,0.050537,-0.004639,1.044678,0.549618,2.541985,-0.977099,1.04591,2.778217,1090,1794,704,1090,0,108.303,1,normal
1780594800.8303366,10.240973099993425,10413,0.033936,-0.032227,1.062012,1.473282,2.763359,-1.076336,1.063042,3.311376,1092,1798,706,1092,0,108.303,0,normal
1780594800.861606,10.272242299994105,10444,0.042725,-0.036621,1.064209,2.603053,2.770992,-0.152672,1.065696,3.804943,1097,1804,707,1097,0,108.303,6,normal
1780594800.8929706,10.30360689999361,10476,0.052734,0.001953,1.066162,0.343511,3.763359,-1.21374,1.067467,3.969135,1101,1810,709,1101,0,108.303,1,normal
1780594800.9246442,10.335280600003898,10507,0.054199,-0.081055,1.050293,2.473282,3.007634,-0.221374,1.054809,3.900256,1103,1815,712,1103,1,107.527,14,normal
1780594800.9572825,10.367918899995857,10539,0.041504,0.020508,1.047119,0.603053,2.625954,-1.175572,1.048142,2.939605,1108,1822,714,1108,0,107.527,0,normal
1780594800.9884055,10.399041800003033,10571,0.037842,-0.038086,1.062744,1.366412,2.916031,-1.244275,1.064099,3.452324,1110,1826,716,1110,0,107.527,1,normal
1780594801.0191917,10.429828199994517,10602,0.051025,-0.048584,1.072022,2.793893,3.099237,-0.145038,1.074334,4.175182,1113,1830,717,1113,0,107.527,5,normal
1780594801.0502179,10.460854399992968,10633,0.044434,0.002686,1.062988,0.099237,3.916031,-0.984733,1.06392,4.039164,1117,1836,719,1117,0,107.527,0,normal
1780594801.0828555,10.493491899993387,10664,0.026611,-0.056641,1.04126,2.374046,2.045802,-0.648855,1.043139,3.200377,1119,1841,722,1119,1,107.527,14,normal
1780594801.1124647,10.52310099999886,10695,0.033936,0.00708,1.051514,1.908397,2.358779,-0.259542,1.052085,3.045189,1123,1846,723,1123,0,107.527,6,normal
1780594801.143652,10.554288300001645,10726,0.024414,-0.031738,1.05957,0.251908,3.259542,-1.007634,1.060327,3.421023,1125,1850,725,1125,0,107.527,1,normal
1780594801.1737487,10.584385099995416,10757,0.052002,-0.03125,1.055664,3.221374,2.931298,-0.022901,1.057406,4.355489,1128,1855,727,1128,1,100.0,14,normal
1780594801.2048578,10.615494300000137,10787,0.041748,0.018555,1.051758,0.664122,2.854962,-0.89313,1.05275,3.064237,1133,1862,729,1133,0,100.0,0,normal
1780594801.2353451,10.645981499998015,10818,0.031738,-0.043945,1.050537,1.145038,2.496183,-1.045802,1.051935,2.938664,1135,1866,731,1135,0,100.0,0,normal
1780594801.2671273,10.677763799991226,10849,0.052246,-0.04126,1.07251,3.038168,3.916031,0.122137,1.074574,4.95789,1139,1872,733,1139,0,100.0,6,normal
1780594801.297052,10.707688399998005,10880,0.064453,0.01123,1.059082,0.366412,4.061068,-1.022901,1.061101,4.20391,1142,1876,734,1142,0,100.0,5,normal
1780594801.3278477,10.738484100002097,10911,0.052246,-0.041992,1.04834,2.21374,2.183206,-0.358779,1.050481,3.129818,1144,1881,737,1144,1,100.0,14,normal
1780594801.3598025,10.770438999999897,10942,0.039062,-0.023193,1.053467,2.19084,2.473282,-0.480916,1.054446,3.33889,1150,1888,738,1150,0,100.0,0,normal
1780594801.391267,10.80190340000263,10974,0.025146,-0.029785,1.051025,0.419847,2.80916,-1.419847,1.051748,3.175472,1152,1892,740,1152,0,100.0,1,normal
1780594801.421613,10.832249500002945,11005,0.053223,-0.031494,1.055176,3.435115,3.259542,-0.21374,1.056986,4.740286,1155,1897,742,1155,1,100.0,14,normal
1780594801.4529676,10.863604099999066,11036,0.050049,-0.003418,1.04541,0.290076,2.854962,-1.015267,1.046613,3.043964,1160,1904,744,1160,0,114.695,0,normal
1780594801.4846082,10.895244699990144,11067,0.034912,-0.029053,1.05249,1.251908,2.664122,-1.236641,1.05347,3.19282,1161,1906,745,1161,0,114.695,6,normal
1780594801.5160167,10.926653100003023,11098,0.053223,-0.048584,1.062012,2.526718,2.916031,0.137405,1.064454,3.860883,1166,1912,746,1166,0,114.695,6,normal
1780594801.5466974,10.957333700003801,11129,0.042236,0.004883,1.066894,0.167939,3.564885,-1.030534,1.067741,3.714648,1170,1918,748,1170,0,114.695,1,normal
1780594801.5833812,10.994017699995311,11166,0.022217,-0.054688,1.042236,2.122137,2.480916,-0.251908,1.043906,3.274426,1173,1924,751,1173,0,114.695,7,normal
1780594801.6144762,11.02511269999377,11197,0.054199,0.012939,1.063477,0.312977,4.030534,-1.053435,1.064935,4.177665,1177,1930,753,1177,0,114.695,0,normal
1780594801.6464517,11.057088200002909,11229,0.048584,-0.064941,1.048828,2.503817,2.526718,-0.328244,1.051959,3.572274,1179,1935,756,1179,1,114.695,13,normal
1780594801.6776476,11.088283999997657,11260,0.039795,0.024658,1.048096,1.51145,2.480916,-0.587786,1.049141,2.963936,1184,1942,758,1184,0,114.695,0,normal
1780594801.7089515,11.119588000001386,11291,0.040527,-0.058838,1.051758,0.740458,2.70229,-1.290076,1.054182,3.084631,1186,1946,760,1186,0,101.961,0,normal
1780594801.7400684,11.150704899991979,11322,0.046631,-0.020996,1.05542,3.320611,3.664122,0.061069,1.056658,4.945298,1190,1952,762,1190,0,101.961,5,normal
1780594801.7709546,11.18159100000048,11353,0.049316,-0.000488,1.059814,0.51145,3.076336,-1.19084,1.060961,3.338192,1194,1958,764,1194,0,101.961,0,normal
1780594801.8012285,11.211864900004002,11384,0.064209,-0.044434,1.050781,2.351145,2.366412,-0.648855,1.053678,3.398353,1196,1963,767,1196,1,101.961,13,normal
1780594801.8326416,11.243277999994461,11415,0.039551,-0.037109,1.053467,2.29771,2.259542,-0.381679,1.054862,3.245101,1201,1970,769,1201,0,101.961,1,normal
1780594801.8629959,11.27363239999977,11446,0.051758,0.000732,1.066894,0.305344,3.374046,-1.145038,1.068149,3.576106,1203,1974,771,1203,0,101.961,0,normal
1780594801.894922,11.305558399995789,11477,0.043457,-0.065674,1.046143,2.328244,2.748092,-0.419847,1.049102,3.626155,1205,1979,774,1205,1,101.961,14,normal
1780594801.9251416,11.335777999993297,11508,0.045166,0.017822,1.046875,1.48855,2.496183,-0.618321,1.048,2.971368,1210,1986,776,1210,0,101.961,0,normal
1780594801.9565344,11.367170899990015,11539,0.035889,-0.055664,1.051514,0.374046,2.427481,-1.679389,1.053597,2.975386,1212,1990,778,1212,0,101.961,1,normal
1780594801.98866,11.39929659999325,11570,0.052979,-0.022949,1.061279,3.305344,3.740458,-0.053435,1.062849,4.991912,1216,1996,780,1216,0,107.527,5,normal
1780594802.0202997,11.430935999989742,11602,0.055664,0.029297,1.057373,0.541985,4.061068,-1.374046,1.059242,4.321346,1220,2002,782,1220,0,107.527,0,normal
1780594802.0511515,11.461788000000524,11634,0.026123,-0.07251,1.041992,2.305344,2.671756,-0.396947,1.044839,3.55112,1222,2007,785,1222,1,107.527,13,normal
1780594802.0829678,11.493604299990693,11665,0.029541,-0.005615,1.048828,2.007634,2.519084,-0.244275,1.049259,3.230487,1225,2012,787,1225,0,107.527,0,normal
1780594802.11339,11.524026500002947,11696,0.031006,-0.031738,1.053711,0.343511,2.70229,-1.290076,1.054645,3.014078,1227,2016,789,1227,0,107.527,1,normal
1780594802.1447294,11.555365899999742,11727,0.048584,-0.034912,1.055664,3.160305,3.358779,-0.152672,1.057358,4.614351,1230,2021,791,1230,1,107.527,14,normal
1780594802.1752806,11.585917099990183,11758,0.040039,-0.008057,1.04541,0.519084,2.59542,-1.221374,1.046208,2.915031,1234,2026,792,1234,0,107.527,6,normal
1780594802.2056034,11.616239900002256,11788,0.039795,-0.046875,1.052002,1.076336,2.519084,-1.458015,1.053797,3.103239,1236,2030,794,1236,0,107.527,1,normal
1780594802.2366297,11.647266100000707,11819,0.053711,-0.030029,1.057129,3.396947,3.045802,0.0,1.058918,4.562472,1240,2036,796,1240,0,107.527,6,normal
1780594802.2666364,11.677272799992352,11850,0.041504,-0.002197,1.047852,0.374046,3.259542,-1.122137,1.048675,3.467523,1244,2042,798,1244,0,100.0,1,normal
1780594802.2991831,11.709819499999867,11881,0.049072,-0.054688,1.049316,2.229008,2.061069,-0.832061,1.051886,3.147826,1246,2047,801,1246,1,100.0,14,normal
1780594802.3311925,11.741828999991412,11913,0.027832,0.016113,1.059814,2.015267,2.427481,-0.358779,1.060302,3.175325,1251,2054,803,1251,0,100.0,0,normal
1780594802.3627954,11.773431800000253,11945,0.045654,-0.04126,1.056885,0.603053,2.862595,-1.305344,1.058675,3.203443,1252,2056,804,1252,0,100.0,5,normal
1780594802.393654,11.804290599990054,11976,0.04541,-0.017334,1.060303,3.450382,3.480916,0.007634,1.061416,4.901221,1256,2062,806,1256,0,100.0,6,normal
1780594802.4243617,11.834998099991935,12007,0.043457,-0.009766,1.051758,0.053435,3.236641,-0.885496,1.0527,3.35601,1260,2068,808,1260,0,100.0,0,normal
1780594802.4564521,11.867088500002865,12038,0.053223,-0.039062,1.044922,2.328244,2.687023,-0.923664,1.047005,3.673414,1262,2073,811,1262,1,100.0,13,normal
1780594802.4852784,11.895914900000207,12069,0.03418,-0.035645,1.062012,2.427481,2.59542,-0.007634,1.063159,3.55372,1266,2079,813,1266,0,100.0,3,normal
1780594802.5148628,11.925499199991464,12098,0.05127,-0.007324,1.054932,0.458015,3.862595,-0.900763,1.056202,3.992592,1269,2084,815,1269,0,100.0,0,normal
1780594802.5466754,11.957311899997876,12129,0.054688,-0.048828,1.059082,2.099237,2.015267,-0.648855,1.061617,2.981461,1271,2089,818,1271,1,96.774,14,normal
1780594802.5790315,11.989667999994708,12161,0.029541,0.004883,1.053711,1.854962,2.580153,-0.374046,1.054136,3.199685,1276,2096,820,1276,0,96.774,1,normal
1780594802.6098542,12.020490700000664,12192,0.024902,-0.029785,1.060791,0.450382,2.671756,-1.061069,1.061501,2.909809,1278,2100,822,1278,0,96.774,1,normal
1780594802.6412432,12.051879699996789,12223,0.050537,-0.039307,1.048096,3.137405,3.435115,-0.21374,1.050049,4.657146,1281,2105,824,1281,1,96.774,14,normal
1780594802.67127,12.081906399995205,12254,0.042236,-0.011719,1.048828,0.572519,3.145038,-0.885496,1.049744,3.317099,1286,2112,826,1286,0,96.774,0,normal
1780594802.7018483,12.112484700002824,12285,0.036865,-0.040283,1.06665,1.312977,2.679389,-1.175572,1.068047,3.207024,1288,2116,828,1288,0,96.774,0,normal
1780594802.7321584,12.142794899991713,12316,0.0625,-0.04248,1.068115,3.122137,2.671756,-0.206107,1.070785,4.114426,1293,2122,829,1293,0,96.774,6,normal
1780594802.7635036,12.174139900002046,12346,0.04248,0.001221,1.049072,0.557252,3.366412,-1.160305,1.049933,3.604104,1297,2128,831,1297,0,96.774,0,normal
1780594802.7943878,12.205024299997604,12377,0.041748,-0.058105,1.040527,2.129771,2.496183,-0.709924,1.042984,3.357208,1299,2133,834,1299,1,96.774,14,normal
1780594802.8271089,12.237745199992787,12409,0.031982,0.011475,1.051025,1.519084,2.732824,-0.480916,1.051574,3.16342,1304,2140,836,1304,0,117.857,0,normal
1780594802.8577328,12.268369299999904,12440,0.021484,-0.033203,1.049316,0.366412,2.694656,-1.145038,1.050061,2.950685,1306,2144,838,1306,0,117.857,1,normal
1780594802.8905892,12.301225699993665,12472,0.047119,-0.019043,1.069336,3.496183,3.526718,0.114504,1.070543,4.967308,1310,2150,840,1310,0,117.857,5,normal
1780594802.9224663,12.333102799995686,12504,0.051514,0.016113,1.058838,0.068702,3.755725,-1.114504,1.060213,3.918202,1314,2156,842,1314,0,117.857,0,normal
1780594802.9544246,12.365061099990271,12536,0.032227,-0.071533,1.039307,2.061069,2.496183,-0.618321,1.042264,3.295642,1316,2161,845,1316,1,117.857,13,normal
1780594802.9847252,12.395361599992611,12567,0.036865,0.006104,1.058838,1.572519,2.450382,-0.854962,1.059497,3.034493,1321,2168,847,1321,0,117.857,0,normal
1780594803.0156424,12.426278899991303,12598,0.026855,-0.044922,1.048584,0.198473,2.748092,-1.305344,1.049889,3.048823,1323,2172,849,1323,0,117.857,0,normal
1780594803.0468109,12.457447299995692,12629,0.047607,-0.027344,1.056396,3.427481,3.10687,0.007634,1.057822,4.626049,1326,2177,851,1326,1,117.857,14,normal
1780594803.0772538,12.487890199990943,12660,0.032715,0.001709,1.040039,0.557252,3.641221,-1.175572,1.040555,3.866651,1331,2184,853,1331,0,107.57,0,normal
1780594803.108839,12.519475399996736,12691,0.039551,-0.035645,1.051758,1.40458,3.137405,-1.122137,1.053105,3.615985,1333,2188,855,1333,0,107.57,1,normal
1780594803.1401558,12.550792099995306,12722,0.057373,-0.026611,1.065674,2.412214,3.183206,-0.435114,1.067549,4.017574,1338,2194,856,1338,0,107.57,5,normal
1780594803.16939,12.580026499999803,12753,0.054688,0.006348,1.054688,0.534351,3.564885,-0.870229,1.056124,3.708266,1342,2200,858,1342,0,107.57,0,normal
1780594803.2009397,12.611575999995694,12783,0.043945,-0.039551,1.043701,2.122137,2.267176,-0.687023,1.045374,3.180496,1344,2205,861,1344,1,107.57,14,normal
1780594803.2319212,12.642557600003784,12815,0.035889,0.004639,1.051758,1.671756,2.328244,-0.312977,1.05238,2.883304,1349,2212,863,1349,0,107.57,0,normal
1780594803.2643669,12.675003299998934,12846,0.032471,-0.036377,1.051025,0.427481,2.885496,-1.526718,1.052156,3.292369,1351,2216,865,1351,0,107.57,1,normal
1780594803.2956657,12.706302199992933,12877,0.041504,-0.029541,1.056641,3.603053,3.435115,-0.290076,1.057868,4.986597,1354,2221,867,1354,1,107.57,14,normal
1780594803.3253007,12.735937099991133,12908,0.032959,-0.006104,1.048096,0.450382,3.015267,-0.870229,1.048632,3.170486,1357,2226,869,1357,0,107.57,0,normal
1780594803.3552938,12.765930199995637,12939,0.031006,-0.03125,1.054688,1.335878,3.0,-1.038168,1.055606,3.444178,1359,2230,871,1359,0,100.358,0,normal
1780594803.3875177,12.798154000003706,12969,0.050781,-0.047119,1.05957,2.977099,3.053435,-0.007634,1.061832,4.26458,1363,2236,873,1363,0,100.358,6,normal
1780594803.4187605,12.829396899993299,13001,0.053711,0.003418,1.061768,0.320611,3.664122,-0.977099,1.063131,3.805694,1366,2240,874,1366,0,100.358,5,normal
1780594803.4501455,12.86078180000186,13032,0.033936,-0.060791,1.036377,2.053435,2.435115,-0.633588,1.038713,3.24774,1368,2245,877,1368,1,100.358,14,normal
1780594803.4817517,12.892388099993696,13064,0.041504,-0.001953,1.059814,1.534351,2.625954,-0.549618,1.060628,3.090623,1373,2252,879,1373,0,100.358,0,normal
1780594803.51274,12.923376299993834,13095,0.025635,-0.044434,1.054688,0.473282,2.625954,-1.229008,1.055934,2.937702,1375,2256,881,1375,0,100.358,1,normal
1780594803.5438864,12.954522799991537,13126,0.04248,-0.022949,1.058106,3.381679,3.419847,-0.129771,1.059206,4.811232,1379,2262,883,1379,0,100.358,6,normal
1780594803.5743258,12.984962299990002,13157,0.05249,0.003418,1.050293,0.160305,2.755725,-1.053435,1.051609,2.954563,1383,2268,885,1383,0,100.358,1,normal
1780594803.6054766,13.016112999990582,13188,0.044922,-0.039062,1.052002,1.984733,2.977099,-0.763359,1.053685,3.658552,1384,2271,887,1384,1,100.358,17,normal
1780594803.636582,13.047218399995472,13220,0.025391,-0.001953,1.05127,1.732824,2.854962,-0.580153,1.051578,3.3897,1389,2278,889,1389,0,106.762,1,normal
1780594803.668083,13.07871940000041,13251,0.034668,-0.01709,1.066162,0.351145,3.091603,-0.900763,1.066862,3.239242,1391,2282,891,1391,0,106.762,1,normal
1780594803.7000282,13.110664499996346,13282,0.055664,-0.066406,1.054688,2.656489,3.137405,-0.389313,1.058241,4.129383,1393,2287,894,1393,1,106.762,14,normal
1780594803.7307634,13.141399799991632,13313,0.042725,0.013428,1.045166,1.175572,2.259542,-0.770992,1.046125,2.66119,1398,2294,896,1398,0,106.762,1,normal
1780594803.7628016,13.173438099998748,13344,0.040771,-0.038818,1.055664,1.320611,2.236641,-1.473282,1.057164,2.986158,1400,2298,898,1400,0,106.762,0,normal
1780594803.7928786,13.203515000001062,13376,0.052002,-0.032715,1.0625,2.648855,3.374046,-0.251908,1.064275,4.296984,1404,2304,900,1404,0,106.762,6,normal
1780594803.824069,13.234705499999109,13407,0.051514,0.027344,1.063232,0.374046,3.755725,-1.175572,1.064831,3.953144,1408,2310,902,1408,0,106.762,1,normal
1780594803.8548734,13.265509799995925,13438,0.03125,-0.049316,1.04541,2.450382,2.610687,-0.473282,1.047039,3.611655,1410,2315,905,1410,1,106.762,14,normal
1780594803.88627,13.296906399991713,13469,0.02417,-0.002197,1.055176,2.10687,2.381679,-0.419847,1.055455,3.207424,1415,2322,907,1415,0,106.762,1,normal
1780594803.918326,13.328962400002638,13500,0.040771,-0.033936,1.053223,0.381679,3.015267,-0.877863,1.054558,3.163567,1417,2326,909,1417,0,100.0,0,normal
1780594803.9483652,13.359001599994372,13531,0.058105,-0.025391,1.052978,3.267176,3.267176,-0.114504,1.054886,4.621902,1420,2331,911,1420,1,100.0,13,normal
1780594803.9791267,13.389763200000743,13562,0.05542,0.0,1.050293,0.870229,2.717557,-1.175572,1.051754,3.08616,1425,2338,913,1425,0,100.0,1,normal
1780594804.010149,13.420785499998601,13592,0.026123,-0.047607,1.048584,0.839695,2.725191,-1.21374,1.049989,3.09918,1427,2342,915,1427,0,100.0,0,normal
1780594804.0399592,13.450595699992846,13623,0.052734,-0.02417,1.059814,3.48855,3.083969,-0.51145,1.061401,4.684274,1431,2348,917,1431,0,100.0,5,normal
1780594804.0708535,13.481489800004056,13654,0.058594,-0.005615,1.052002,0.381679,3.358779,-1.091603,1.053647,3.552277,1435,2354,919,1435,0,100.0,0,normal
1780594804.1031535,13.513789899996482,13685,0.056152,-0.031494,1.045654,2.381679,2.396947,-0.801527,1.047634,3.472779,1437,2359,922,1437,1,100.0,13,normal
1780594804.1352847,13.545920999997179,13717,0.030273,-0.001221,1.059814,1.480916,2.610687,-0.618321,1.060247,3.064493,1442,2366,924,1442,0,100.0,0,normal
1780594804.1659336,13.57656999999017,13748,0.033447,-0.033936,1.05957,-0.137405,3.236641,-1.068702,1.060641,3.411283,1444,2370,926,1444,0,100.0,0,normal
1780594804.1967006,13.607336999994004,13779,0.059814,-0.045166,1.045654,3.236641,2.977099,-0.740458,1.048337,4.459512,1446,2373,927,1446,1,103.943,17,normal
1780594804.2273614,13.637997800004086,13810,0.042725,0.01123,1.048828,0.854962,2.519084,-0.870229,1.049758,2.798936,1451,2380,929,1451,0,103.943,0,normal
1780594804.258205,13.668841399994562,13841,0.032715,-0.049072,1.052978,1.29771,2.534351,-1.198473,1.054629,3.089227,1453,2384,931,1453,0,103.943,1,normal
1780594804.289984,13.70062049999251,13872,0.052246,-0.044922,1.065186,3.061069,3.045802,-0.259542,1.067412,4.326016,1457,2390,933,1457,0,103.943,6,normal
1780594804.3210623,13.731698799994774,13904,0.038818,0.002686,1.053711,0.007634,3.877863,-1.061069,1.054429,4.020416,1459,2394,935,1459,0,103.943,0,normal
1780594804.3525665,13.76320279999345,13934,0.056641,-0.033203,1.05127,1.854962,2.503817,-0.748092,1.053318,3.204625,1461,2399,938,1461,1,103.943,14,normal
1780594804.3839967,13.794633199999225,13966,0.05127,-0.003906,1.058838,1.694656,2.083969,-0.374046,1.060086,2.711955,1466,2406,940,1466,0,103.943,0,normal
1780594804.4152617,13.825898099996266,13997,0.039307,-0.040283,1.04834,0.618321,2.946565,-1.290076,1.04985,3.275494,1468,2410,942,1468,0,103.943,1,normal
1780594804.4470801,13.857716600003187,14029,0.040771,-0.021484,1.062256,3.274809,3.458015,-0.015267,1.063255,4.762612,1472,2416,944,1472,0,104.0,5,normal
1780594804.4788039,13.889440300001297,14061,0.045166,0.006592,1.047607,0.312977,3.549618,-1.045802,1.048601,3.713683,1475,2420,945,1475,0,104.0,6,normal
1780594804.510115,13.920751400000881,14092,0.049072,-0.030029,1.043213,1.839695,2.679389,-0.290076,1.044798,3.263088,1477,2425,948,1477,1,104.0,14,normal
1780594804.5409214,13.951557899999898,14123,0.028076,0.000732,1.056396,1.923664,2.19084,-0.839695,1.05677,3.034032,1482,2432,950,1482,0,104.0,0,normal
1780594804.5708776,13.98151389999839,14154,0.044434,-0.025391,1.059326,0.236641,2.648855,-1.351145,1.060562,2.982956,1484,2436,952,1484,0,104.0,1,normal
1780594804.601541,14.01217750000069,14185,0.070801,-0.0625,1.066162,3.167939,3.305344,-0.427481,1.070337,4.598246,1486,2441,955,1486,1,104.0,14,normal
1780594804.6336353,14.044271599996137,14216,0.044434,-0.000244,1.039795,0.992366,2.78626,-0.778626,1.040744,3.058478,1491,2448,957,1491,0,104.0,0,normal
1780594804.6649787,14.075615099995048,14247,0.041748,-0.059326,1.065186,1.053435,2.519084,-1.603053,1.067653,3.166274,1493,2452,959,1493,0,104.0,0,normal
1780594804.696104,14.106740399991395,14278,0.046875,-0.034424,1.060547,2.641221,3.687023,0.267176,1.06214,4.5433,1497,2458,961,1497,0,104.0,6,normal
1780594804.7260032,14.13663949999318,14309,0.046631,0.011719,1.055176,0.648855,4.10687,-1.10687,1.056271,4.302622,1501,2464,963,1501,0,103.571,0,normal
1780594804.758134,14.168770299991593,14340,0.051025,-0.022705,1.045898,2.068702,2.473282,-0.526718,1.047388,3.267122,1503,2469,966,1503,1,103.571,14,normal
1780594804.7901318,14.200768299997435,14372,0.041992,-0.006592,1.046875,1.557252,2.351145,-0.534351,1.047738,2.87027,1508,2476,968,1508,0,103.571,1,normal
1780594804.8204682,14.231104499995126,14403,0.037109,-0.038574,1.056641,0.335878,3.129771,-1.259542,1.057996,3.390387,1510,2480,970,1510,0,103.571,1,normal
1780594804.8634436,14.274080000002868,14434,0.050293,-0.022217,1.048584,3.0,3.549618,-0.076336,1.050024,4.648184,1513,2485,972,1513,1,103.571,14,normal
1780594804.8829184,14.293554699994274,14465,0.042969,0.000977,1.043945,0.923664,2.954198,-0.923664,1.04483,3.230108,1518,2492,974,1518,0,103.571,0,normal
1780594804.9144707,14.325106999996933,14496,0.041504,-0.05249,1.046875,1.236641,2.938931,-0.977099,1.049012,3.334865,1520,2496,976,1520,0,103.571,0,normal
1780594804.9438446,14.354481000002124,14527,0.053223,-0.042725,1.061035,2.564885,3.51145,0.0,1.063228,4.348439,1525,2502,977,1525,0,103.571,6,normal
1780594804.9763129,14.386949399995501,14558,0.057861,0.023926,1.061523,0.122137,3.740458,-1.038168,1.063368,3.883778,1529,2508,979,1529,0,103.571,1,normal
1780594805.0069332,14.417569700002787,14589,0.038574,-0.05542,1.052246,2.068702,2.70229,-0.564886,1.05441,3.449782,1531,2513,982,1531,1,107.143,14,normal
1780594805.0382302,14.448866599996109,14620,0.034424,-0.003906,1.051514,1.687023,2.351145,-0.541985,1.052084,2.944092,1537,2520,983,1537,0,107.143,1,normal
1780594805.068863,14.479499399996712,14651,0.0354,-0.032959,1.052734,0.419847,2.992366,-1.114504,1.053845,3.220659,1538,2522,984,1538,0,107.143,5,normal
1780594805.1001997,14.510836100002052,14682,0.052246,-0.022949,1.061768,3.251908,3.10687,-0.198473,1.0633,4.501882,1541,2527,986,1541,1,107.143,14,normal
1780594805.1299734,14.540609799994854,14713,0.047363,0.004639,1.039795,0.664122,3.137405,-0.977099,1.040883,3.352475,1546,2534,988,1546,0,107.143,1,normal
1780594805.1615198,14.572156099995482,14744,0.043457,-0.044434,1.054199,1.358779,2.870229,-1.0,1.05603,3.329338,1548,2538,990,1548,0,107.143,0,normal
1780594805.1932917,14.603928199998336,14775,0.046387,-0.039551,1.063477,3.068702,2.648855,-0.175573,1.065222,4.057609,1551,2542,991,1551,0,107.143,6,normal
1780594805.2248595,14.635495900001843,14807,0.04248,0.005615,1.060547,0.465649,3.832061,-0.916031,1.061412,3.967447,1555,2548,993,1555,0,107.143,1,normal
1780594805.2565846,14.667220999996061,14838,0.048828,-0.078613,1.049805,2.274809,2.748092,-0.503817,1.053876,3.602859,1557,2553,996,1557,1,107.143,14,normal
1780594805.286624,14.697260300003109,14870,0.051025,-0.001709,1.043701,0.877863,2.465649,-0.648855,1.044949,2.696494,1562,2560,998,1562,0,110.32,0,normal
1780594805.3190658,14.729702199998428,14901,0.040771,-0.042969,1.063477,0.923664,2.587786,-1.465649,1.065125,3.114148,1564,2564,1000,1564,0,110.32,0,normal
1780594805.3501234,14.760759900003904,14932,0.050049,-0.027588,1.064697,3.076336,3.374046,-0.053435,1.06623,4.566276,1568,2570,1002,1568,0,110.32,6,normal
1780594805.3808367,14.791473199991742,14963,0.04248,0.025146,1.060059,0.603053,3.198473,-1.206107,1.061207,3.471109,1570,2574,1004,1570,0,110.32,1,normal
1780594805.4120095,14.822645799999009,14994,0.043701,-0.042969,1.048584,2.022901,1.91603,-0.519084,1.050373,2.83421,1572,2579,1007,1572,1,110.32,14,normal
1780594805.4435496,14.854186099997605,15025,0.02832,-0.005371,1.050293,2.221374,2.412214,-0.335878,1.050688,3.296376,1577,2586,1009,1577,0,110.32,1,normal
1780594805.4738598,14.884496300001047,15056,0.040527,-0.000977,1.064453,0.145038,3.427481,-1.167939,1.065225,3.623912,1579,2590,1011,1579,0,110.32,0,normal
1780594805.504615,14.915251500002341,15087,0.05127,-0.081787,1.042725,2.923664,3.206107,-0.381679,1.047183,4.355756,1581,2595,1014,1581,1,110.32,13,normal
1780594805.5370116,14.947648000001209,15118,0.050781,0.011719,1.043213,0.992366,2.78626,-1.099237,1.044514,3.155369,1585,2600,1015,1585,0,110.32,5,normal
1780594805.56705,14.977686400001403,15149,0.046631,-0.042969,1.044189,0.946565,2.366412,-1.19084,1.046113,2.813182,1587,2604,1017,1587,0,89.606,0,normal
1780594805.599437,15.010073400000692,15180,0.057129,-0.018066,1.068848,3.21374,3.458015,-0.015267,1.070526,4.720829,1591,2610,1019,1591,0,89.606,6,normal
1780594805.6295938,15.040230300000985,15212,0.039551,0.017334,1.050781,0.618321,3.748092,-1.114504,1.051668,3.958867,1595,2616,1021,1595,0,89.606,1,normal
1780594805.6621082,15.07274449999386,15243,0.029297,-0.069092,1.032959,2.045802,2.847328,-0.412214,1.035682,3.530227,1597,2621,1024,1597,1,89.606,14,normal
1780594805.691553,15.10218950000126,15274,0.035645,0.008057,1.052246,1.564886,2.206107,-0.343511,1.05288,2.726495,1602,2628,1026,1602,0,89.606,1,normal
1780594805.7231967,15.13383310000063,15305,0.039795,-0.027344,1.054443,0.70229,3.183206,-1.282443,1.055548,3.502952,1604,2632,1028,1604,0,89.606,0,normal
1780594805.7560391,15.166675599990413,15336,0.062012,-0.04834,1.054688,3.221374,2.900763,-0.374046,1.057614,4.351044,1607,2637,1030,1607,1,89.606,13,normal
1780594805.784191,15.194827200000873,15367,0.047119,0.008789,1.044922,0.709924,2.679389,-0.687023,1.046021,2.855717,1612,2644,1032,1612,0,89.606,1,normal
1780594805.8153737,15.226010099999257,15398,0.036133,-0.041992,1.058106,0.977099,2.40458,-1.312977,1.059555,2.908717,1614,2648,1034,1614,0,89.606,0,normal
1780594805.8478634,15.258499899995513,15429,0.046143,-0.042969,1.065674,2.694656,3.618321,-0.10687,1.067537,4.512742,1618,2654,1036,1618,0,110.714,6,normal
1780594805.876542,15.287178500002483,15460,0.052002,0.012451,1.061523,0.259542,3.801527,-1.633588,1.062869,4.14579,1622,2660,1038,1622,0,110.714,0,normal
1780594805.9087727,15.319409100004123,15491,0.040527,-0.039062,1.049316,2.312977,2.198473,-0.48855,1.050825,3.228286,1624,2665,1041,1624,1,110.714,14,normal
1780594805.9406927,15.351329199998872,15522,0.031982,0.010498,1.054932,1.923664,2.465649,-0.366412,1.055469,3.148677,1629,2672,1043,1629,0,110.714,1,normal
1780594805.972973,15.383609600001364,15554,0.049072,-0.032227,1.056396,0.641221,3.038168,-1.236641,1.058026,3.342291,1631,2676,1045,1631,0,110.714,0,normal
1780594806.0038347,15.414471199997934,15585,0.058105,-0.02832,1.059326,3.740458,3.549618,-0.022901,1.061296,5.156679,1635,2682,1047,1635,0,110.714,6,normal
1780594806.0341423,15.444778599994606,15617,0.044434,0.0,1.048584,0.175573,3.465649,-1.015267,1.049525,3.615566,1639,2688,1049,1639,0,110.714,1,normal
1780594806.065208,15.475844400003552,15647,0.03833,-0.050293,1.058106,1.992366,3.175573,-0.839695,1.059993,3.841728,1641,2692,1051,1641,1,110.714,0,normal
1780594806.0961728,15.506809300000896,15678,0.04248,-0.04126,1.064209,2.580153,3.022901,-0.053435,1.065855,3.974666,1646,2698,1052,1646,0,110.714,6,normal
1780594806.1274612,15.538097700002254,15709,0.043701,0.004639,1.061768,0.59542,3.473282,-1.076336,1.062677,3.684659,1649,2702,1053,1649,0,110.714,6,normal
1780594806.1576233,15.568259599996964,15740,0.054688,-0.080566,1.050537,1.961832,2.503817,-0.801527,1.05504,3.280294,1651,2707,1056,1651,1,110.714,13,normal
1780594806.188787,15.599423299994669,15771,0.047363,-0.001221,1.050781,1.770992,2.328244,-0.557252,1.051849,2.977862,1656,2714,1058,1656,0,110.714,1,normal
1780594806.219574,15.630210299990722,15802,0.050537,-0.040527,1.057129,0.412214,2.717557,-1.251908,1.059112,3.020316,1658,2718,1060,1658,0,110.714,0,normal
1780594806.2526476,15.663283999994746,15834,0.049072,-0.038086,1.068848,3.10687,3.122137,0.137405,1.070651,4.406729,1662,2724,1062,1662,0,110.714,6,normal
1780594806.2836242,15.694260499993106,15866,0.053955,0.013916,1.070801,0.412214,3.740458,-1.198473,1.07225,3.94934,1666,2730,1064,1666,0,110.714,1,normal
1780594806.3144855,15.725122000003466,15897,0.038818,-0.053955,1.039795,2.167939,2.541985,-0.381679,1.041917,3.362636,1668,2735,1067,1668,1,110.714,14,normal
1780594806.3468213,15.757457799991244,15928,0.031982,0.006104,1.065674,1.465649,2.282443,-0.854962,1.066171,2.844052,1673,2742,1069,1673,0,110.714,1,normal
1780594806.3773,15.787936499997159,15959,0.033691,-0.042725,1.04834,0.694656,2.908397,-0.938931,1.049751,3.134153,1675,2746,1071,1675,0,104.0,0,normal
1780594806.407673,15.818309299997054,15990,0.057129,-0.02832,1.050049,2.954198,3.671756,-0.083969,1.051983,4.713399,1678,2751,1073,1678,1,104.0,13,normal
1780594806.4388711,15.849507499995525,16021,0.049072,-0.000732,1.046875,0.770992,2.832061,-0.816794,1.048025,3.046662,1681,2756,1075,1681,0,104.0,1,normal
1780594806.4697435,15.880380000002333,16052,0.023682,-0.039307,1.05542,1.068702,2.679389,-1.114504,1.056417,3.09247,1683,2760,1077,1683,0,104.0,0,normal
1780594806.500458,15.911094399998547,16083,0.052246,-0.046631,1.060791,2.824427,2.618321,-0.48855,1.0631,3.882225,1687,2766,1079,1687,0,104.0,6,normal
1780594806.5322056,15.94284200000402,16114,0.061279,0.015869,1.063721,0.419847,3.854962,-0.793893,1.065603,3.95819,1691,2772,1081,1691,0,104.0,0,normal
1780594806.562636,15.97327229999064,16145,0.032471,-0.057617,1.05249,2.183206,2.236641,-0.51145,1.054566,3.167102,1693,2777,1084,1693,1,104.0,13,normal
1780594806.5942464,16.004882799999905,16176,0.037109,-0.000244,1.052978,1.633588,2.236641,-0.541985,1.053632,2.822219,1697,2782,1085,1697,0,104.0,5,normal
1780594806.6246662,16.035302699994645,16207,0.042725,-0.038086,1.058838,0.320611,3.282443,-1.030534,1.060384,3.455318,1699,2786,1087,1699,0,104.0,0,normal
1780594806.65559,16.066226499999175,16238,0.042969,-0.015381,1.053223,3.21374,3.59542,-0.29771,1.054211,4.831542,1702,2791,1089,1702,1,96.774,13,normal
1780594806.686691,16.097327499999665,16269,0.048584,-0.001221,1.043457,0.870229,2.763359,-1.038168,1.044588,3.077538,1707,2798,1091,1707,0,96.774,1,normal
1780594806.7167883,16.127424799997243,16299,0.036865,-0.05127,1.049316,0.900763,2.312977,-1.473282,1.051215,2.886486,1709,2802,1093,1709,0,96.774,0,normal
1780594806.7482338,16.15887020000082,16330,0.049561,-0.023682,1.0625,3.328244,3.320611,-0.10687,1.063919,4.702668,1713,2808,1095,1713,0,96.774,6,normal
1780594806.778395,16.18903130000399,16361,0.048096,0.005615,1.060791,0.442748,3.175573,-1.122137,1.061896,3.396981,1717,2814,1097,1717,0,96.774,0,normal
1780594806.8096967,16.220333099990967,16392,0.048828,-0.025391,1.047852,2.099237,2.862595,-0.503817,1.049296,3.585398,1719,2819,1100,1719,1,96.774,14,normal
1780594806.8414083,16.252044699998805,16423,0.040283,-0.033936,1.056396,2.305344,2.51145,-0.320611,1.057709,3.424147,1724,2826,1102,1724,0,96.774,1,normal
1780594806.8729298,16.28356630000053,16455,0.036621,-0.03125,1.037842,0.740458,2.961832,-0.992366,1.038958,3.210221,1726,2830,1104,1726,0,96.774,0,normal
1780594806.902512,16.31314840000414,16485,0.068604,-0.065918,1.055176,2.51145,2.435115,-0.045802,1.059456,3.498466,1728,2835,1107,1728,1,96.774,13,normal
1780594806.945388,16.356024399996386,16516,0.057861,0.007813,1.057373,1.419847,2.167939,-0.435114,1.058984,2.627784,1733,2842,1109,1733,0,111.511,0,normal
1780594806.96578,16.37641650000296,16547,0.041992,-0.051514,1.059326,0.664122,2.580153,-1.091603,1.061409,2.879209,1735,2846,1111,1735,0,111.511,0,normal
1780594806.9967244,16.407360800003516,16578,0.051758,-0.022461,1.052734,3.274809,3.183206,-0.183206,1.054245,4.570638,1739,2852,1113,1739,0,111.511,5,normal
1780594807.026213,16.4368492999929,16609,0.046875,-0.005615,1.053711,0.618321,3.70229,-1.160305,1.054768,3.928814,1743,2858,1115,1743,0,111.511,0,normal
1780594807.0569143,16.46755079999275,16639,0.041992,-0.050049,1.044922,1.389313,2.78626,-1.053435,1.046962,3.286816,1745,2862,1117,1745,0,111.511,1,normal
1780594807.0885062,16.49914259999059,16670,0.04834,-0.039795,1.066406,2.709924,3.198473,-0.122137,1.068243,4.193904,1750,2868,1118,1750,0,111.511,5,normal
1780594807.119267,16.52990329999011,16701,0.04541,0.023926,1.061523,0.045802,3.557252,-1.160305,1.062764,3.741985,1754,2874,1120,1754,0,111.511,0,normal
1780594807.1501336,16.56076999999641,16732,0.037354,-0.070312,1.041016,2.076336,2.282443,-0.541985,1.044056,3.132804,1756,2879,1123,1756,1,111.511,14,normal
1780594807.1862783,16.596914800000377,16769,0.029053,0.000977,1.046387,1.610687,2.450382,-0.305344,1.04679,2.948206,1761,2886,1125,1761,0,110.672,0,normal
1780594807.2186518,16.629288199997973,16800,0.033447,-0.068848,1.040772,1.954198,2.641221,-0.526718,1.043582,3.327518,1763,2891,1128,1763,1,110.672,13,normal
1780594807.248807,16.659443399999873,16831,0.030518,0.009277,1.043945,1.946565,2.290076,-0.465649,1.044432,3.041446,1768,2898,1130,1768,0,110.672,1,normal
1780594807.281059,16.6916954999906,16862,0.030762,-0.039551,1.050537,0.229008,2.664122,-1.396947,1.051731,3.016861,1770,2902,1132,1770,0,110.672,0,normal
1780594807.3109334,16.72156979999272,16893,0.040039,-0.020264,1.047852,3.351145,3.664122,-0.114504,1.048812,4.966798,1773,2907,1134,1773,1,110.672,14,normal
1780594807.3412304,16.751866799997515,16924,0.034668,-0.001709,1.042969,0.328244,3.282443,-0.954198,1.043546,3.434046,1778,2914,1136,1778,0,110.672,0,normal
1780594807.37338,16.7840162999928,16955,0.037598,-0.044189,1.052978,1.687023,2.870229,-0.908397,1.054576,3.451006,1780,2918,1138,1780,0,110.672,1,normal
1780594807.4058533,16.816489799995907,16987,0.040771,-0.02002,1.054932,2.236641,2.335878,-0.221374,1.055909,3.241588,1786,2926,1140,1786,0,110.672,1,normal
1780594807.4362884,16.846924899989972,17019,0.025391,-0.030029,1.05835,0.709924,2.740458,-1.236641,1.05908,3.089237,1788,2930,1142,1788,0,108.0,0,normal
1780594807.4682038,16.878840099991066,17050,0.055176,-0.049805,1.050293,3.045802,3.229008,-0.320611,1.05292,4.450414,1790,2935,1145,1790,1,108.0,13,normal
1780594807.4984941,16.90913059999002,17081,0.050049,0.005859,1.046143,0.351145,2.694656,-0.938931,1.047355,2.875077,1793,2940,1147,1793,0,108.0,0,normal
1780594807.5301294,16.94076589999895,17112,0.023926,-0.050537,1.054932,1.038168,2.419847,-1.358779,1.056412,2.963061,1795,2944,1149,1795,0,108.0,0,normal
1780594807.56172,16.972356300000683,17143,0.053711,-0.043457,1.06665,2.610687,3.251908,-0.343511,1.068886,4.184327,1799,2950,1151,1799,0,108.0,5,normal
1780594807.591561,17.002197499998147,17174,0.061768,0.013916,1.059814,0.236641,3.503817,-1.290076,1.061704,3.74126,1803,2956,1153,1803,0,108.0,0,normal
1780594807.6234396,17.034075899995514,17205,0.054932,-0.040527,1.053467,2.175573,1.91603,-0.450382,1.055676,2.933792,1805,2961,1156,1805,1,108.0,13,normal
1780594807.6543581,17.064994500004104,17236,0.041748,-0.020508,1.05542,2.305344,2.51145,-0.961832,1.056444,3.54219,1809,2966,1157,1809,0,108.0,5,normal
1780594807.6841109,17.094747399998596,17267,0.030518,-0.033203,1.048828,0.312977,3.29771,-1.419847,1.049797,3.604,1811,2970,1159,1811,0,108.0,0,normal
1780594807.7143943,17.125030700000934,17297,0.049072,-0.072021,1.056641,2.389313,2.717557,-0.465649,1.060229,3.648392,1813,2975,1162,1813,1,89.928,14,normal
1780594807.7463484,17.156984899993404,17328,0.048828,0.020752,1.056885,1.343511,2.572519,-0.427481,1.058216,2.933533,1818,2982,1164,1818,0,89.928,0,normal
1780594807.7769458,17.18758220000018,17359,0.028809,-0.053955,1.041016,0.557252,2.755725,-0.885496,1.042811,2.947652,1820,2986,1166,1820,0,89.928,1,normal
1780594807.8089294,17.219565899998997,17390,0.043701,-0.02002,1.059326,3.198473,3.267176,-0.015267,1.060416,4.572188,1824,2992,1168,1824,0,89.928,5,normal
1780594807.8396938,17.250330199996824,17422,0.067871,0.012207,1.056396,0.503817,3.748092,-1.030534,1.058645,3.919697,1828,2998,1170,1828,0,89.928,0,normal
1780594807.8710144,17.281650899996748,17453,0.062744,-0.0354,1.050781,1.984733,2.381679,-0.412214,1.053248,3.127536,1830,3003,1173,1830,1,89.928,14,normal
1780594807.9016054,17.312241799998446,17484,0.029785,0.001221,1.041748,2.198473,2.320611,-0.59542,1.042174,3.251622,1835,3010,1175,1835,0,89.928,0,normal
1780594807.9329371,17.343573499994818,17515,0.0354,-0.023193,1.05835,0.465649,2.732824,-1.229008,1.059195,3.032428,1837,3014,1177,1837,0,89.928,1,normal
1780594807.9739647,17.38460119999945,17546,0.054688,-0.05957,1.055664,2.748092,3.48855,-0.259542,1.058757,4.448522,1839,3019,1180,1839,1,89.928,14,normal
1780594807.995729,17.406365299990284,17577,0.053711,-0.012451,1.051514,0.51145,2.770992,-0.618321,1.052958,2.88484,1844,3026,1182,1844,0,110.714,0,normal
1780594808.0281153,17.438751699999557,17609,0.025879,-0.040283,1.058594,1.351145,2.221374,-1.114504,1.059676,2.828818,1846,3030,1184,1846,0,110.714,0,normal
1780594808.0568583,17.467494700002135,17640,0.04834,-0.033936,1.070068,2.358779,3.0,-0.251908,1.071697,3.824565,1850,3036,1186,1850,0,110.714,6,normal
1780594808.0895638,17.500200299997232,17671,0.049316,0.012939,1.072022,0.290076,3.48855,-0.961832,1.073233,3.630323,1854,3042,1188,1854,0,110.714,1,normal
1780594808.1201022,17.530738499990548,17702,0.034424,-0.053955,1.04541,1.931298,2.450382,-0.435114,1.047367,3.150176,1856,3047,1191,1856,1,110.714,14,normal
1780594808.152131,17.56276760000037,17734,0.042725,0.016846,1.059082,1.526718,3.007634,-0.396947,1.060077,3.396218,1861,3054,1193,1861,0,110.714,0,normal
1780594808.1837022,17.5943385999999,17766,0.029541,-0.036621,1.061768,1.145038,2.625954,-1.343511,1.06281,3.164138,1863,3058,1195,1863,0,110.714,1,normal
1780594808.2159033,17.62653959999443,17797,0.052979,-0.03418,1.063232,2.717557,3.763359,-0.091603,1.0651,4.642885,1867,3064,1197,1867,0,110.714,5,normal
1780594808.2455633,17.656199799996102,17828,0.045654,0.00293,1.059326,0.251908,3.519084,-1.267176,1.060313,3.748752,1871,3070,1199,1871,0,107.57,0,normal
1780594808.2774968,17.68813319999026,17859,0.033447,-0.055664,1.047852,2.244275,2.076336,-0.572519,1.049862,3.110582,1873,3075,1202,1873,1,107.57,14,normal
1780594808.3074338,17.71807029999036,17890,0.038574,-0.007324,1.05542,2.030534,2.244275,-0.587786,1.05615,3.083072,1878,3082,1204,1878,0,107.57,0,normal
1780594808.3380966,17.748733000000357,17920,0.039062,0.005615,1.055908,0.587786,3.335878,-1.343511,1.056645,3.643981,1880,3086,1206,1880,0,107.57,1,normal
1780594808.3690784,17.779714799995418,17951,0.039795,-0.067627,1.049561,2.114504,3.152672,-0.564886,1.05249,3.837911,1882,3091,1209,1882,1,107.57,14,normal
1780594808.401138,17.8117743999901,17983,0.037598,-0.000488,1.050049,0.923664,2.633588,-0.770992,1.050722,2.895405,1887,3098,1211,1887,0,107.57,0,normal
1780594808.4329393,17.843575699997018,18014,0.028564,-0.045898,1.053467,1.244275,2.877863,-1.274809,1.054853,3.38459,1888,3100,1212,1888,0,107.57,5,normal
1780594808.4643075,17.874943999995594,18046,0.053223,-0.035645,1.059814,2.603053,2.534351,-0.381679,1.061748,3.653013,1892,3106,1214,1892,0,107.57,5,normal
1780594808.496746,17.907382399993367,18078,0.041748,-0.015625,1.05249,0.51145,3.603053,-1.320611,1.053434,3.87138,1896,3112,1216,1896,0,100.0,0,normal
1780594808.5275493,17.938185799997882,18109,0.041504,-0.068115,1.046631,2.320611,2.748092,-0.396947,1.049666,3.618675,1898,3117,1219,1898,1,100.0,13,normal
1780594808.557923,17.96855940000387,18140,0.04248,0.020752,1.043701,1.48855,2.320611,-0.603053,1.044771,2.822178,1901,3122,1221,1901,0,100.0,0,normal
1780594808.589394,18.000030600000173,18171,0.036133,-0.061279,1.051758,0.358779,2.854962,-1.076336,1.054161,3.072137,1903,3126,1223,1903,0,100.0,0,normal
1780594808.6203792,18.031015699991258,18202,0.05249,-0.02124,1.059814,3.664122,3.412214,-0.030534,1.061326,5.006988,1907,3132,1225,1907,0,100.0,5,normal
1780594808.6516151,18.06225160000031,18233,0.057617,0.007324,1.050781,0.427481,3.374046,-1.007634,1.052385,3.547147,1911,3138,1227,1911,0,100.0,0,normal
1780594808.681913,18.09254929999588,18264,0.055664,-0.034668,1.055664,2.022901,2.59542,-0.59542,1.057699,3.344078,1913,3143,1230,1913,1,100.0,13,normal
1780594808.7138479,18.124484400002984,18295,0.021484,-0.033447,1.045898,2.21374,2.21374,-0.290076,1.046654,3.144111,1917,3148,1231,1917,0,100.0,5,normal
1780594808.7433324,18.153968899991014,18326,0.049316,0.002197,1.06958,0.824427,2.984733,-1.251908,1.070719,3.339998,1919,3152,1233,1919,0,100.0,0,normal
1780594808.7765908,18.18722720000369,18357,0.060059,-0.052002,1.056641,2.977099,2.641221,-0.198473,1.059623,3.984791,1921,3157,1236,1921,1,89.606,13,normal
1780594808.8067465,18.217382999995607,18388,0.050781,0.022217,1.046143,1.152672,2.778626,-0.282443,1.04761,3.021455,1926,3164,1238,1926,0,89.606,1,normal
1780594808.836798,18.247434299992165,18419,0.045166,-0.05957,1.052246,0.946565,2.740458,-1.076336,1.054898,3.092668,1928,3168,1240,1928,0,89.606,0,normal
1780594808.8673356,18.277971999996225,18450,0.051758,-0.020752,1.058838,3.29771,3.480916,-0.145038,1.060305,4.797156,1932,3174,1242,1932,0,89.606,6,normal
1780594808.9067516,18.317387999995844,18480,0.038818,-0.000488,1.054199,-0.045802,3.503817,-1.236641,1.054914,3.715927,1935,3178,1243,1935,0,89.606,6,normal
1780594808.9298663,18.34050269999716,18511,0.05957,-0.039307,1.049805,1.832061,2.900763,-0.70229,1.052228,3.502012,1937,3182,1245,1937,0,89.606,0,normal
1780594808.959123,18.369759399996838,18542,0.05127,-0.034424,1.070801,2.503817,2.480916,-0.427481,1.07258,3.550603,1942,3188,1246,1942,0,89.606,5,normal
1780594808.9903145,18.400950800001738,18572,0.050049,0.023438,1.057129,0.610687,3.839695,-0.832061,1.058572,3.975993,1946,3194,1248,1946,0,89.606,0,normal
1780594809.0221937,18.432829999990645,18603,0.047607,-0.038574,1.043457,2.022901,2.625954,-0.458015,1.045254,3.346273,1948,3199,1251,1948,1,89.606,13,normal
1780594809.0512612,18.461897699991823,18634,0.04834,0.000244,1.04834,2.0,2.083969,-0.328244,1.049454,2.907004,1953,3206,1253,1953,0,115.523,1,normal
1780594809.083446,18.494082399993204,18665,0.0354,-0.034424,1.059814,0.801527,3.10687,-1.480916,1.060964,3.533865,1954,3208,1254,1954,0,115.523,6,normal
1780594809.1130812,18.523717599993688,18696,0.0625,-0.0354,1.054932,3.038168,3.572519,-0.267176,1.057374,4.697312,1957,3213,1256,1957,1,115.523,13,normal
1780594809.144379,18.5550152999931,18727,0.049316,0.006348,1.050537,0.312977,3.167939,-0.725191,1.051713,3.264918,1962,3220,1258,1962,0,115.523,1,normal
1780594809.1770267,18.58766319999995,18758,0.033936,-0.037354,1.060791,1.717557,2.687023,-1.007634,1.061991,3.344461,1964,3224,1260,1964,0,115.523,0,normal
1780594809.2079284,18.618564899996272,18790,0.047607,-0.035645,1.052002,2.305344,2.450382,-0.175573,1.053682,3.368947,1969,3231,1262,1969,0,115.523,3,normal
1780594809.2396007,18.650237099995138,18822,0.039795,-0.003662,1.071533,0.351145,2.877863,-1.29771,1.072278,3.176389,1972,3236,1264,1972,0,115.523,1,normal
1780594809.2700303,18.68066679999174,18852,0.04834,-0.07251,1.046875,2.015267,2.870229,-0.442748,1.050496,3.534904,1973,3239,1266,1973,1,115.523,17,normal
1780594809.301121,18.711757500001113,18883,0.041016,0.012939,1.054199,1.839695,2.496183,-0.412214,1.055076,3.12815,1978,3246,1268,1978,0,115.523,0,normal
1780594809.331933,18.742569499998353,18914,0.031738,-0.048828,1.050781,0.396947,2.900763,-1.358779,1.052394,3.227735,1980,3250,1270,1980,0,96.429,0,normal
1780594809.3616686,18.77230509999208,18945,0.045898,-0.020264,1.04834,3.59542,3.725191,-0.007634,1.04954,5.177273,1984,3256,1272,1984,0,96.429,6,normal
1780594809.392342,18.80297839999548,18975,0.047119,0.005615,1.050781,0.541985,3.045802,-0.824427,1.051852,3.201615,1988,3262,1274,1988,0,96.429,1,normal
1780594809.424648,18.83528449998994,19006,0.041992,-0.043945,1.049561,1.503817,2.832061,-0.763359,1.051319,3.296172,1990,3266,1276,1990,0,96.429,0,normal
1780594809.455965,18.866601499990793,19037,0.044189,-0.032227,1.069336,2.572519,3.229008,-0.061069,1.070734,4.128932,1995,3272,1277,1995,0,96.429,6,normal
1780594809.4863787,18.89701519999653,19068,0.053955,0.028809,1.059326,0.358779,3.900763,-0.977099,1.06109,4.037252,1999,3278,1279,1999,0,96.429,1,normal
1780594809.5177186,18.928354999996372,19099,0.037842,-0.061768,1.039795,2.236641,2.832061,-0.351145,1.042315,3.625802,2001,3283,1282,2001,1,96.429,14,normal
1780594809.5482104,18.958846699999413,19131,0.033203,0.013916,1.047119,1.778626,2.40458,-0.450382,1.047738,3.024626,2006,3290,1284,2006,0,96.429,0,normal
1780594809.5806177,18.991254099993967,19162,0.030029,-0.054443,1.048096,0.59542,2.748092,-1.145038,1.049938,3.036058,2008,3294,1286,2008,0,96.429,1,normal
1780594809.611076,19.021712499990826,19193,0.049316,-0.022949,1.056885,3.580153,3.534351,0.053435,1.058284,5.031102,2012,3300,1288,2012,0,114.695,6,normal
1780594809.642042,19.052678399995784,19224,0.035645,-0.004883,1.049805,-0.053435,3.335878,-1.206107,1.050421,3.547623,2016,3306,1290,2016,0,114.695,0,normal
1780594809.6738155,19.084451899994747,19255,0.061279,-0.040039,1.051758,2.435115,2.473282,-0.687023,1.054302,3.538207,2018,3311,1293,2018,1,114.695,14,normal
1780594809.7058935,19.116529899998568,19287,0.022461,-0.001221,1.044922,2.396947,2.465649,-0.343511,1.045164,3.455832,2023,3318,1295,2023,0,114.695,0,normal
1780594809.7353466,19.145982999994885,19318,0.040771,-0.001709,1.056885,0.236641,3.656489,-0.946565,1.057672,3.784428,2025,3322,1297,2025,0,114.695,1,normal
1780594809.7676473,19.17828369999188,19349,0.060059,-0.020508,1.060547,3.10687,2.633588,-0.083969,1.062444,4.073755,2027,3327,1300,2027,1,114.695,14,normal
1780594809.7973175,19.2079539999977,19380,0.048584,-0.005127,1.049072,0.480916,2.732824,-0.694656,1.050209,2.860447,2032,3334,1302,2032,0,114.695,0,normal
1780594809.8281467,19.23878319999494,19411,0.039307,-0.041016,1.053467,1.29771,2.534351,-1.312977,1.054997,3.135426,2034,3338,1304,2034,0,114.695,1,normal
1780594809.8603935,19.27102990000276,19442,0.061523,-0.028809,1.066162,2.519084,3.145038,-0.358779,1.068324,4.045463,2038,3344,1306,2038,0,114.695,6,normal
1780594809.8919873,19.30262380000204,19474,0.049072,0.018066,1.062256,0.007634,3.816794,-0.534351,1.063542,3.854025,2042,3350,1308,2042,0,106.762,0,normal
1780594809.9233449,19.333981199990376,19505,0.032227,-0.068848,1.047852,2.152672,2.442748,-0.633588,1.050605,3.316994,2044,3355,1311,2044,1,106.762,13,normal
1780594809.954737,19.365373299995554,19536,0.038818,-0.009766,1.047607,1.572519,2.503817,-0.442748,1.048372,2.989639,2049,3362,1313,2049,0,106.762,0,normal
1780594809.985172,19.39580849999038,19567,0.041992,-0.049316,1.065674,0.267176,2.946565,-1.625954,1.06764,3.375997,2051,3366,1315,2051,0,106.762,0,normal
1780594810.0164545,19.427090899989707,19598,0.055908,-0.026367,1.05249,3.236641,3.167939,-0.122137,1.054304,4.530629,2054,3371,1317,2054,1,106.762,14,normal
1780594810.047215,19.457851300001494,19629,0.039551,0.009521,1.05127,0.083969,3.335878,-1.541985,1.052056,3.675983,2059,3378,1319,2059,0,106.762,0,normal
1780594810.0787652,19.489401600003475,19660,0.046631,-0.054199,1.040772,1.885496,2.778626,-0.709924,1.043224,3.432178,2061,3382,1321,2061,0,106.762,1,normal
1780594810.1099958,19.520632200001273,19691,0.038818,-0.031982,1.055664,2.343511,3.083969,-0.480916,1.056862,3.9031,2066,3388,1322,2066,0,106.762,5,normal
1780594810.1419537,19.552590099992813,19723,0.049072,-0.021484,1.062256,0.572519,3.083969,-1.145038,1.063606,3.339125,2070,3394,1324,2070,0,106.762,0,normal
1780594810.1744404,19.585076699993806,19755,0.047607,-0.028564,1.051514,3.122137,3.78626,-0.160305,1.052978,4.910112,2072,3399,1327,2072,1,106.762,13,normal
1780594810.2050147,19.615651100000832,19787,0.047852,-0.003418,1.051025,-0.198473,3.473282,-1.282443,1.05212,3.707795,2077,3406,1329,2077,0,106.762,1,normal
1780594810.2372315,19.647868000000017,19818,0.04834,-0.045654,1.050293,2.160305,2.549618,-0.549618,1.052395,3.386673,2079,3411,1332,2079,1,106.762,14,normal
1780594810.267621,19.678257499996107,19850,0.039062,-0.030762,1.058838,2.320611,2.717557,-0.183206,1.060005,3.578256,2084,3418,1334,2084,0,106.762,1,normal
1780594810.2978976,19.708533900004113,19881,0.040283,0.005127,1.061768,0.618321,3.610687,-1.259542,1.062544,3.873736,2086,3422,1336,2086,0,106.762,1,normal
1780594810.3292625,19.739898999992874,19912,0.064941,-0.052734,1.054688,2.954198,3.664122,0.061069,1.058,4.707102,2088,3427,1339,2088,1,106.762,14,normal
1780594810.3604631,19.771099499994307,19943,0.056396,0.020996,1.056641,0.832061,2.312977,-1.030534,1.058353,2.665368,2093,3434,1341,2093,0,106.762,0,normal
1780594810.3920321,19.80266849999316,19974,0.041748,-0.057373,1.05249,1.129771,2.496183,-1.442748,1.054879,3.096584,2094,3436,1342,2094,0,106.762,6,normal
1780594810.4230068,19.833643099991605,20005,0.039551,-0.039062,1.061035,2.89313,3.229008,0.076336,1.06249,4.336188,2098,3442,1344,2098,0,104.0,6,normal
1780594810.4550092,19.86564570000337,20037,0.046387,0.014893,1.057373,0.221374,3.671756,-0.862595,1.058495,3.77821,2102,3448,1346,2102,0,104.0,0,normal
1780594810.4863927,19.89702920000127,20068,0.036133,-0.070068,1.052002,2.244275,2.496183,-0.931298,1.054952,3.483535,2104,3453,1349,2104,1,104.0,13,normal
1780594810.516811,19.927447399997618,20099,0.039551,0.003662,1.048584,1.961832,2.320611,-0.29771,1.049336,3.053302,2109,3460,1351,2109,0,104.0,0,normal
1780594810.5467699,19.95740630000364,20129,0.053711,0.002686,1.070068,0.244275,3.748092,-0.923664,1.071419,3.867947,2111,3464,1353,2111,0,104.0,0,normal
1780594810.5780964,19.988732800004072,20160,0.058594,-0.033447,1.05957,3.061069,3.557252,-0.145038,1.061716,4.695234,2113,3469,1356,2113,1,104.0,14,normal
1780594810.6093955,20.020031899999594,20191,0.055664,0.000977,1.043213,0.770992,2.51145,-0.740458,1.044697,2.729485,2118,3476,1358,2118,0,104.0,0,normal
1780594810.6399808,20.050617200002307,20222,0.037842,-0.044189,1.056885,1.267176,2.328244,-1.29771,1.058485,2.951357,2120,3480,1360,2120,0,104.0,0,normal
1780594810.6691225,20.07975879999867,20252,0.037598,-0.021484,1.065674,3.167939,3.70229,0.061069,1.066553,4.87304,2124,3486,1362,2124,0,104.0,5,normal
1780594810.7004395,20.111075900000287,20282,0.047852,-0.005371,1.053467,0.282443,3.458015,-1.19084,1.054567,3.668207,2128,3492,1364,2128,0,108.303,0,normal
1780594810.7323353,20.14297179999994,20313,0.051514,-0.032715,1.049805,2.221374,2.534351,-0.908397,1.051577,3.490362,2130,3497,1367,2130,1,108.303,14,normal
1780594810.7638729,20.17450939999253,20345,0.036377,-0.033691,1.05249,2.259542,2.526718,-0.183206,1.053657,3.394613,2135,3504,1369,2135,0,108.303,1,normal
1780594810.7951422,20.20577859999321,20377,0.036377,-0.04126,1.057129,0.526718,3.045802,-1.343511,1.058559,3.370365,2137,3508,1371,2137,0,108.303,0,normal
1780594810.8266325,20.237268900003983,20408,0.054932,-0.019531,1.056885,3.648855,3.389313,0.0,1.058492,4.980119,2140,3513,1373,2140,1,108.303,14,normal
1780594810.8573654,20.268001699994784,20439,0.045166,-0.002441,1.055176,0.450382,3.015267,-1.160305,1.056145,3.262053,2145,3520,1375,2145,0,108.303,0,normal
1780594810.889279,20.29991539999901,20470,0.022949,-0.030029,1.046875,1.442748,2.931298,-0.977099,1.047557,3.410096,2147,3524,1377,2147,0,108.303,0,normal
1780594810.9193997,20.330036200000905,20501,0.043213,-0.0354,1.068848,2.320611,3.419847,-0.305344,1.070306,4.144131,2152,3530,1378,2152,0,108.303,6,normal
1780594810.9635613,20.374197800003458,20532,0.044678,0.001465,1.061523,0.061069,3.725191,-0.694656,1.062464,3.789898,2154,3534,1380,2154,0,104.0,0,normal
1780594810.981257,20.39189329999499,20563,0.032715,-0.072021,1.036133,1.854962,2.48855,-0.480916,1.039148,3.140867,2156,3539,1383,2156,1,104.0,14,normal
1780594811.0123427,20.422978999995394,20594,0.036865,0.00708,1.05249,1.854962,2.045802,-0.29771,1.05316,2.777556,2161,3546,1385,2161,0,104.0,0,normal
1780594811.0435183,20.454154799997923,20625,0.047607,-0.03833,1.059326,0.679389,2.854962,-0.908397,1.061088,3.072062,2163,3550,1387,2163,0,104.0,0,normal
1780594811.0734394,20.484075799991842,20656,0.042725,-0.018311,1.05542,3.343511,3.183206,0.007634,1.056443,4.616484,2166,3555,1389,2166,1,104.0,14,normal
1780594811.1036265,20.514262999990024,20687,0.032959,-0.001221,1.041748,0.793893,2.908397,-1.0,1.04227,3.176325,2170,3560,1390,2170,0,104.0,6,normal
1780594811.1344995,20.54513600000064,20716,0.037842,-0.047119,1.060303,0.847328,2.328244,-1.442748,1.062024,2.86709,2172,3564,1392,2172,0,104.0,1,normal
1780594811.164758,20.57539430000179,20747,0.049072,-0.021729,1.066162,3.290076,3.480916,0.030534,1.067512,4.789814,2176,3570,1394,2176,0,104.0,5,normal
1780594811.1962237,20.606860200001393,20778,0.058594,-0.019043,1.054443,0.328244,3.458015,-1.022901,1.056242,3.621041,2180,3576,1396,2180,0,104.0,0,normal
1780594811.2283788,20.639015299995663,20809,0.05957,-0.038574,1.049805,2.465649,2.114504,-0.656489,1.052201,3.313839,2182,3581,1399,2182,1,101.083,13,normal
1780594811.2596667,20.67030299999169,20841,0.036621,-0.003418,1.056396,1.412214,2.366412,-0.496183,1.057036,2.800081,2187,3588,1401,2187,0,101.083,1,normal
1780594811.2896442,20.700280599994585,20872,0.038818,-0.012451,1.060547,0.374046,3.40458,-1.152672,1.06133,3.613825,2188,3590,1402,2188,0,101.083,6,normal
1780594811.3222294,20.73286589999043,20903,0.058838,-0.019775,1.054688,2.969466,3.824427,-0.030534,1.056512,4.841994,2190,3595,1405,2190,1,101.083,13,normal
1780594811.3520846,20.762721099992632,20934,0.053955,-0.004639,1.047119,0.51145,2.572519,-1.114504,1.048519,2.849834,2195,3602,1407,2195,0,101.083,1,normal
1780594811.3842206,20.794857100001536,20965,0.037109,-0.038086,1.046631,1.557252,2.335878,-1.274809,1.047981,3.083261,2197,3606,1409,2197,0,101.083,0,normal
1780594811.414403,20.82503929999075,20996,0.041016,-0.041992,1.062744,2.480916,3.335878,-0.21374,1.064364,4.162777,2201,3612,1411,2201,0,101.083,6,normal
1780594811.4446917,20.85532799999055,21027,0.039551,0.024902,1.069824,0.427481,3.656489,-0.885496,1.070845,3.78639,2205,3618,1413,2205,0,101.083,1,normal
1780594811.4776576,20.88829390000319,21058,0.030518,-0.057861,1.04541,2.145038,2.526718,-0.633588,1.047455,3.374452,2206,3621,1415,2206,1,101.083,17,normal
1780594811.50772,20.91835639999772,21090,0.038818,-0.000244,1.046875,1.816794,2.366412,-0.541985,1.047594,3.032226,2211,3628,1417,2211,0,103.203,0,normal
1780594811.5396247,20.95026109999162,21121,0.049316,-0.04541,1.052978,0.847328,2.839695,-1.198473,1.05511,3.196587,2213,3632,1419,2213,0,103.203,0,normal
1780594811.570249,20.980885600001784,21152,0.04541,-0.014648,1.056396,3.480916,3.305344,-0.175573,1.057473,4.803426,2217,3638,1421,2217,0,103.203,6,normal
1780594811.6014225,21.01205900000059,21183,0.039307,-0.004639,1.041992,0.19084,2.664122,-1.160305,1.042744,2.912091,2219,3642,1423,2219,0,103.203,0,normal
1780594811.6331904,21.043826900000568,21214,0.046143,-0.048828,1.049072,2.183206,2.503817,-0.694656,1.051221,3.393823,2221,3647,1426,2221,1,103.203,14,normal
1780594811.6638117,21.074448200000916,21245,0.044434,-0.02832,1.056885,2.076336,2.603053,-0.206107,1.058197,3.336096,2226,3654,1428,2226,0,103.203,0,normal
1780594811.6941235,21.10476000000199,21276,0.061768,-0.002197,1.063477,0.48855,3.832061,-0.931298,1.065271,3.97375,2228,3658,1430,2228,0,103.203,1,normal
1780594811.725256,21.135892499994952,21307,0.057129,-0.073975,1.054443,2.412214,2.885496,-0.358779,1.058578,3.77804,2230,3663,1433,2230,1,103.203,14,normal
1780594811.7562697,21.166906099999323,21338,0.045654,-0.006104,1.048584,1.358779,2.847328,-0.687023,1.049595,3.228863,2234,3668,1434,2234,0,103.203,6,normal
1780594811.7868915,21.19752800000424,21369,0.041992,-0.040527,1.067383,1.091603,2.70229,-1.244275,1.068977,3.168941,2236,3672,1436,2236,0,89.606,1,normal
1780594811.818322,21.228958399995463,21400,0.040771,-0.018555,1.058594,3.137405,3.862595,-0.244275,1.059541,4.98223,2240,3678,1438,2240,0,89.606,5,normal
1780594811.8496804,21.260316799991415,21432,0.057861,-0.001953,1.052002,0.251908,3.801527,-0.938931,1.053594,3.923857,2244,3684,1440,2244,0,89.606,0,normal
1780594811.8803253,21.290961799997604,21462,0.045166,-0.041992,1.0625,2.435115,2.694656,-0.664122,1.064288,3.692156,2246,3689,1443,2246,1,89.606,14,normal
1780594811.9121253,21.322761699993862,21493,0.045654,-0.036621,1.052978,1.80916,2.877863,-0.358779,1.054604,3.418168,2251,3696,1445,2251,0,89.606,0,normal
1780594811.9429572,21.35359349999635,21525,0.0354,-0.025635,1.056152,0.389313,3.122137,-1.29771,1.057056,3.403433,2252,3698,1446,2252,0,89.606,5,normal
1780594811.975143,21.385779399992316,21556,0.048584,-0.052002,1.047852,2.847328,3.045802,-0.335878,1.050265,4.182942,2254,3703,1449,2254,1,89.606,14,normal
1780594812.0060444,21.416680900001666,21587,0.044922,0.022705,1.053711,0.694656,2.625954,-0.816794,1.054912,2.83643,2259,3710,1451,2259,0,89.606,0,normal
1780594812.036217,21.446853300003568,21618,0.025146,-0.052734,1.060791,1.183206,2.312977,-1.435114,1.062399,2.968062,2261,3714,1453,2261,0,89.606,1,normal
1780594812.0681508,21.478787100000773,21649,0.051758,-0.038086,1.066162,2.816794,3.206107,0.29771,1.068097,4.278093,2264,3720,1456,2264,0,100.0,6,normal
1780594812.09852,21.509156500003883,21680,0.060303,0.012207,1.054688,0.442748,3.526718,-0.78626,1.05648,3.640325,2268,3726,1458,2268,0,100.0,0,normal
1780594812.130789,21.54142549999233,21712,0.037354,-0.063232,1.042236,2.030534,2.748092,-0.717557,1.044821,3.491413,2269,3729,1460,2269,1,100.0,18,normal
1780594812.1608768,21.57151320000412,21743,0.04248,0.000732,1.043457,1.854962,2.290076,-0.580153,1.044322,3.00365,2274,3736,1462,2274,0,100.0,0,normal
1780594812.1929402,21.603576699999394,21774,0.029297,-0.039062,1.05127,0.396947,2.78626,-1.343511,1.052403,3.118626,2276,3740,1464,2276,0,100.0,1,normal
1780594812.222636,21.633272499995655,21805,0.044434,-0.022461,1.047852,3.236641,3.274809,0.007634,1.049034,4.604376,2279,3745,1466,2279,1,100.0,14,normal
1780594812.2535317,21.664168100003735,21836,0.040283,-0.007324,1.041504,0.351145,2.938931,-1.259542,1.042308,3.216685,2284,3752,1468,2284,0,100.0,0,normal
1780594812.2852533,21.695889599999646,21867,0.056641,-0.05127,1.048828,1.839695,2.427481,-0.984733,1.051607,3.201068,2286,3756,1470,2286,0,100.0,1,normal
1780594812.3167908,21.727427299992996,21898,0.047119,-0.030029,1.061035,2.19084,3.038168,-0.40458,1.062505,3.767483,2291,3762,1471,2291,0,100.0,5,normal
1780594812.3470037,21.757640099996934,21929,0.057373,-0.001465,1.067383,0.320611,4.099236,-1.045802,1.068925,4.242668,2295,3768,1473,2295,0,110.714,0,normal
1780594812.3784478,21.789084299991373,21960,0.030762,-0.061035,1.041016,2.091603,2.480916,-0.526718,1.043257,3.287428,2297,3773,1476,2297,1,110.714,13,normal
1780594812.4089437,21.81958009999653,21991,0.034668,0.006836,1.048584,1.496183,2.312977,-0.030534,1.049179,2.754879,2302,3780,1478,2302,0,110.714,0,normal
1780594812.4406536,21.851289999991423,22022,0.033447,-0.035156,1.060303,0.961832,2.671756,-1.167939,1.061412,3.07042,2304,3784,1480,2304,0,110.714,0,normal
1780594812.4722152,21.882851699992898,22053,0.043945,-0.02124,1.049316,3.374046,3.694656,0.137405,1.050451,5.005352,2307,3789,1482,2307,1,110.714,14,normal
1780594812.5020986,21.91273499999079,22084,0.045654,-0.008301,1.043457,0.061069,3.114504,-1.022901,1.044488,3.278748,2312,3796,1484,2312,0,110.714,0,normal
1780594812.532925,21.943561199994292,22115,0.061035,-0.049316,1.05957,1.80916,3.137405,-1.0,1.062472,3.757176,2314,3800,1486,2314,0,110.714,1,normal
1780594812.564593,21.975229499992565,22146,0.057129,-0.028076,1.062744,2.320611,2.824427,-0.206107,1.064649,3.661298,2318,3806,1488,2318,0,110.714,5,normal
1780594812.5950034,22.00563990000228,22177,0.053223,-0.003174,1.068848,0.755725,3.740458,-1.038168,1.070177,3.954736,2322,3812,1490,2322,0,110.714,0,normal
1780594812.626881,22.037517399992794,22208,0.038574,-0.069092,1.031494,2.145038,2.778626,-0.427481,1.034525,3.536197,2324,3817,1493,2324,1,103.943,13,normal
1780594812.6564014,22.06703779999225,22239,0.025635,0.008545,1.04248,1.618321,2.450382,-0.496183,1.042831,2.978176,2329,3824,1495,2329,0,103.943,1,normal
1780594812.687653,22.098289499990642,22270,0.032471,-0.039307,1.050781,0.793893,2.381679,-1.145038,1.052017,2.759307,2331,3828,1497,2331,0,103.943,0,normal
1780594812.7195945,22.1302308000013,22301,0.044922,-0.020752,1.049072,2.969466,3.145038,0.053435,1.050239,4.32572,2334,3833,1499,2334,1,103.943,13,normal
1780594812.7494793,22.16011559999606,22332,0.03418,-0.01001,1.037598,0.229008,2.633588,-1.328244,1.038209,2.958456,2339,3840,1501,2339,0,103.943,1,normal
1780594812.7870662,22.197702599994955,22368,0.033936,-0.038818,1.053467,1.900763,2.847328,-0.961832,1.054728,3.556023,2342,3846,1504,2342,0,103.943,1,normal
1780594812.818691,22.22932739999669,22400,0.044189,-0.01123,1.046387,0.183206,3.061069,-0.931298,1.04738,3.204844,2346,3852,1506,2346,0,103.943,0,normal
1780594812.8498201,22.26045649999287,22431,0.048584,-0.042969,1.050781,2.167939,3.053435,-0.732824,1.052781,3.815817,2348,3857,1509,2348,1,103.943,14,normal
1780594812.88321,22.29384630000277,22463,0.036865,-0.014893,1.057617,1.648855,2.480916,-0.564886,1.058364,3.031957,2353,3864,1511,2353,0,113.725,0,normal
1780594812.913325,22.32396159999189,22495,0.044922,-0.033203,1.061279,0.618321,2.78626,-1.526718,1.062748,3.236731,2355,3868,1513,2355,0,113.725,1,normal
1780594812.9449995,22.355635799991433,22526,0.049561,-0.023682,1.054932,3.526718,3.21374,0.343511,1.056361,4.783708,2358,3873,1515,2358,1,113.725,14,normal
1780594812.9919796,22.402616099992883,22557,0.048584,-0.011719,1.045654,-0.015267,3.374046,-1.129771,1.046848,3.558202,2363,3880,1517,2363,0,113.725,0,normal
1780594813.0070815,22.417717899996205,22588,0.043945,-0.041016,1.049561,2.145038,2.267176,-1.274809,1.05128,3.371411,2365,3884,1519,2365,0,113.725,1,normal
1780594813.0376902,22.448326500001713,22619,0.042236,-0.033203,1.053711,2.389313,2.732824,-0.40458,1.05508,3.65251,2370,3890,1520,2370,0,113.725,5,normal
1780594813.0679913,22.478627799995593,22650,0.03833,0.006348,1.061279,0.687023,4.015268,-0.748092,1.06199,4.14174,2374,3896,1522,2374,0,113.725,0,normal
1780594813.099067,22.50970339999185,22681,0.029541,-0.067139,1.044678,2.038168,2.221374,-0.229008,1.04725,3.023421,2376,3901,1525,2376,1,113.725,13,normal
1780594813.1303391,22.54097560000082,22712,0.041748,0.005859,1.052246,1.51145,2.656489,-0.290076,1.05309,3.070107,2381,3908,1527,2381,0,113.725,1,normal
1780594813.1608026,22.571438999992097,22743,0.039307,-0.049316,1.056885,0.778626,2.396947,-0.961832,1.058765,2.697542,2383,3912,1529,2383,0,107.143,0,normal
1780594813.1927123,22.603348699994967,22774,0.058838,-0.01709,1.053467,3.061069,3.389313,0.10687,1.055247,4.56826,2386,3917,1531,2386,1,107.143,13,normal
1780594813.2224216,22.63305799999216,22805,0.041504,-0.00415,1.050293,0.465649,2.80916,-1.564886,1.051121,3.249166,2391,3924,1533,2391,0,107.143,0,normal
1780594813.255652,22.666288299995358,22836,0.052734,-0.042236,1.057373,2.412214,2.770992,-0.610687,1.059529,3.72426,2392,3927,1535,2392,1,107.143,17,normal
1780594813.2861164,22.696752899995772,22868,0.030273,-0.017334,1.043945,2.129771,2.679389,-0.274809,1.044528,3.43374,2397,3934,1537,2397,0,107.143,1,normal
1780594813.3177257,22.7283621999959,22900,0.036377,-0.03418,1.059814,0.519084,3.206107,-1.267176,1.060989,3.486302,2399,3938,1539,2399,0,107.143,0,normal
1780594813.3498015,22.76043799999752,22931,0.059082,-0.026855,1.055908,2.725191,3.793893,-0.236641,1.057901,4.67721,2402,3943,1541,2402,1,107.143,13,normal
1780594813.3798125,22.79044879999128,22962,0.049805,0.001465,1.042969,0.641221,2.763359,-0.946565,1.044158,2.990536,2407,3950,1543,2407,0,107.143,1,normal
1780594813.4112554,22.821891799991135,22993,0.030029,-0.043457,1.056396,1.717557,2.641221,-1.259542,1.057716,3.393007,2409,3954,1545,2409,0,104.0,0,normal
1780594813.4418774,22.852513899997575,23024,0.053467,-0.034912,1.06543,2.427481,3.038168,0.083969,1.067342,3.889753,2412,3958,1546,2412,0,104.0,6,normal
1780594813.4727561,22.883392499992624,23055,0.042725,0.031982,1.060547,0.290076,3.618321,-0.725191,1.061889,3.701661,2416,3964,1548,2416,0,104.0,1,normal
1780594813.5045135,22.91515000000072,23086,0.046143,-0.063477,1.043945,2.381679,2.541985,-0.541985,1.046891,3.525313,2418,3969,1551,2418,1,104.0,14,normal
1780594813.536122,22.946758499994758,23118,0.055664,0.001709,1.050293,1.748092,2.229008,-0.610687,1.051768,2.897799,2430,3982,1552,2430,0,104.0,1,normal
1780594813.5668902,22.977526599992416,23149,0.032471,-0.05835,1.051514,0.572519,2.396947,-1.328244,1.053632,2.799529,2432,3986,1554,2432,0,104.0,1,normal
1780594813.59801,23.0086464999913,23180,0.038086,-0.014893,1.052002,3.381679,3.305344,-0.236641,1.052796,4.734665,2436,3992,1556,2436,0,104.0,6,normal
1780594813.6291225,23.039758999992046,23211,0.047852,-0.009521,1.049805,0.244275,3.183206,-1.068702,1.050938,3.366689,2440,3998,1558,2440,0,104.0,0,normal
1780594813.6596246,23.070260899999994,23242,0.058594,-0.044922,1.048096,2.076336,2.740458,-0.671756,1.050693,3.503218,2442,4003,1561,2442,1,104.0,13,normal
1780594813.6921623,23.10279879999871,23273,0.041992,-0.033691,1.061279,2.091603,2.549618,-0.320611,1.062644,3.313329,2447,4010,1563,2447,0,135.714,0,normal
1780594813.722853,23.13348930000211,23305,0.035645,-0.008057,1.060303,0.603053,3.007634,-0.839695,1.060932,3.180349,2448,4012,1564,2448,0,135.714,5,normal
1780594813.754793,23.16542940000363,23336,0.058105,-0.06543,1.04834,3.015267,2.877863,-0.450382,1.051986,4.192466,2450,4017,1567,2450,1,135.714,14,normal
1780594813.7848077,23.195444099997985,23367,0.052002,0.000977,1.050537,0.938931,2.519084,-1.015267,1.051824,2.873698,2455,4024,1569,2455,0,135.714,0,normal
1780594813.816559,23.22719550000329,23398,0.04126,-0.041504,1.048584,1.748092,2.885496,-1.48855,1.050216,3.687505,2457,4028,1571,2457,0,135.714,1,normal
1780594813.8478732,23.258509699997376,23429,0.061279,-0.021729,1.060059,2.59542,2.954198,-0.030534,1.062051,3.932484,2460,4034,1574,2460,0,135.714,6,normal
1780594813.878584,23.289220299993758,23460,0.056396,0.021484,1.067871,0.267176,3.740458,-0.900763,1.069575,3.856654,2464,4040,1576,2464,0,135.714,0,normal
1780594813.9299316,23.34056799999962,23491,0.027344,-0.048828,1.041748,2.519084,2.396947,-0.709924,1.04325,3.548962,2465,4043,1578,2465,1,135.714,17,normal
1780594813.9401355,23.350771999990684,23522,0.022705,-0.004639,1.044678,1.503817,2.145038,-0.526718,1.044935,2.672094,2470,4050,1580,2470,0,135.714,0,normal
1780594813.9714017,23.382038199997623,23553,0.037842,-0.02417,1.063965,0.381679,2.48855,-1.038168,1.064912,2.723298,2472,4054,1582,2472,0,89.286,0,normal
1780594814.002572,23.41320860000269,23584,0.046631,-0.056641,1.057373,2.839695,3.167939,-0.221374,1.059915,4.26013,2474,4059,1585,2474,1,89.286,13,normal
1780594814.032707,23.443343299994012,23615,0.052734,-0.003906,1.044434,0.732824,2.541985,-1.068702,1.045771,2.853216,2479,4066,1587,2479,0,89.286,0,normal
1780594814.0649302,23.475566599998274,23646,0.035156,-0.037842,1.064941,1.633588,2.748092,-1.10687,1.066193,3.383161,2481,4070,1589,2481,0,89.286,0,normal
1780594814.0949159,23.505552200003876,23677,0.054688,-0.033447,1.0625,2.473282,3.167939,-0.099237,1.064432,4.0203,2484,4074,1590,2484,0,89.286,5,normal
1780594814.1263444,23.536980799995945,23708,0.048584,0.018799,1.070312,0.496183,3.496183,-1.427481,1.071579,3.808832,2488,4080,1592,2488,0,89.286,0,normal
1780594814.157526,23.568162399998982,23739,0.033447,-0.057373,1.044434,2.618321,2.48855,-0.328244,1.046543,3.627152,2490,4085,1595,2490,1,89.286,13,normal
1780594814.1886914,23.59932779999508,23770,0.024902,0.02002,1.052002,1.587786,2.435115,-0.40458,1.052487,2.935053,2495,4092,1597,2495,0,89.286,1,normal
1780594814.2189968,23.629633099990315,23801,0.032471,-0.033936,1.060303,0.664122,2.541985,-1.076336,1.061342,2.839233,2497,4096,1599,2497,0,89.286,0,normal
1780594814.2505221,23.661158599992632,23832,0.047852,-0.039795,1.047852,2.748092,3.465649,-0.496183,1.049698,4.450722,2500,4101,1601,2500,1,100.358,14,normal
1780594814.280727,23.69136339999386,23863,0.048584,0.004395,1.054932,0.549618,2.656489,-0.946565,1.056059,2.873151,2503,4106,1603,2503,0,100.358,0,normal
1780594814.3130126,23.723649099993054,23894,0.045166,-0.037109,1.052734,1.870229,2.755725,-1.076336,1.054356,3.50004,2505,4110,1605,2505,0,100.358,0,normal
1780594814.3431125,23.753748799994355,23925,0.06543,-0.032471,1.05957,2.633588,3.114504,-0.183206,1.062085,4.082828,2510,4116,1606,2510,0,100.358,6,normal
1780594814.3737478,23.784384300000966,23956,0.064453,0.008057,1.067871,0.465649,3.870229,-0.816794,1.069845,3.982795,2514,4122,1608,2514,0,100.358,1,normal
1780594814.4055068,23.81614319999062,23987,0.032715,-0.057861,1.046631,2.358779,2.725191,-0.374046,1.048739,3.623591,2516,4127,1611,2516,1,100.358,14,normal
1780594814.4353395,23.84597589999612,24018,0.023438,-0.000977,1.040772,1.435114,2.244275,-0.465649,1.041036,2.704284,2520,4132,1612,2520,0,100.358,6,normal
1780594814.4669375,23.877573899997515,24049,0.02124,-0.032715,1.057373,0.839695,2.854962,-1.343511,1.058092,3.265106,2522,4136,1614,2522,0,100.358,1,normal
1780594814.4980712,23.908707499998854,24080,0.055908,-0.025635,1.058838,2.847328,2.961832,-0.152672,1.060623,4.11133,2525,4141,1616,2525,1,100.358,14,normal
1780594814.5300667,23.940703200001735,24111,0.046631,-0.015625,1.040772,0.145038,3.099237,-1.152672,1.041933,3.309827,2530,4148,1618,2530,0,107.527,0,normal
1780594814.5609007,23.97153709999111,24143,0.043457,-0.038086,1.051514,2.351145,2.40458,-0.694656,1.0531,3.434012,2532,4153,1621,2532,1,107.527,13,normal
1780594814.5915487,24.0021851999918,24174,0.049316,-0.019287,1.05835,2.0,2.694656,-0.725191,1.059673,3.433231,2537,4160,1623,2537,0,107.527,0,normal
1780594814.6223276,24.032963999998174,24205,0.04541,0.006836,1.064941,0.916031,3.832061,-0.954198,1.065931,4.053924,2539,4164,1625,2539,0,107.527,1,normal
1780594814.6542149,24.06485129999055,24236,0.059814,-0.077637,1.048096,2.129771,3.137405,-0.21374,1.052668,3.798015,2541,4169,1628,2541,1,107.527,14,normal
1780594814.6845348,24.095171299995854,24267,0.050049,0.006104,1.053223,1.145038,2.679389,-0.877863,1.054429,3.04317,2546,4176,1630,2546,0,107.527,0,normal
1780594814.7169175,24.127553999991505,24298,0.035156,-0.050537,1.050049,0.877863,2.709924,-0.725191,1.051852,2.939427,2548,4180,1632,2548,0,107.527,1,normal
1780594814.7494326,24.160069099991233,24330,0.053467,-0.034424,1.067871,2.572519,3.801527,-0.229008,1.069763,4.595857,2552,4186,1634,2552,0,107.527,6,normal
1780594814.7800534,24.190689800001564,24362,0.057373,0.005859,1.063477,0.748092,3.717557,-0.946565,1.065039,3.908434,2556,4192,1636,2556,0,103.586,0,normal
1780594814.8111706,24.221807099995203,24393,0.036377,-0.067139,1.03125,2.229008,2.351145,-0.351145,1.034073,3.258782,2558,4197,1639,2558,1,103.586,13,normal
1780594814.8416855,24.252321899999515,24424,0.032471,0.00293,1.064209,1.534351,2.29771,-0.48855,1.064708,2.805777,2563,4204,1641,2563,0,103.586,0,normal
1780594814.8715248,24.282161299997824,24454,0.051514,0.004639,1.061035,0.305344,2.816794,-1.282443,1.062295,3.11002,2565,4208,1643,2565,0,103.586,1,normal
1780594814.903212,24.31384839999373,24485,0.056152,-0.03418,1.053955,2.51145,3.801527,-0.259542,1.056003,4.56359,2567,4213,1646,2567,1,103.586,14,normal
1780594814.9334686,24.34410509999725,24516,0.056396,0.007568,1.049316,0.717557,2.618321,-0.839695,1.050858,2.841756,2572,4220,1648,2572,0,103.586,0,normal
1780594814.964445,24.37508149999485,24547,0.037598,-0.061768,1.052978,1.648855,2.59542,-1.129771,1.055458,3.275868,2574,4224,1650,2574,0,103.586,1,normal
1780594814.996968,24.407604499996523,24578,0.044678,-0.022705,1.067139,2.763359,3.175573,-0.083969,1.068315,4.2104,2578,4230,1652,2578,0,103.586,5,normal
1780594815.0274575,24.438093999997363,24610,0.059082,0.0,1.068115,0.709924,3.564885,-1.129771,1.069748,3.806413,2582,4236,1654,2582,0,103.586,0,normal
