host_epoch_s,host_elapsed_s,time_ms,ax,ay,az,gx,gy,gz,acc_mag,gyro_mag,pulse_count,edge_count,rise_count,fall_count,state,pulse_rate_hz,last_edge_dt_ms,label
1780603836.290273,0.010083100001793355,2746268,0.019775,-0.0354,1.059326,1.473282,2.145038,-1.015267,1.060102,2.793299,5792,10063,4270,5792,0,68.1,5,normal
1780603836.3219883,0.0417985999956727,2746299,0.05127,-0.018799,1.053223,3.099237,2.725191,-0.679389,1.054637,4.182524,5795,10068,4272,5795,1,68.1,18,normal
1780603836.3532724,0.07308269999339245,2746330,0.048828,-0.018066,1.039062,1.450382,2.900763,-0.557252,1.040366,3.290678,5797,10071,4273,5797,0,68.1,5,normal
1780603836.3835158,0.10332609999750275,2746361,0.029541,-0.024902,1.060059,0.778626,2.160305,-0.961832,1.060762,2.489638,5798,10073,4274,5798,0,68.1,6,normal
1780603836.4145854,0.13439549999020528,2746392,0.050293,-0.003174,1.047363,2.259542,3.282443,-0.465649,1.048575,4.01208,5799,10076,4276,5799,1,68.1,18,normal
1780603836.4439607,0.1637707999907434,2746422,0.046143,-0.024658,1.053223,1.70229,2.732824,-0.78626,1.054521,3.314261,5802,10081,4278,5802,0,68.1,5,normal
1780603836.474702,0.19451220000337344,2746452,0.053955,-0.003662,1.058594,0.435114,2.725191,-0.877863,1.059974,2.895968,5803,10083,4279,5803,0,68.1,6,normal
1780603836.5102422,0.23005250000278465,2746483,0.050537,-0.054199,1.050293,1.862595,2.419847,-0.328244,1.052904,3.071265,5804,10086,4281,5804,1,68.1,18,normal
1780603836.5359828,0.255793199990876,2746514,0.030273,-0.006104,1.065186,1.290076,2.625954,-0.984733,1.065633,3.08701,5806,10089,4282,5806,0,68.1,5,normal
1780603836.567335,0.28714519999630284,2746545,0.049805,-0.011719,1.04126,0.549618,3.083969,-0.740458,1.042516,3.218886,5807,10091,4283,5807,0,54.152,6,normal
1780603836.5992162,0.3190265000012005,2746576,0.055908,-0.065918,1.036621,1.70229,2.580153,-0.022901,1.040218,3.091198,5808,10096,4287,5808,1,54.152,18,normal
1780603836.6305776,0.35038769998936914,2746607,0.035889,-0.015625,1.054199,1.580153,2.534351,-0.793893,1.054926,3.090321,5810,10099,4288,5810,0,54.152,6,normal
1780603836.6617548,0.38156519999029115,2746638,0.043701,0.016846,1.057617,0.343511,3.427481,-0.557252,1.058654,3.489435,5811,10101,4289,5811,0,54.152,5,normal
1780603836.6924133,0.4122235999966506,2746669,0.03418,-0.056152,1.059326,1.839695,2.534351,-0.290076,1.061364,3.145084,5812,10104,4291,5812,1,54.152,18,normal
1780603836.723885,0.44369519999600016,2746700,0.039795,-0.020996,1.044922,2.061069,2.374046,-0.824427,1.04589,3.250197,5815,10109,4293,5815,0,54.152,6,normal
1780603836.7548656,0.4746759999979986,2746731,0.04248,0.011963,1.057617,0.679389,3.343511,-1.076336,1.058538,3.577588,5816,10111,4294,5816,0,54.152,5,normal
1780603836.786226,0.5060361999931047,2746762,0.044189,-0.043945,1.042725,1.832061,2.748092,-0.045802,1.044585,3.303113,5817,10114,4296,5817,1,54.152,18,normal
1780603836.8164527,0.5362629000010202,2746793,0.051758,-0.01123,1.058838,2.053435,2.358779,-0.70229,1.060162,3.205253,5819,10117,4297,5819,0,54.152,5,normal
1780603836.8472571,0.5670672999985982,2746824,0.053467,0.006348,1.053711,0.435114,3.442748,-0.78626,1.055086,3.558096,5820,10119,4298,5820,0,46.595,5,normal
1780603836.8780167,0.5978268999897409,2746855,0.047852,-0.046387,1.040283,1.977099,2.80916,-0.435114,1.042416,3.462604,5821,10124,4302,5821,1,46.595,18,normal
1780603836.9084907,0.6283009000035236,2746886,0.040771,-0.00293,1.057617,2.343511,2.48855,-0.557252,1.058407,3.463446,5823,10127,4303,5823,0,46.595,5,normal
1780603836.939791,0.6596012999943923,2746917,0.051758,0.005371,1.061768,0.778626,3.19084,-0.80916,1.063042,3.38267,5824,10129,4304,5824,0,46.595,5,normal
1780603836.971095,0.6909052999981213,2746948,0.046631,-0.044922,1.046387,1.992366,2.274809,-0.526718,1.048388,3.069481,5825,10132,4306,5825,1,46.595,18,normal
1780603837.0022085,0.7220185999904061,2746979,0.041992,-0.001465,1.053955,2.19084,3.122137,-0.801527,1.054792,3.897431,5828,10137,4308,5828,0,46.595,5,normal
1780603837.033461,0.7532712999964133,2747010,0.049316,0.008545,1.05542,0.732824,3.320611,-1.08397,1.056606,3.5691,5829,10139,4309,5829,0,46.595,6,normal
1780603837.0648181,0.7846283999970183,2747041,0.049561,-0.03418,1.043213,2.51145,2.335878,-0.137405,1.044949,3.432577,5830,10141,4310,5830,0,46.595,4,normal
1780603837.095702,0.8155122000025585,2747072,0.051758,-0.007568,1.064941,2.641221,2.885496,-0.748092,1.066225,3.982685,5833,10145,4311,5833,0,46.595,6,normal
1780603837.12707,0.8468800999980886,2747103,0.053955,0.015137,1.048828,0.89313,3.450382,-0.648855,1.050324,3.622682,5834,10147,4312,5834,0,50.179,5,normal
1780603837.1571293,0.8769395999988774,2747134,0.036377,-0.036621,1.045898,2.274809,2.175573,-0.572519,1.047171,3.19932,5835,10151,4315,5835,0,50.179,3,normal
1780603837.1880229,0.9078329999902053,2747165,0.057129,0.000488,1.058106,2.290076,2.717557,-0.755725,1.059647,3.633275,5838,10155,4316,5838,0,50.179,6,normal
1780603837.2184312,0.9382416000007652,2747196,0.046143,-0.004883,1.048828,0.694656,3.274809,-0.969466,1.049854,3.485224,5839,10157,4317,5839,0,50.179,5,normal
1780603837.249249,0.9690592999977525,2747226,0.038086,-0.03125,1.039795,1.793893,2.580153,-0.778626,1.040961,3.237514,5840,10159,4318,5840,0,50.179,4,normal
1780603837.2813237,1.001133799989475,2747257,0.06543,-0.027344,1.056396,2.496183,3.580153,-0.80916,1.058774,4.438824,5844,10165,4320,5844,0,50.179,6,normal
1780603837.3101163,1.0299265999929048,2747288,0.045654,-0.0271,1.046387,0.419847,2.923664,-1.175572,1.047733,3.179002,5845,10167,4321,5845,0,50.179,5,normal
1780603837.3424966,1.0623070000001462,2747319,0.05127,-0.028564,1.052978,1.969466,2.80916,-0.984733,1.054613,3.569296,5846,10169,4322,5846,0,50.179,6,normal
1780603837.3743074,1.0941176999913296,2747350,0.058838,-0.015625,1.05957,2.931298,2.977099,-0.900763,1.061318,4.273991,5849,10173,4323,5849,0,50.179,5,normal
1780603837.404722,1.1245322999893688,2747381,0.050049,-0.028809,1.043945,0.320611,2.816794,-1.08397,1.045541,3.035146,5850,10175,4324,5850,0,57.554,5,normal
1780603837.4363735,1.1561837999906857,2747412,0.052002,-0.030518,1.047363,2.335878,3.21374,-1.175572,1.049097,4.143238,5851,10179,4327,5851,0,57.554,5,normal
1780603837.465903,1.1857133000012254,2747443,0.046875,-0.030273,1.061768,2.534351,3.48855,-0.938931,1.063233,4.412993,5854,10183,4328,5854,0,57.554,5,normal
1780603837.4991312,1.218941500002984,2747475,0.048096,-0.025391,1.052734,0.839695,2.916031,-1.022901,1.054138,3.202288,5855,10185,4329,5855,0,57.554,5,normal
1780603837.5290048,1.2488150999997742,2747506,0.048096,-0.02832,1.052978,1.954198,2.496183,-1.022901,1.054457,3.331088,5856,10187,4330,5856,0,57.554,5,normal
1780603837.5602763,1.2800866000034148,2747537,0.096191,-0.059082,1.005615,2.946565,3.618321,0.061069,1.011932,4.666714,5860,10193,4332,5860,0,57.554,6,normal
1780603837.5915775,1.3113878000003751,2747568,0.04126,-0.02124,1.02832,0.694656,2.816794,-1.137405,1.029367,3.116178,5861,10195,4333,5861,0,57.554,6,normal
1780603837.62287,1.342680100002326,2747599,0.040039,-0.025879,1.062012,1.335878,1.832061,-1.21374,1.063081,2.571806,5862,10197,4334,5862,0,57.554,5,normal
1780603837.6524792,1.3722892999940086,2747630,0.052002,-0.001709,1.033447,2.450382,3.10687,-0.793893,1.034756,4.03575,5865,10201,4335,5865,0,57.554,6,normal
1780603837.6829305,1.4027405999950133,2747660,0.034668,-0.015625,1.067383,0.473282,2.549618,-1.290076,1.06806,2.896351,5866,10203,4336,5866,0,57.348,5,normal
1780603837.714843,1.434653199990862,2747691,0.046143,-0.034668,1.061768,1.946565,3.030534,-0.969466,1.063335,3.730029,5868,10207,4338,5868,0,57.348,5,normal
1780603837.7473016,1.4671118999976898,2747723,0.052734,-0.023682,1.060303,2.687023,3.274809,-0.969466,1.061877,4.34561,5871,10211,4339,5871,0,57.348,6,normal
1780603837.7777195,1.4975296999909915,2747754,0.043457,-0.033691,1.049805,0.78626,2.89313,-0.961832,1.051244,3.148575,5874,10215,4340,5874,0,57.348,5,normal
1780603837.8078682,1.5276785000023665,2747785,0.047852,-0.032471,1.050781,1.816794,2.801527,-0.885496,1.052371,3.454475,5875,10217,4341,5875,0,57.348,4,normal
1780603837.8399053,1.5597154999995837,2747816,0.060303,-0.019531,1.059326,2.938931,3.122137,-0.709924,1.061221,4.346154,5879,10223,4343,5879,0,57.348,5,normal
1780603837.870439,1.5902493000030518,2747847,0.038574,-0.0271,1.044434,0.21374,2.48855,-0.984733,1.045497,2.684821,5882,10227,4344,5882,0,57.348,5,normal
1780603837.9022312,1.6220414999988861,2747878,0.053955,-0.029297,1.06543,2.114504,2.603053,-1.358779,1.067197,3.618466,5884,10231,4346,5884,0,57.348,0,normal
1780603837.9327652,1.6525754999893252,2747909,0.060547,-0.016113,1.062012,2.618321,3.755725,-0.770992,1.063858,4.64279,5887,10235,4347,5887,0,57.348,5,normal
1780603837.9639983,1.683808499990846,2747941,0.044678,-0.022705,1.040527,0.465649,2.938931,-0.992366,1.041734,3.136708,5888,10237,4348,5888,0,78.292,5,normal
1780603837.9958532,1.7156633999984479,2747972,0.03833,-0.030029,1.050049,2.358779,2.465649,-0.564886,1.051177,3.458664,5890,10243,4352,5890,0,78.292,1,normal
1780603838.0270984,1.7469086999917636,2748003,0.049805,-0.01001,1.060303,2.709924,2.396947,-0.854962,1.061519,3.717526,5893,10247,4353,5893,0,78.292,5,normal
1780603838.0582306,1.7780409999977564,2748034,0.052002,-0.015381,1.05249,0.564886,3.083969,-1.038168,1.053886,3.302689,5896,10251,4354,5896,0,78.292,5,normal
1780603838.0864265,1.8062367999955313,2748065,0.043213,-0.030762,1.049561,2.061069,2.70229,-0.496183,1.0509,3.434614,5898,10255,4356,5898,0,78.292,0,normal
1780603838.118603,1.838413199991919,2748095,0.044189,-0.022217,1.052978,2.603053,3.114504,-1.099237,1.05414,4.205276,5902,10261,4358,5902,0,78.292,5,normal
1780603838.1490736,1.8688838999951258,2748126,0.043701,-0.025879,1.045166,0.618321,2.78626,-1.167939,1.046399,3.083771,5904,10265,4360,5904,0,78.292,6,normal
1780603838.1797378,1.8995480000012321,2748157,0.042969,-0.037354,1.055664,2.129771,2.412214,-1.435114,1.057198,3.523387,5906,10269,4362,5906,0,78.292,1,normal
1780603838.2119248,1.9317350999917835,2748188,0.044189,-0.035156,1.051758,2.748092,3.709924,-1.007634,1.053273,4.725555,5909,10273,4363,5909,0,78.292,6,normal
1780603838.2435606,1.9633707999892067,2748220,0.040527,-0.023193,1.052002,0.725191,2.801527,-0.847328,1.053038,3.015364,5912,10277,4364,5912,0,86.022,6,normal
1780603838.2746449,1.9944549999927403,2748251,0.035156,-0.031982,1.040527,2.259542,2.824427,-0.664122,1.041612,3.677496,5914,10283,4368,5914,0,86.022,1,normal
1780603838.306739,2.026549399990472,2748283,0.044434,-0.002441,1.056885,2.671756,2.427481,-0.78626,1.057821,3.694475,5917,10287,4369,5917,0,86.022,6,normal
1780603838.335926,2.0557361999963177,2748314,0.041504,0.009521,1.052246,0.885496,3.0,-0.984733,1.053107,3.279299,5920,10291,4370,5920,0,86.022,6,normal
1780603838.3668537,2.0866640000022016,2748344,0.04248,-0.033447,1.053467,1.89313,2.709924,-1.198473,1.054853,3.516243,5922,10295,4372,5922,0,86.022,1,normal
1780603838.3985076,2.1183178999926895,2748375,0.044434,-0.01416,1.060303,2.419847,3.274809,-0.51145,1.061328,4.103854,5925,10299,4373,5925,0,86.022,6,normal
1780603838.444966,2.1647763999935705,2748406,0.045654,-0.011475,1.050049,0.366412,2.740458,-1.129771,1.051104,2.986762,5927,10303,4375,5927,0,86.022,6,normal
1780603838.4609792,2.180789399993955,2748437,0.050049,-0.034912,1.054199,2.274809,2.931298,-0.961832,1.055964,3.833064,5929,10307,4377,5929,0,86.022,1,normal
1780603838.4912732,2.2110832999896957,2748468,0.050537,-0.027588,1.056152,2.824427,2.755725,-0.954198,1.057721,4.059791,5932,10311,4378,5932,0,86.022,6,normal
1780603838.5228343,2.2426445000019157,2748500,0.041992,0.000977,1.04248,0.824427,3.19084,-0.816794,1.043326,3.395334,5935,10315,4379,5935,0,82.143,5,normal
1780603838.5542402,2.2740504999965196,2748531,0.047607,-0.026855,1.039062,2.274809,2.862595,-0.274809,1.040499,3.666706,5937,10319,4381,5937,0,82.143,0,normal
1780603838.5858998,2.305710000000545,2748562,0.042236,-0.004883,1.05127,2.541985,2.847328,-0.78626,1.052129,3.897072,5940,10323,4382,5940,0,82.143,6,normal
1780603838.6160672,2.3358774999942398,2748593,0.053223,0.011719,1.053711,0.70229,3.175573,-1.0,1.055119,3.402568,5941,10325,4383,5941,0,82.143,5,normal
1780603838.6466434,2.3664535999996588,2748623,0.04126,-0.032471,1.046143,1.908397,2.656489,-1.366412,1.047459,3.544854,5943,10329,4385,5943,0,82.143,0,normal
1780603838.6767395,2.39654960000189,2748654,0.056641,-0.006836,1.061035,2.694656,2.89313,-0.732824,1.062568,4.020995,5946,10333,4386,5946,0,82.143,6,normal
1780603838.707878,2.4276883999991696,2748685,0.047607,-0.017578,1.050049,0.618321,2.89313,-0.458015,1.051274,2.99371,5948,10337,4388,5948,0,82.143,5,normal
1780603838.7389367,2.458746999996947,2748716,0.04541,-0.036865,1.050049,1.648855,2.847328,-0.908397,1.051676,3.413383,5949,10339,4389,5949,0,82.143,5,normal
1780603838.7707758,2.490585999999894,2748747,0.048096,-0.032471,1.058106,2.610687,3.152672,-0.862595,1.059696,4.183192,5952,10343,4390,5952,0,82.143,6,normal
1780603838.8017108,2.5215211999893654,2748778,0.043457,-0.030029,1.042969,0.366412,2.694656,-0.885496,1.044306,2.859988,5953,10345,4391,5953,0,64.748,5,normal
1780603838.8323526,2.55216289999953,2748809,0.060547,-0.034912,1.047852,1.992366,2.580153,-1.0,1.05018,3.409796,5955,10349,4393,5955,0,64.748,0,normal
1780603838.8636837,2.5834938999905717,2748840,0.05249,-0.025391,1.069336,2.572519,3.21374,-0.793893,1.070924,4.192404,5958,10353,4394,5958,0,64.748,5,normal
1780603838.8948925,2.6147026999969967,2748871,0.032715,-0.023926,1.046143,0.679389,2.824427,-0.900763,1.046927,3.041436,5959,10355,4395,5959,0,64.748,5,normal
1780603838.9251018,2.6449120999895968,2748902,0.037354,-0.031738,1.052246,1.91603,2.625954,-1.183206,1.053387,3.459304,5960,10357,4396,5960,0,64.748,5,normal
1780603838.9568279,2.67663819999143,2748933,0.051758,-0.040771,1.05957,2.412214,2.961832,-0.633588,1.061617,3.872036,5963,10361,4397,5963,0,64.748,6,normal
1780603838.9872186,2.7070287999958964,2748964,0.043945,-0.014404,1.045166,0.519084,2.732824,-1.19084,1.046189,3.025868,5965,10365,4399,5965,0,64.748,5,normal
1780603839.0175421,2.7373523999995086,2748995,0.036865,-0.032959,1.055908,1.854962,2.89313,-1.29771,1.057066,3.673572,5966,10367,4400,5966,0,64.748,5,normal
1780603839.0485883,2.7683984999894165,2749025,0.039551,-0.015869,1.053223,2.503817,3.335878,-0.534351,1.054084,4.205082,5968,10370,4401,5968,1,64.748,16,normal
1780603839.0796666,2.7994767999916803,2749056,0.031006,-0.011719,1.050293,0.381679,2.267176,-1.08397,1.050816,2.541802,5970,10373,4402,5970,0,61.151,5,normal
1780603839.110922,2.8307323999906657,2749087,0.047119,-0.04126,1.067627,1.473282,2.389313,-1.229008,1.069462,3.064284,5972,10377,4404,5972,0,61.151,1,normal
1780603839.1421719,2.861982000002172,2749118,0.03833,-0.022461,1.062256,2.725191,3.091603,-0.717557,1.063184,4.183248,5974,10380,4405,5974,1,61.151,16,normal
1780603839.1730406,2.892850799995358,2749149,0.042236,-0.023926,1.041504,0.473282,2.877863,-1.19084,1.042634,3.150268,5976,10383,4406,5976,0,61.151,5,normal
1780603839.2045228,2.924333100003423,2749180,0.034912,-0.04126,1.060791,1.664122,2.435115,-1.19084,1.062167,3.180752,5977,10385,4407,5977,0,61.151,6,normal
1780603839.2348058,2.9546160000027157,2749211,0.043457,-0.040283,1.054443,2.396947,2.908397,-1.030534,1.056107,3.907189,5979,10388,4408,5979,1,61.151,16,normal
1780603839.265484,2.985294400001294,2749242,0.033203,-0.031494,1.046143,0.564886,2.343511,-0.648855,1.047143,2.496428,5982,10393,4410,5982,0,61.151,5,normal
1780603839.295909,3.0157191999896895,2749273,0.041992,-0.04248,1.051025,1.328244,2.312977,-1.053435,1.052721,2.867721,5983,10395,4411,5983,0,61.151,6,normal
1780603839.3272395,3.047049699991476,2749304,0.032959,-0.015869,1.05542,2.358779,3.152672,-0.839695,1.056054,4.025948,5985,10398,4412,5985,1,61.151,16,normal
1780603839.3591487,3.0789589999913005,2749335,0.047852,-0.014404,1.03833,0.244275,2.587786,-1.068702,1.039532,2.810415,5987,10401,4413,5987,0,60.932,5,normal
1780603839.3903956,3.110205799996038,2749366,0.04541,-0.047852,1.06543,1.366412,2.335878,-1.351145,1.06747,3.024731,5989,10405,4415,5989,0,60.932,1,normal
1780603839.4194825,3.139292799998657,2749397,0.040283,-0.023438,1.061768,2.732824,3.0,-0.839695,1.06279,4.144082,5992,10410,4417,5992,1,60.932,3,normal
1780603839.4495845,3.169394700002158,2749427,0.050537,0.006836,1.038574,0.977099,2.664122,-0.610687,1.039826,2.902621,5995,10415,4419,5995,0,60.932,0,normal
1780603839.4817467,3.201556999993045,2749458,0.041504,-0.035645,1.053711,1.229008,2.824427,-0.977099,1.05513,3.231497,5996,10417,4420,5996,0,60.932,6,normal
1780603839.5118656,3.231675799994264,2749489,0.050781,0.005127,1.051514,2.618321,3.152672,-0.557252,1.052752,4.135876,5999,10422,4422,5999,1,60.932,15,normal
1780603839.5417638,3.261574099989957,2749519,0.050781,-0.02417,1.045166,1.503817,2.312977,-0.412214,1.046678,2.789489,6002,10427,4424,6002,0,60.932,5,normal
1780603839.5726888,3.292499000002863,2749550,0.039551,-0.026855,1.065918,0.931298,2.625954,-0.877863,1.06699,2.921232,6004,10431,4426,6004,0,60.932,6,normal
1780603839.6040473,3.3238576000003377,2749581,0.058594,-0.032959,1.045654,2.312977,3.152672,-0.145038,1.047813,3.91283,6006,10436,4429,6006,1,60.932,14,normal
1780603839.6352417,3.355051899998216,2749612,0.042725,-0.022217,1.053955,1.366412,2.496183,-0.610687,1.055055,2.91049,6010,10441,4430,6010,0,83.032,0,normal
1780603839.6681175,3.3879276999941794,2749644,0.035889,-0.027832,1.0625,1.412214,2.572519,-1.10687,1.06347,3.136457,6011,10443,4431,6011,0,83.032,6,normal
1780603839.6981506,3.417960899998434,2749675,0.045166,0.018555,1.050293,2.946565,3.183206,-0.374046,1.051427,4.353729,6015,10450,4434,6015,1,83.032,3,normal
1780603839.7301266,3.4499368999968283,2749706,0.053955,-0.00415,1.041992,1.496183,2.687023,-0.465649,1.043396,3.110544,6018,10455,4436,6018,0,83.032,0,normal
1780603839.7605073,3.480317499997909,2749737,0.0354,-0.029785,1.057861,1.427481,2.732824,-0.969466,1.058872,3.232011,6019,10457,4437,6019,0,83.032,5,normal
1780603839.791389,3.5111993000027724,2749768,0.052734,0.00415,1.051514,2.709924,3.236641,-0.374046,1.052843,4.237858,6022,10462,4439,6022,1,83.032,14,normal
1780603839.822906,3.542716299998574,2749799,0.053955,-0.015869,1.041016,1.396947,2.908397,-0.465649,1.042534,3.259918,6026,10467,4440,6026,0,83.032,6,normal
1780603839.8537834,3.573593699999037,2749830,0.045898,-0.040771,1.069092,1.328244,2.351145,-0.916031,1.070853,2.851531,6029,10471,4441,6029,0,83.032,5,normal
1780603839.8851228,3.6049329999950714,2749861,0.053223,0.010986,1.046875,3.21374,3.053435,-0.167939,1.048284,4.436192,6032,10476,4443,6032,1,83.032,14,normal
1780603839.9149137,3.6347239000024274,2749892,0.039062,-0.003418,1.047607,1.358779,3.145038,-0.435114,1.048341,3.45353,6035,10481,4445,6035,0,89.286,1,normal
1780603839.9462492,3.6660596000001533,2749923,0.041748,-0.030029,1.065674,1.229008,2.78626,-0.778626,1.066914,3.14324,6036,10483,4446,6036,0,89.286,5,normal
1780603839.9777093,3.697519499997725,2749954,0.051514,0.013916,1.049561,2.610687,3.572519,-0.732824,1.050916,4.485043,6038,10488,4449,6038,1,89.286,2,normal
1780603840.0079982,3.72780849999981,2749985,0.055176,-0.003174,1.03833,1.793893,2.374046,-0.717557,1.0398,3.060888,6041,10493,4451,6041,0,89.286,1,normal
1780603840.0389297,3.7587398999894504,2750016,0.029541,-0.029053,1.062744,1.320611,2.564885,-0.984733,1.063552,3.048335,6042,10495,4452,6042,0,89.286,5,normal
1780603840.070295,3.790105299995048,2750047,0.060059,-0.019287,1.047363,2.900763,3.167939,-0.587786,1.049261,4.335407,6044,10500,4455,6044,1,89.286,14,normal
1780603840.1013646,3.821174800003064,2750078,0.05127,-0.016602,1.043457,1.40458,2.862595,-0.465649,1.044848,3.222441,6046,10503,4456,6046,0,89.286,5,normal
1780603840.133501,3.853311400001985,2750109,0.033936,-0.0354,1.06543,1.366412,2.610687,-0.633588,1.066558,3.014001,6049,10507,4457,6049,0,89.286,5,normal
1780603840.1635423,3.883352599994396,2750140,0.046875,0.001221,1.049072,2.335878,3.503817,-0.717557,1.05012,4.271762,6052,10512,4459,6052,1,89.286,15,normal
1780603840.1943715,3.9141817999916384,2750170,0.052979,-0.022949,1.052734,1.351145,2.770992,-0.679389,1.054316,3.156828,6056,10517,4460,6056,0,75.54,0,normal
1780603840.2248647,3.944674899990787,2750201,0.0354,-0.022217,1.061768,0.740458,2.709924,-0.78626,1.06259,2.917219,6057,10519,4461,6057,0,75.54,5,normal
1780603840.255278,3.9750882999942405,2750232,0.04834,-0.072021,1.046143,2.114504,2.763359,-0.70229,1.049732,3.549717,6059,10524,4464,6059,1,75.54,3,normal
1780603840.2866867,4.006496999994852,2750263,0.041992,-0.019043,1.041504,1.778626,2.328244,-0.801527,1.042524,3.037544,6061,10527,4465,6061,0,75.54,5,normal
1780603840.3178666,4.037676699997974,2750294,0.043701,-0.022217,1.064453,0.885496,2.938931,-0.580153,1.065581,3.123779,6062,10529,4466,6062,0,75.54,6,normal
1780603840.348528,4.068338199998834,2750325,0.044922,-0.05957,1.048584,1.91603,3.175573,-0.671756,1.051235,3.769176,6063,10532,4468,6063,1,75.54,18,normal
1780603840.37915,4.098960099989199,2750356,0.039795,-0.032227,1.04834,1.648855,2.801527,-0.625954,1.04959,3.310452,6065,10535,4469,6065,0,75.54,5,normal
1780603840.4108152,4.130625399993733,2750387,0.056152,-0.017334,1.05835,0.70229,2.717557,-1.053435,1.05998,2.998008,6067,10539,4471,6067,0,75.54,6,normal
1780603840.4420877,4.161897899990436,2750418,0.057373,-0.054443,1.041016,1.961832,3.083969,-0.198473,1.044016,3.66047,6068,10542,4473,6068,1,75.54,18,normal
1780603840.4732883,4.1930984999926295,2750449,0.037354,-0.020752,1.051025,1.366412,2.793893,-0.877863,1.051894,3.23165,6070,10545,4474,6070,0,50.179,5,normal
1780603840.50888,4.228690199990524,2750480,0.040283,-0.019775,1.062012,1.068702,2.984733,-0.984733,1.062959,3.319707,6071,10547,4475,6071,0,50.179,6,normal
1780603840.533695,4.25350520000211,2750511,0.045166,-0.067871,1.036377,1.961832,3.259542,-0.633588,1.039579,3.85679,6073,10552,4478,6073,1,50.179,3,normal
1780603840.565845,4.285655300001963,2750542,0.05835,-0.025146,1.037109,1.748092,3.030534,-0.679389,1.039054,3.563921,6075,10555,4479,6075,0,50.179,5,normal
1780603840.596386,4.316196200001286,2750573,0.047363,-0.01416,1.064453,0.770992,2.916031,-0.931298,1.0656,3.156736,6076,10557,4480,6076,0,50.179,6,normal
1780603840.6271665,4.346976699991501,2750604,0.044434,-0.066406,1.046387,2.21374,3.083969,-0.282443,1.049433,3.806742,6077,10560,4482,6077,1,50.179,18,normal
1780603840.6577191,4.377529499994125,2750635,0.043945,-0.029785,1.046143,1.755725,2.778626,-0.664122,1.047489,3.353266,6079,10563,4483,6079,0,50.179,5,normal
1780603840.6898685,4.4096787000016775,2750666,0.047852,-0.017578,1.055664,0.801527,3.21374,-0.992366,1.056894,3.457653,6081,10567,4485,6081,0,50.179,6,normal
1780603840.7203526,4.440162899991265,2750697,0.042969,-0.060547,1.044434,1.984733,2.847328,-0.419847,1.047069,3.4961,6082,10570,4487,6082,1,50.179,18,normal
1780603840.7572985,4.4771086999971885,2750733,0.04248,-0.030762,1.04248,1.687023,2.633588,-0.603053,1.043799,3.185201,6084,10573,4488,6084,0,49.296,6,normal
1780603840.7879713,4.507781599997543,2750765,0.043701,-0.030273,1.042725,2.160305,2.679389,-0.465649,1.044079,3.473165,6085,10576,4490,6085,1,49.296,18,normal
1780603840.8191762,4.538986400002614,2750796,0.046143,-0.00293,1.060547,2.274809,2.351145,-0.854962,1.061554,3.38136,6088,10581,4492,6088,0,49.296,5,normal
1780603840.8499649,4.569775099997059,2750827,0.048584,0.005859,1.052978,0.572519,3.206107,-0.938931,1.054115,3.389468,6089,10583,4493,6089,0,49.296,5,normal
1780603840.8817225,4.601532599990605,2750858,0.043701,-0.031982,1.05127,2.152672,2.541985,-0.206107,1.052663,3.337388,6090,10586,4495,6090,1,49.296,18,normal
1780603840.9127948,4.6326049999915995,2750889,0.034668,-0.004639,1.058594,1.908397,2.610687,-1.221374,1.059171,3.456793,6092,10589,4496,6092,0,49.296,5,normal
1780603840.9426768,4.662487099994905,2750920,0.045654,0.005371,1.049316,0.885496,3.099237,-1.251908,1.050323,3.457838,6093,10591,4497,6093,0,49.296,6,normal
1780603840.9745185,4.694328899990069,2750951,0.054688,-0.043701,1.041016,2.061069,2.961832,-0.236641,1.043367,3.616138,6095,10598,4502,6095,1,49.296,4,normal
1780603841.004332,4.724142299994128,2750982,0.029541,-0.00415,1.056396,2.358779,2.251908,-1.038168,1.056818,3.422385,6097,10601,4503,6097,0,49.296,5,normal
1780603841.036139,4.755949200000032,2751013,0.041992,0.015625,1.061279,0.824427,2.938931,-0.748092,1.062225,3.142712,6100,10605,4504,6100,0,57.143,6,normal
1780603841.068075,4.787885199999437,2751044,0.044434,-0.030762,1.045654,2.267176,2.091603,-0.557252,1.04705,3.134552,6102,10610,4507,6102,1,57.143,15,normal
1780603841.1003377,4.820147899998119,2751076,0.029053,-0.014648,1.047607,2.175573,2.465649,-0.816794,1.048112,3.38817,6105,10615,4509,6105,0,57.143,5,normal
1780603841.1303353,4.8501455999939935,2751107,0.049805,-0.012451,1.058838,0.816794,2.564885,-0.969466,1.060082,2.861058,6107,10619,4511,6107,0,57.143,6,normal
1780603841.1618834,4.881693699993775,2751138,0.0354,-0.067383,1.038086,1.709924,2.343511,-0.458015,1.040873,2.936948,6109,10624,4514,6109,1,57.143,14,normal
1780603841.192639,4.912449399998877,2751169,0.023926,-0.016846,1.046631,1.519084,2.465649,-1.053435,1.04704,3.081682,6112,10629,4516,6112,0,57.143,0,normal
1780603841.2237985,4.943608799992944,2751201,0.040039,-0.013428,1.062744,0.931298,2.709924,-0.961832,1.063583,3.022602,6113,10631,4517,6113,0,57.143,6,normal
1780603841.256548,4.976358200001414,2751232,0.048096,-0.042969,1.043945,2.259542,3.152672,-0.450382,1.045936,3.904832,6115,10638,4522,6115,1,57.143,3,normal
1780603841.2867608,5.0065709999907995,2751263,0.046875,-0.02417,1.032471,1.839695,2.496183,-0.641221,1.033817,3.166476,6119,10643,4523,6119,0,76.0,0,normal
1780603841.3163857,5.036195900000166,2751294,0.042969,-0.022461,1.0625,0.877863,2.748092,-1.038168,1.063606,3.066014,6120,10645,4524,6120,0,76.0,6,normal
1780603841.346956,5.066766199990525,2751324,0.033691,-0.058838,1.043945,1.564886,2.374046,-0.442748,1.046145,2.87767,6122,10650,4527,6122,1,76.0,15,normal
1780603841.3783996,5.098209899995709,2751355,0.034912,-0.014893,1.048828,1.633588,2.21374,-0.78626,1.049515,2.861374,6124,10653,4528,6124,0,76.0,5,normal
1780603841.4088955,5.1287057000008645,2751386,0.044678,-0.018066,1.054688,0.664122,2.908397,-0.793893,1.055788,3.087086,6126,10657,4530,6126,0,76.0,6,normal
1780603841.440821,5.160631199993077,2751417,0.036133,-0.063477,1.03833,1.732824,2.343511,-0.267176,1.040896,2.926792,6128,10662,4533,6128,1,76.0,14,normal
1780603841.4709187,5.190728899993701,2751448,0.026367,-0.02002,1.047363,1.59542,2.068702,-1.10687,1.047886,2.837262,6130,10666,4535,6130,1,76.0,4,normal
1780603841.5015473,5.221357499991427,2751479,0.041016,-0.009521,1.064453,0.610687,3.030534,-0.793893,1.065286,3.191762,6132,10669,4536,6132,0,76.0,6,normal
1780603841.532784,5.252594199992018,2751509,0.041748,-0.028564,1.047852,2.145038,2.244275,-0.267176,1.049072,3.115982,6134,10674,4539,6134,1,76.0,3,normal
1780603841.5630112,5.28282149998995,2751540,0.030273,-0.010742,1.062744,2.312977,2.282443,-0.641221,1.063229,3.312186,6136,10677,4540,6136,0,61.372,5,normal
1780603841.5942054,5.314015600000857,2751571,0.056641,0.015625,1.054932,1.068702,3.022901,-1.045802,1.056567,3.3725,6137,10679,4541,6137,0,61.372,6,normal
1780603841.6251829,5.3449929999915184,2751602,0.033936,-0.032471,1.04541,1.984733,2.40458,-0.312977,1.046465,3.133548,6138,10682,4543,6138,1,61.372,18,normal
1780603841.6572928,5.377103099992382,2751633,0.041016,-0.010254,1.060547,1.91603,2.496183,-0.671756,1.061389,3.217664,6140,10685,4544,6140,0,61.372,5,normal
1780603841.6875598,5.407370200002333,2751664,0.04834,0.010254,1.060547,0.900763,3.396947,-0.725191,1.061698,3.588387,6142,10689,4546,6142,0,61.372,5,normal
1780603841.7177744,5.437584699990111,2751695,0.043213,-0.043945,1.046387,1.977099,2.70229,-0.274809,1.0482,3.359585,6143,10692,4548,6143,1,61.372,18,normal
1780603841.7487707,5.468580999993719,2751726,0.037598,-0.004883,1.059326,2.21374,2.664122,-1.030534,1.060004,3.613889,6145,10695,4549,6145,0,61.372,5,normal
1780603841.7796462,5.499456499994267,2751756,0.048828,-0.011475,1.052734,0.870229,3.160305,-0.717557,1.053929,3.35555,6146,10697,4550,6146,0,61.372,5,normal
1780603841.8099418,5.529751900001429,2751787,0.039551,-0.033447,1.044434,2.091603,2.343511,-0.396947,1.045717,3.166136,6148,10701,4552,6148,0,61.372,1,normal
1780603841.841369,5.561179099997389,2751818,0.049805,-0.008057,1.060059,2.534351,2.679389,-0.709924,1.061258,3.755803,6151,10705,4553,6151,0,53.957,5,normal
1780603841.872331,5.592141200002516,2751849,0.037598,0.004395,1.053223,0.671756,2.854962,-0.78626,1.053903,3.036489,6152,10707,4554,6152,0,53.957,5,normal
1780603841.9035149,5.623324999993201,2751880,0.041016,-0.027588,1.051514,2.366412,2.625954,-0.290076,1.052675,3.546785,6153,10709,4555,6153,0,53.957,5,normal
1780603841.9338322,5.653642299992498,2751911,0.062256,-0.025146,1.0625,2.396947,2.946565,-0.839695,1.064619,3.890075,6156,10713,4556,6156,0,53.957,5,normal
1780603841.9651763,5.684986599997501,2751942,0.044922,-0.015137,1.057129,0.687023,3.114504,-0.862595,1.058191,3.303968,6158,10717,4558,6158,0,53.957,5,normal
1780603841.9968688,5.716679199991631,2751973,0.057129,-0.032959,1.043213,2.068702,2.671756,-0.198473,1.045296,3.384848,6159,10721,4561,6159,0,53.957,3,normal
1780603842.026651,5.746461100003216,2752004,0.043457,-0.001709,1.059326,2.541985,2.862595,-0.793893,1.060218,3.909783,6164,10727,4562,6164,0,53.957,6,normal
1780603842.0580564,5.7778666999947745,2752035,0.046387,0.002441,1.047852,0.732824,3.015267,-1.259542,1.048881,3.348927,6166,10731,4564,6166,0,53.957,1,normal
1780603842.089984,5.809794300002977,2752066,0.037842,-0.035156,1.042969,2.496183,2.534351,-0.076336,1.044247,3.558046,6168,10735,4566,6168,0,53.957,0,normal
1780603842.1206992,5.840509299989208,2752097,0.038818,-0.002441,1.058106,2.251908,2.603053,-0.458015,1.05882,3.472284,6172,10741,4568,6172,0,75.269,6,normal
1780603842.1527843,5.8725946999911685,2752128,0.043213,0.012939,1.05127,0.908397,3.053435,-0.816794,1.052237,3.288739,6174,10745,4570,6174,0,75.269,1,normal
1780603842.1822557,5.902065899994341,2752159,0.044678,-0.031006,1.042725,2.221374,2.366412,-0.389313,1.044142,3.268941,6175,10747,4571,6175,1,75.269,4,normal
1780603842.2112966,5.931106699994416,2752190,0.052734,-0.008301,1.064697,2.29771,2.717557,-1.061069,1.066035,3.71355,6180,10753,4572,6180,0,75.269,6,normal
1780603842.2428503,5.962660599994706,2752219,0.046143,-0.02417,1.04541,0.70229,2.687023,-0.862595,1.046707,2.908157,6181,10755,4573,6181,0,75.269,5,normal
1780603842.2739375,5.993747699991218,2752250,0.054688,-0.022705,1.052002,2.167939,3.076336,-0.656489,1.053667,3.820311,6183,10759,4575,6183,0,75.269,5,normal
1780603842.304225,6.024035099995672,2752281,0.047852,-0.030029,1.053223,2.282443,3.778626,-0.847328,1.054737,4.495056,6186,10763,4576,6186,0,75.269,6,normal
1780603842.3346841,6.054494399999385,2752312,0.039062,-0.028564,1.048584,0.343511,2.946565,-0.89313,1.0497,3.098052,6187,10765,4577,6187,0,75.269,5,normal
1780603842.3652446,6.085054900002433,2752342,0.033447,-0.040771,1.055664,1.137405,2.656489,-1.061069,1.05698,3.078391,6188,10767,4578,6188,0,75.269,5,normal
1780603842.3954906,6.115300899997237,2752373,0.037842,0.014648,1.052978,2.725191,3.427481,-0.641221,1.05376,4.425546,6191,10772,4580,6191,1,68.841,3,normal
1780603842.425237,6.145047300000442,2752403,0.050293,0.005127,1.032471,1.503817,2.977099,-0.679389,1.033708,3.403844,6193,10775,4581,6193,0,68.841,5,normal
1780603842.4567375,6.176547800001572,2752433,0.04126,-0.026855,1.061523,0.70229,2.610687,-1.244275,1.062664,2.976091,6194,10777,4582,6194,0,68.841,5,normal
1780603842.4868834,6.206693699990865,2752464,0.056396,-0.055664,1.049561,1.748092,2.687023,-0.625954,1.052548,3.26615,6195,10780,4584,6195,1,68.841,18,normal
1780603842.5174243,6.237234499989427,2752494,0.025635,-0.023193,1.052734,1.358779,2.564885,-0.755725,1.053302,2.999339,6197,10783,4585,6197,0,68.841,5,normal
1780603842.548742,6.268552299996372,2752525,0.048096,-0.010498,1.05249,0.732824,2.916031,-1.198473,1.053641,3.236758,6199,10787,4587,6199,0,68.841,5,normal
1780603842.5800948,6.299904999992577,2752556,0.043701,-0.072754,1.041504,1.931298,2.717557,-0.435114,1.044956,3.362194,6200,10790,4589,6200,1,68.841,18,normal
1780603842.6243339,6.344144000002416,2752587,0.030518,-0.028076,1.049072,1.694656,2.580153,-0.725191,1.049892,3.170954,6202,10793,4590,6202,0,68.841,5,normal
1780603842.641664,6.361474299992551,2752618,0.046631,-0.015625,1.06958,0.793893,3.114504,-0.938931,1.07071,3.348431,6203,10795,4591,6203,0,68.841,5,normal
1780603842.6727936,6.392603899992537,2752649,0.049561,-0.069336,1.039062,2.030534,2.78626,-0.610687,1.042552,3.501321,6205,10800,4594,6205,1,50.725,3,normal
1780603842.7048028,6.424612999995588,2752680,0.048096,-0.035889,1.055664,1.946565,2.580153,-0.625954,1.057368,3.29213,6207,10803,4595,6207,0,50.725,6,normal
1780603842.7348843,6.4546945999900345,2752711,0.04541,-0.015381,1.064697,1.183206,3.320611,-0.984733,1.065776,3.660072,6208,10805,4596,6208,0,50.725,5,normal
1780603842.765298,6.485108199995011,2752742,0.036133,-0.072266,1.043213,1.549618,3.0,-0.160305,1.046337,3.380387,6209,10808,4598,6209,1,50.725,18,normal
1780603842.7966168,6.516426999995019,2752773,0.027344,-0.023682,1.051758,1.618321,2.519084,-0.839695,1.05238,3.109635,6211,10811,4599,6211,0,50.725,5,normal
1780603842.8273213,6.547131500003161,2752804,0.047363,-0.006836,1.052978,0.839695,2.877863,-0.748092,1.054065,3.089793,6213,10815,4601,6213,0,50.725,5,normal
1780603842.8586557,6.578465999991749,2752835,0.04126,-0.068604,1.042236,1.908397,2.587786,-0.305344,1.045306,3.229838,6214,10818,4603,6214,1,50.725,18,normal
1780603842.8891535,6.608963799997582,2752866,0.028809,-0.025391,1.043945,1.78626,2.458015,-0.816794,1.044651,3.146381,6216,10821,4604,6216,0,50.725,6,normal
1780603842.9206445,6.640454699998372,2752897,0.050293,-0.015625,1.065186,0.587786,3.061069,-0.992366,1.066487,3.27115,6217,10823,4605,6217,0,50.725,5,normal
1780603842.9507751,6.670585400002892,2752928,0.046631,-0.06665,1.042969,2.030534,2.923664,-0.29771,1.046136,3.572046,6219,10828,4608,6219,1,50.179,3,normal
1780603842.982117,6.701927200003411,2752959,0.040771,-0.033203,1.053467,1.931298,2.465649,-0.480916,1.054778,3.168693,6222,10833,4610,6222,0,50.179,5,normal
1780603843.0124648,6.73227510000288,2752990,0.036865,-0.017578,1.059814,0.793893,2.816794,-0.885496,1.060601,3.057564,6224,10837,4612,6224,0,50.179,1,normal
1780603843.0444438,6.764253999994253,2753021,0.04248,-0.062988,1.048584,1.648855,2.679389,-0.610687,1.051333,3.204807,6225,10840,4614,6225,1,50.179,17,normal
1780603843.0746753,6.794485499995062,2753052,0.035156,-0.023193,1.052002,1.519084,2.717557,-0.931298,1.052845,3.249623,6229,10845,4615,6229,0,50.179,5,normal
1780603843.1064246,6.82623489999969,2753083,0.044434,-0.013428,1.057861,0.816794,2.847328,-0.473282,1.058879,2.999738,6231,10849,4617,6231,0,50.179,5,normal
1780603843.1368113,6.856621500002802,2753114,0.042236,-0.067383,1.043945,1.671756,2.70229,-0.564886,1.04697,3.227419,6232,10854,4621,6232,1,50.179,18,normal
1780603843.168078,6.887888199998997,2753144,0.039795,-0.010742,1.053467,1.946565,2.51145,-1.10687,1.054273,3.364767,6236,10859,4622,6236,0,50.179,5,normal
1780603843.199192,6.919002399998135,2753175,0.041748,0.016357,1.051758,0.70229,3.206107,-0.938931,1.052713,3.413784,6238,10863,4624,6238,0,50.179,1,normal
1780603843.2302763,6.95008670000243,2753206,0.047607,-0.036133,1.04126,1.656489,2.496183,-0.549618,1.042974,3.045811,6240,10868,4627,6240,1,75.54,2,normal
1780603843.260761,6.980571199994301,2753237,0.031006,-0.019043,1.061279,1.824428,2.427481,-0.816794,1.061903,3.144575,6243,10873,4629,6243,0,75.54,5,normal
1780603843.2918239,7.011634099995717,2753268,0.051025,-0.001221,1.054443,0.603053,3.503817,-0.946565,1.055678,3.679184,6245,10877,4631,6245,0,75.54,0,normal
1780603843.3234181,7.043228499998804,2753299,0.041504,-0.043213,1.046387,1.961832,2.389313,-0.442748,1.048101,3.12308,6246,10880,4633,6246,1,75.54,18,normal
1780603843.3528926,7.0727027999964776,2753330,0.039062,-0.006836,1.063965,1.80916,2.549618,-0.748092,1.064704,3.214538,6250,10885,4634,6250,0,75.54,5,normal
1780603843.383614,7.103424300003098,2753361,0.054688,0.008545,1.057617,0.80916,3.389313,-0.78626,1.059065,3.572168,6251,10887,4635,6251,0,75.54,5,normal
1780603843.415645,7.135455099996761,2753392,0.049561,-0.051758,1.045654,1.648855,2.854962,-0.076336,1.048107,3.29778,6252,10892,4639,6252,1,75.54,18,normal
1780603843.446382,7.166192399992724,2753423,0.032715,-0.006104,1.048828,1.946565,2.473282,-0.801527,1.049356,3.247874,6256,10897,4640,6256,0,75.54,5,normal
1780603843.4753797,7.195189899997786,2753453,0.048828,-0.007324,1.049316,0.618321,2.70229,-0.816794,1.050477,2.889956,6258,10901,4642,6258,0,75.54,0,normal
1780603843.5062382,7.226048500000616,2753483,0.044922,-0.037109,1.056885,2.175573,2.824427,-0.954198,1.05849,3.690664,6259,10903,4643,6259,0,68.592,6,normal
1780603843.5378988,7.257709099998465,2753514,0.055664,-0.029297,1.060547,2.664122,3.244275,-0.709924,1.062411,4.257564,6263,10909,4645,6263,0,68.592,5,normal
1780603843.5680628,7.287873099994613,2753545,0.057129,-0.022461,1.056152,0.557252,3.160305,-0.801527,1.057935,3.307643,6264,10911,4646,6264,0,68.592,5,normal
1780603843.599402,7.319212299989886,2753576,0.043945,-0.023926,1.049316,1.89313,3.198473,-1.175572,1.050509,3.898223,6265,10913,4647,6265,0,68.592,6,normal
1780603843.630881,7.350691400002688,2753607,0.047607,-0.030029,1.070068,2.244275,3.229008,-0.824427,1.071548,4.017828,6268,10917,4648,6268,0,68.592,5,normal
1780603843.6617296,7.38153980000061,2753638,0.046631,-0.035889,1.041016,0.671756,3.122137,-1.045802,1.042677,3.360461,6269,10919,4649,6269,0,68.592,5,normal
1780603843.6924162,7.412226400003419,2753669,0.048096,-0.026123,1.049805,2.022901,2.267176,-1.053435,1.05123,3.215889,6270,10923,4652,6270,0,68.592,5,normal
1780603843.7242787,7.444088899996132,2753700,0.049072,-0.023438,1.060059,2.450382,2.801527,-1.145038,1.061453,3.894102,6273,10927,4653,6273,0,68.592,5,normal
1780603843.7545452,7.474355500002275,2753732,0.052002,-0.005371,1.042725,0.89313,3.175573,-1.061069,1.044034,3.465228,6274,10929,4654,6274,0,68.592,5,normal
1780603843.786279,7.506089299989981,2753763,0.037598,-0.031982,1.046143,2.610687,2.381679,-0.442748,1.047306,3.561476,6275,10931,4655,6275,0,57.143,5,normal
1780603843.8172479,7.537058000001707,2753794,0.036865,-0.006348,1.053955,2.351145,2.885496,-0.671756,1.054619,3.782225,6279,10937,4657,6279,0,57.143,5,normal
1780603843.8475182,7.5673284999938915,2753825,0.047119,0.006104,1.053711,0.954198,2.900763,-0.458015,1.054782,3.087831,6280,10939,4658,6280,0,57.143,5,normal
1780603843.8789134,7.59872369999357,2753856,0.05249,-0.029541,1.046387,2.328244,2.862595,-0.801527,1.048119,3.775926,6281,10941,4659,6281,0,57.143,5,normal
1780603843.9111896,7.630999699991662,2753887,0.052002,-0.022705,1.063721,2.282443,3.282443,-0.526718,1.065233,4.032544,6284,10945,4660,6284,0,57.143,5,normal
1780603843.9416442,7.661454399989452,2753918,0.051025,-0.011719,1.050049,0.961832,2.954198,-0.78626,1.051353,3.20478,6285,10947,4661,6285,0,57.143,5,normal
1780603843.9735248,7.693335000003572,2753949,0.039795,-0.026367,1.041992,2.435115,2.442748,-0.366412,1.043085,3.468582,6287,10953,4665,6287,0,57.143,0,normal
1780603844.0027883,7.722598599997582,2753980,0.051758,-0.009033,1.062012,2.480916,3.236641,-0.694656,1.06331,4.136827,6290,10957,4666,6290,0,57.143,5,normal
1780603844.0336666,7.753476799989585,2754011,0.04541,-0.002441,1.040283,0.900763,3.114504,-0.70229,1.041277,3.317336,6291,10959,4667,6291,0,57.143,5,normal
1780603844.0660446,7.785854899993865,2754042,0.037842,-0.024902,1.046875,2.19084,2.885496,-0.389313,1.047855,3.643821,6292,10961,4668,6292,0,60.932,5,normal
1780603844.0965002,7.816310299996985,2754073,0.041016,-0.005615,1.05835,2.374046,2.618321,-0.778626,1.059159,3.61911,6296,10967,4670,6296,0,60.932,5,normal
1780603844.1278431,7.847653399992851,2754104,0.051025,0.008301,1.05249,0.984733,3.160305,-0.519084,1.053759,3.350623,6298,10971,4672,6298,0,60.932,5,normal
1780603844.158639,7.878449099996942,2754134,0.044434,-0.030762,1.049561,1.969466,2.709924,-1.236641,1.050951,3.570961,6300,10975,4674,6300,0,60.932,0,normal
1780603844.1890059,7.908816099996329,2754165,0.060547,-0.027588,1.071533,2.587786,2.824427,-0.641221,1.073597,3.883966,6303,10979,4675,6303,0,60.932,5,normal
1780603844.2191315,7.938941699991119,2754196,0.042969,-0.03418,1.046875,0.610687,2.900763,-1.10687,1.048314,3.164258,6306,10983,4676,6306,0,60.932,5,normal
1780603844.2509928,7.9708030999900075,2754227,0.048096,-0.025146,1.046875,2.244275,3.328244,-0.847328,1.048281,4.102676,6308,10989,4680,6308,0,60.932,0,normal
1780603844.2824395,8.002249700002722,2754259,0.037598,-0.002441,1.056152,2.534351,3.015267,-0.908397,1.056824,4.042271,6311,10993,4681,6311,0,60.932,5,normal
1780603844.312875,8.032685199999833,2754290,0.044434,0.006592,1.048096,0.923664,3.10687,-0.816794,1.049058,3.342596,6314,10997,4682,6314,0,60.932,5,normal
1780603844.344949,8.0647592000023,2754321,0.043945,-0.026367,1.041016,2.587786,2.305344,-0.389313,1.042276,3.487522,6316,11001,4684,6316,0,86.022,0,normal
1780603844.3746367,8.094446999995853,2754352,0.040771,-0.008789,1.051025,2.0,3.0,-0.938931,1.051853,3.725801,6319,11005,4685,6319,0,86.022,5,normal
1780603844.4037528,8.123563100001775,2754381,0.039551,-0.03125,1.04248,0.625954,2.618321,-1.08397,1.043698,2.902139,6321,11009,4687,6321,0,86.022,5,normal
1780603844.435072,8.154882100003306,2754412,0.043457,-0.030273,1.054443,1.80916,2.877863,-1.167939,1.055773,3.594334,6322,11011,4688,6322,0,86.022,5,normal
1780603844.4654443,8.185254600000917,2754443,0.035156,-0.014404,1.059814,2.610687,3.259542,-1.0,1.060495,4.294217,6324,11014,4689,6324,1,86.022,16,normal
1780603844.4959342,8.215744599991012,2754473,0.05542,0.006836,1.041992,0.816794,3.068702,-0.770992,1.043487,3.2678,6328,11019,4690,6328,0,86.022,5,normal
1780603844.5264635,8.24627380000311,2754504,0.022949,-0.036133,1.05542,1.221374,2.29771,-1.40458,1.056288,2.957038,6329,11021,4691,6329,1,86.022,6,normal
1780603844.5577607,8.277570999998716,2754534,0.039307,0.007813,1.047607,2.648855,3.030534,-0.717557,1.048374,4.088454,6332,11026,4693,6332,1,86.022,18,normal
1780603844.600199,8.320009199989727,2754565,0.048096,-0.012939,1.039307,1.885496,2.274809,-0.259542,1.040499,2.96601,6334,11029,4694,6334,0,86.022,5,normal
1780603844.619681,8.339491199993063,2754596,0.033691,-0.024414,1.057129,0.801527,2.282443,-0.900763,1.057947,2.581349,6335,11031,4695,6335,0,69.091,6,normal
1780603844.651328,8.37113829998998,2754627,0.057373,-0.034912,1.050293,2.870229,2.580153,-0.099237,1.052438,3.860732,6336,11034,4697,6336,1,69.091,18,normal
1780603844.6813316,8.401142000002437,2754658,0.038086,-0.024414,1.049561,1.770992,2.099237,-0.549618,1.050535,2.800944,6339,11039,4699,6339,0,69.091,5,normal
1780603844.7126205,8.43243079999229,2754689,0.036133,-0.025146,1.063477,1.389313,2.412214,-0.801527,1.064387,2.896793,6340,11041,4700,6340,0,69.091,6,normal
1780603844.7428317,8.462641899997834,2754720,0.04834,-0.021729,1.043457,2.725191,2.70229,-0.70229,1.044802,3.90157,6341,11044,4702,6341,1,69.091,18,normal
1780603844.7730107,8.492820999992546,2754750,0.049561,-0.02832,1.05835,1.40458,2.641221,-0.427481,1.059888,3.02186,6343,11047,4703,6343,0,69.091,5,normal
1780603844.8045378,8.524347999991733,2754781,0.041748,-0.02124,1.066406,0.748092,2.671756,-0.564886,1.067434,2.831434,6344,11049,4704,6344,0,69.091,6,normal
1780603844.8357096,8.55551989999367,2754812,0.055176,-0.044922,1.048096,2.083969,3.137405,-0.549618,1.050508,3.806352,6345,11054,4708,6345,1,69.091,18,normal
1780603844.8657439,8.585554099990986,2754843,0.047607,-0.026855,1.045166,1.335878,2.89313,-0.519084,1.046594,3.228656,6347,11057,4709,6347,0,69.091,5,normal
1780603844.8972642,8.617074499998125,2754874,0.043457,-0.026123,1.066406,0.832061,2.633588,-0.923664,1.067611,2.912261,6348,11059,4710,6348,0,46.763,6,normal
1780603844.9284036,8.648213799999212,2754905,0.045166,-0.072266,1.045898,1.717557,3.076336,-0.473282,1.049364,3.554974,6349,11062,4712,6349,1,46.763,18,normal
1780603844.9600732,8.679883499993593,2754936,0.033447,-0.020996,1.057129,1.824428,2.290076,-0.51145,1.057866,2.9723,6352,11067,4714,6352,0,46.763,5,normal
1780603844.9908442,8.71065439999802,2754967,0.045898,-0.02124,1.064941,0.870229,2.984733,-0.847328,1.066142,3.222405,6353,11069,4715,6353,0,46.763,6,normal
1780603845.021882,8.741692299998249,2754998,0.057129,-0.056885,1.049316,1.671756,2.816794,-0.419847,1.052409,3.302327,6354,11072,4717,6354,1,46.763,18,normal
1780603845.0538545,8.773664599997574,2755029,0.04248,-0.033447,1.049072,1.51145,2.480916,-0.679389,1.050464,2.983454,6356,11075,4718,6356,0,46.763,5,normal
1780603845.0837567,8.803566999995383,2755060,0.042725,-0.020996,1.062012,0.984733,3.068702,-0.679389,1.063078,3.293661,6357,11077,4719,6357,0,46.763,6,normal
1780603845.1141527,8.833962799995788,2755091,0.056641,-0.047607,1.046387,2.160305,3.29771,-0.358779,1.048999,3.958602,6359,11084,4724,6359,1,46.763,3,normal
1780603845.14702,8.866830400002073,2755123,0.058594,-0.026611,1.055176,1.274809,2.755725,-0.51145,1.057136,3.079081,6370,11096,4725,6370,0,46.763,1,normal
1780603845.1779711,8.897781399995438,2755154,-0.043457,0.045898,1.239746,0.832061,2.21374,-0.793893,1.241356,2.494642,6371,11098,4726,6371,0,82.143,6,normal
1780603845.208615,8.928425199992489,2755185,0.110596,-0.073242,0.875977,2.832061,3.221374,-0.40458,0.885963,4.308306,6372,11101,4728,6372,1,82.143,18,normal
1780603845.239911,8.959721399995033,2755216,0.053955,-0.033447,1.118164,1.824428,2.351145,0.022901,1.119965,2.976062,6375,11106,4730,6375,0,82.143,5,normal
1780603845.2705548,8.990364999990561,2755247,0.028564,-0.027588,1.043945,0.59542,2.358779,-0.89313,1.0447,2.591533,6377,11110,4732,6377,0,82.143,6,normal
1780603845.301194,9.021004199996241,2755278,0.070557,-0.024902,1.034668,2.694656,2.664122,-0.40458,1.03737,3.810827,6379,11115,4735,6379,1,82.143,14,normal
1780603845.3330529,9.052863099990645,2755309,0.041992,-0.024658,1.044922,1.122137,2.732824,-0.541985,1.046056,3.003543,6383,11120,4736,6383,0,82.143,0,normal
1780603845.3648653,9.084675599995535,2755340,0.031982,-0.020752,1.060791,0.51145,2.549618,-0.839695,1.061476,2.732622,6384,11122,4737,6384,0,82.143,5,normal
1780603845.3945997,9.114409999994677,2755371,0.053223,-0.051514,1.051025,2.114504,3.030534,-0.236641,1.053632,3.702872,6387,11129,4741,6387,1,82.143,3,normal
1780603845.4262514,9.146061599996756,2755402,0.04248,-0.014893,1.045166,1.778626,2.099237,-0.320611,1.046135,2.770036,6391,11134,4742,6391,0,82.143,1,normal
1780603845.4564826,9.176292899996042,2755433,0.045166,-0.029053,1.0625,0.801527,2.587786,-0.877863,1.063856,2.847758,6392,11136,4743,6392,0,75.269,5,normal
1780603845.5029414,9.222751699999208,2755464,0.06958,-0.043213,1.051025,2.206107,3.022901,-0.412214,1.054212,3.764938,6394,11141,4746,6394,1,75.269,14,normal
1780603845.519745,9.239555299995118,2755495,0.0354,-0.017578,1.050293,1.40458,2.305344,-0.549618,1.051036,2.754911,6396,11144,4747,6396,0,75.269,6,normal
1780603845.5490925,9.26890270000149,2755526,0.04541,-0.022217,1.061768,0.977099,2.519084,-0.847328,1.06297,2.831691,6399,11148,4748,6399,0,75.269,6,normal
1780603845.5807512,9.300561500000185,2755557,0.06665,-0.022705,1.040772,1.992366,2.832061,-0.916031,1.043151,3.581788,6401,11153,4751,6401,1,75.269,14,normal
1780603845.6128907,9.332700999992085,2755588,0.042725,-0.012939,1.043457,1.412214,2.503817,-0.419847,1.044412,2.905119,6405,11158,4752,6405,0,75.269,0,normal
1780603845.6448355,9.36464580000029,2755620,0.032471,-0.038574,1.057617,1.030534,2.396947,-0.984733,1.058818,2.788737,6406,11160,4753,6406,0,75.269,6,normal
1780603845.6750627,9.39487299999746,2755651,0.033447,0.006592,1.056396,2.984733,3.343511,-0.740458,1.056946,4.542684,6409,11165,4755,6409,1,75.269,3,normal
1780603845.705265,9.425075399994967,2755682,0.047607,0.000732,1.049316,1.022901,2.427481,-0.816794,1.050396,2.757924,6411,11168,4756,6411,0,75.269,5,normal
1780603845.7364314,9.456241699997918,2755713,0.036133,-0.042725,1.063721,1.358779,2.312977,-0.870229,1.065191,2.820184,6412,11170,4757,6412,0,71.429,6,normal
1780603845.767904,9.48771429999033,2755744,-0.007324,0.064697,1.092773,2.740458,2.664122,-1.053435,1.094711,3.964516,6414,11173,4758,6414,1,71.429,17,normal
1780603845.7986324,9.518442599990522,2755775,0.044922,0.009521,1.033691,1.381679,2.824427,-0.80916,1.034711,3.246716,6416,11176,4759,6416,0,71.429,5,normal
1780603845.829935,9.549745299998904,2755806,0.026611,-0.034668,1.073486,1.80916,2.435115,-0.89313,1.074376,3.162361,6419,11180,4760,6419,0,71.429,6,normal
1780603845.8605542,9.580364399997052,2755837,0.023193,0.007813,1.043701,2.725191,3.167939,-0.587786,1.043988,4.219952,6421,11183,4761,6421,1,71.429,17,normal
1780603845.8916605,9.611470699994243,2755868,0.054932,0.007324,1.040527,0.847328,2.564885,-0.763359,1.042002,2.807012,6423,11186,4762,6423,0,71.429,5,normal
1780603845.9230292,9.642839499996626,2755899,0.035645,-0.045166,1.05127,1.51145,2.358779,-0.969466,1.052843,2.964487,6424,11188,4763,6424,0,71.429,6,normal
1780603845.9536004,9.673410599993076,2755930,0.035889,0.01416,1.044189,2.450382,2.801527,-0.549618,1.044902,3.762313,6427,11193,4765,6427,1,71.429,3,normal
1780603845.9848578,9.704667999991216,2755961,0.044189,-0.011719,1.045898,0.977099,2.824427,-0.870229,1.046897,3.112782,6429,11196,4766,6429,0,71.429,5,normal
1780603846.0177422,9.737552399994456,2755992,0.036133,-0.048584,1.065674,1.183206,2.290076,-0.931298,1.067392,2.740756,6430,11198,4767,6430,0,64.516,5,normal
1780603846.046541,9.766351199999917,2756023,0.033691,0.007813,1.048096,2.480916,2.770992,-0.389313,1.048666,3.73964,6432,11201,4768,6432,1,64.516,16,normal
1780603846.0757377,9.795547899993835,2756053,0.029541,-0.00293,1.046875,1.961832,1.740458,-0.709924,1.047296,2.716978,6434,11204,4769,6434,0,64.516,5,normal
1780603846.1064298,9.82624009999563,2756083,0.047363,-0.055176,1.031738,1.877863,2.801527,-0.625954,1.034298,3.430268,6436,11208,4771,6436,0,64.516,5,normal
1780603846.1379158,9.857726200003526,2756114,0.053223,-0.038574,1.067871,1.51145,2.847328,-0.89313,1.069892,3.345062,6437,11213,4775,6437,1,64.516,17,normal
1780603846.167734,9.887544099998195,2756145,0.038086,-0.003906,1.043457,1.70229,2.564885,-0.267176,1.044159,3.089954,6441,11218,4776,6441,0,64.516,5,normal
1780603846.198322,9.918132199993124,2756175,0.040039,-0.017822,1.05249,1.236641,3.251908,-0.664122,1.053402,3.541927,6443,11222,4778,6443,0,64.516,0,normal
1780603846.229571,9.949381300000823,2756206,0.035889,-0.064453,1.054199,1.221374,2.870229,-0.343511,1.056777,3.138147,6445,11227,4781,6445,1,64.516,2,normal
1780603846.2610152,9.980825499995262,2756237,0.029053,-0.030518,1.049561,1.854962,2.320611,-0.709924,1.050406,3.054523,6448,11232,4783,6448,0,64.516,5,normal
1780603846.2913308,10.011141099996166,2756268,0.049561,-0.022949,1.056641,1.030534,2.89313,-0.885496,1.058051,3.196296,6450,11236,4785,6450,0,72.464,0,normal
1780603846.3292158,10.04902609999408,2756305,0.03833,-0.064941,1.046387,1.793893,3.083969,-0.229008,1.0491,3.575104,6452,11240,4787,6452,0,72.464,7,normal
1780603846.3607523,10.080562499992084,2756336,0.046387,0.002686,1.047852,0.847328,3.351145,-0.938931,1.048881,3.581861,6455,11244,4788,6455,0,72.464,5,normal
1780603846.3905036,10.110313999990467,2756367,0.037109,-0.025146,1.040527,2.381679,2.603053,-0.236641,1.041492,3.536139,6457,11248,4790,6457,0,72.464,0,normal
1780603846.4214978,10.141307999991113,2756398,0.038574,-0.004883,1.053467,2.335878,3.175573,-0.503817,1.054184,3.974219,6460,11252,4791,6460,0,72.464,6,normal
1780603846.4515786,10.17138879999402,2756429,0.05127,0.017822,1.050293,1.053435,3.0,-0.870229,1.051694,3.296517,6463,11256,4792,6463,0,72.464,6,normal
1780603846.482439,10.202249399997527,2756459,0.04248,-0.030762,1.038086,1.931298,2.992366,-0.900763,1.03941,3.673628,6464,11258,4793,6464,0,72.464,4,normal
1780603846.514556,10.2343661999912,2756490,0.054932,-0.026611,1.054688,2.366412,2.900763,-0.931298,1.056452,3.857674,6467,11262,4794,6467,0,72.464,6,normal
1780603846.5506167,10.270427099996596,2756522,0.047119,0.00293,1.050781,0.618321,3.381679,-0.916031,1.051841,3.557694,6469,11266,4796,6469,0,74.803,6,normal
1780603846.576569,10.296379299994442,2756553,0.041992,-0.046387,1.039795,2.083969,2.450382,-0.274809,1.041676,3.228439,6470,11269,4798,6470,1,74.803,18,normal
1780603846.6074622,10.327272299997276,2756584,0.044189,-0.008301,1.052246,1.755725,2.549618,-0.984733,1.053206,3.248511,6472,11272,4799,6472,0,74.803,5,normal
1780603846.6384966,10.358306800000719,2756615,0.050293,0.01416,1.051758,1.091603,3.129771,-0.763359,1.053055,3.401438,6473,11274,4800,6473,0,74.803,5,normal
1780603846.6696362,10.38944659999106,2756646,0.044434,-0.02832,1.046875,1.977099,2.19084,-0.549618,1.0482,3.001796,6475,11279,4803,6475,1,74.803,3,normal
1780603846.7006192,10.420429499994498,2756677,0.030273,-0.018555,1.047363,1.687023,2.778626,-0.671756,1.047965,3.319347,6477,11282,4804,6477,0,74.803,5,normal
1780603846.730824,10.450634199994965,2756708,0.042969,-0.003418,1.054932,0.877863,3.221374,-0.725191,1.055812,3.416694,6478,11284,4805,6478,0,74.803,5,normal
1780603846.761288,10.48109819999081,2756738,0.04126,-0.028564,1.042236,2.221374,2.908397,-0.549618,1.043444,3.700724,6479,11286,4806,6479,0,74.803,3,normal
1780603846.7927306,10.512540900002932,2756769,0.041016,-0.004883,1.063721,2.206107,2.541985,-1.10687,1.064522,3.543128,6482,11290,4807,6482,0,74.803,6,normal
1780603846.8237236,10.543533699994441,2756800,0.050781,0.002441,1.048828,0.870229,2.977099,-1.068702,1.05006,3.280632,6484,11294,4809,6484,0,53.957,5,normal
1780603846.854526,10.574336399993626,2756831,0.051758,-0.037354,1.043213,2.473282,2.473282,-0.40458,1.045164,3.52107,6485,11298,4812,6485,0,53.957,3,normal
1780603846.8857615,10.605571699998109,2756862,0.044922,-0.007568,1.061768,2.320611,2.709924,-0.916031,1.062744,3.683481,6490,11304,4813,6490,0,53.957,5,normal
1780603846.9162931,10.6361035000009,2756893,0.039551,0.018311,1.053223,0.717557,3.236641,-0.709924,1.054124,3.390388,6492,11308,4815,6492,0,53.957,0,normal
1780603846.9473002,10.66711039999791,2756924,0.035156,-0.031494,1.047363,2.366412,2.465649,-0.534351,1.048426,3.459026,6494,11312,4817,6494,1,53.957,0,normal
1780603846.97873,10.698540199999115,2756955,0.048828,-0.007813,1.05835,1.938931,2.778626,-0.885496,1.059504,3.502045,6498,11318,4819,6498,0,53.957,5,normal
1780603847.0093565,10.729166799996165,2756986,0.044678,0.005615,1.045898,0.793893,3.335878,-1.061069,1.046867,3.589459,6500,11322,4821,6500,0,53.957,0,normal
1780603847.0407856,10.760595799991279,2757017,0.045166,-0.050537,1.043945,2.19084,2.458015,-0.152672,1.046143,3.296199,6501,11325,4823,6501,1,53.957,18,normal
1780603847.0727358,10.792546099997708,2757048,0.031738,-0.015137,1.056641,2.137405,2.80916,-1.068702,1.057226,3.68809,6505,11330,4824,6505,0,53.957,5,normal
1780603847.1027844,10.822594600002049,2757079,0.054932,0.011963,1.054443,0.587786,3.030534,-1.167939,1.055941,3.300562,6506,11332,4825,6506,0,78.853,5,normal
1780603847.1337938,10.853604099989752,2757110,0.043701,-0.032227,1.047119,1.870229,2.137405,-0.396947,1.048526,2.867721,6507,11337,4829,6507,1,78.853,17,normal
1780603847.1648622,10.884672400003183,2757141,0.033936,-0.023438,1.054932,1.977099,2.358779,-0.870229,1.055738,3.198446,6509,11340,4830,6509,0,78.853,5,normal
1780603847.194642,10.914452299999539,2757172,0.049561,-0.005371,1.049805,0.519084,3.274809,-1.10687,1.050988,3.495566,6510,11342,4831,6510,0,78.853,5,normal
1780603847.2260811,10.9458913999988,2757202,0.040771,-0.025146,1.043945,2.129771,2.824427,-0.648855,1.045044,3.596432,6511,11344,4832,6511,0,78.853,3,normal
1780603847.2577384,10.977548499999102,2757233,0.045166,-0.013428,1.058594,2.29771,2.862595,-0.679389,1.059642,3.733027,6515,11350,4834,6515,0,78.853,6,normal
1780603847.2886975,11.008507699996699,2757263,0.041016,-0.028564,1.048828,0.503817,2.816794,-0.885496,1.050018,2.995374,6516,11352,4835,6516,0,78.853,5,normal
1780603847.3171678,11.036977999989176,2757294,0.049316,-0.02832,1.044922,2.091603,2.40458,-0.587786,1.046468,3.240726,6517,11354,4836,6517,0,78.853,5,normal
1780603847.3497334,11.069543699995847,2757325,0.035645,-0.014893,1.058106,2.450382,2.496183,-0.496183,1.05881,3.532916,6520,11358,4837,6520,0,78.853,6,normal
1780603847.3804786,11.100288799992995,2757356,0.041748,-0.017578,1.051514,0.687023,2.755725,-1.091603,1.052489,3.042633,6521,11360,4838,6521,0,54.152,6,normal
1780603847.4118357,11.1316458999936,2757387,0.043945,-0.033691,1.045166,2.465649,2.427481,-0.580153,1.046632,3.508371,6523,11366,4842,6523,0,54.152,0,normal
1780603847.4420383,11.16184849999263,2757418,0.045898,-0.007813,1.054932,2.076336,2.839695,-0.51145,1.055958,3.554802,6526,11370,4843,6526,0,54.152,6,normal
1780603847.473373,11.193183299998054,2757449,0.051514,0.006592,1.047363,0.862595,3.274809,-1.045802,1.04865,3.544312,6529,11374,4844,6529,0,54.152,5,normal
1780603847.5021708,11.22198099999514,2757479,0.043945,-0.026367,1.049805,2.083969,2.412214,-1.030534,1.051055,3.35018,6531,11378,4846,6531,0,54.152,0,normal
1780603847.5342557,11.254065899993293,2757510,0.056641,-0.026367,1.067627,2.458015,3.053435,-0.80916,1.069454,4.002505,6535,11384,4848,6535,0,54.152,5,normal
1780603847.5658314,11.285641599999508,2757541,0.037842,-0.029785,1.051758,0.259542,2.656489,-1.076336,1.05286,2.877984,6537,11388,4850,6537,0,54.152,5,normal
1780603847.5961804,11.315990599992801,2757572,0.04541,-0.026123,1.045898,1.877863,3.030534,-0.839695,1.04721,3.66273,6539,11392,4852,6539,0,54.152,1,normal
1780603847.6271458,11.346955999993952,2757603,0.041504,-0.018311,1.063232,2.633588,2.549618,-0.862595,1.0642,3.765688,6542,11396,4853,6542,0,54.152,6,normal
1780603847.6588407,11.378650899991044,2757635,0.048584,0.000732,1.044678,0.80916,3.580153,-0.938931,1.045807,3.788644,6545,11400,4854,6545,0,86.022,6,normal
1780603847.690553,11.41036319998966,2757666,0.041992,-0.022217,1.046143,2.267176,2.458015,-0.442748,1.047221,3.373122,6547,11405,4857,6547,1,86.022,3,normal
1780603847.7215822,11.441392499997164,2757697,0.036133,-0.020508,1.048096,1.770992,2.664122,-0.458015,1.048919,3.231678,6549,11408,4858,6549,0,86.022,5,normal
1780603847.751437,11.471247299996321,2757728,0.049316,-0.001465,1.05835,0.763359,3.221374,-1.129771,1.059499,3.49805,6550,11410,4859,6550,0,86.022,5,normal
1780603847.7828271,11.50263730000006,2757758,0.0354,-0.022949,1.042725,2.473282,2.877863,-0.587786,1.043578,3.839884,6551,11412,4860,6551,0,86.022,4,normal
1780603847.8130121,11.532822399996803,2757789,0.026611,-0.004639,0.978271,2.320611,2.541985,-0.541985,0.978644,3.484346,6554,11416,4861,6554,0,86.022,6,normal
1780603847.8437357,11.563545899989549,2757820,0.045166,-0.004395,1.060303,0.40458,2.656489,-1.015267,1.061273,2.872522,6556,11420,4863,6556,0,86.022,5,normal
1780603847.8752458,11.59505609999178,2757851,0.053467,-0.040283,1.076172,1.709924,2.78626,-0.48855,1.078252,3.305414,6557,11422,4864,6557,0,86.022,4,normal
1780603847.9061143,11.625924699997995,2757882,0.035645,-0.015137,1.061768,2.48855,2.557252,-0.80916,1.062474,3.658846,6562,11428,4865,6562,0,86.022,5,normal
1780603847.937443,11.657253299999866,2757913,0.050049,0.010498,1.065186,1.10687,3.389313,-0.847328,1.066412,3.664774,6563,11430,4866,6563,0,64.748,6,normal
1780603847.9682994,11.688109599999734,2757944,0.040039,-0.036133,1.044189,2.076336,2.572519,-0.557252,1.045581,3.352544,6565,11435,4869,6565,1,64.748,3,normal
1780603847.9995804,11.719390699989162,2757975,0.036865,-0.019531,1.036865,1.725191,2.78626,-0.725191,1.037704,3.356401,6568,11440,4871,6568,0,64.748,5,normal
1780603848.0309832,11.750793500003056,2758006,0.054932,-0.008057,1.049561,0.664122,3.21374,-1.045802,1.051028,3.444254,6570,11444,4873,6570,0,64.748,0,normal
1780603848.0602987,11.780108899998595,2758036,0.035156,-0.022461,1.030029,2.564885,2.740458,-0.267176,1.030874,3.762995,6571,11446,4874,6571,0,64.748,3,normal
1780603848.0910695,11.810879800003022,2758067,0.04248,-0.008545,1.042236,2.175573,2.977099,-0.832061,1.043137,3.780021,6576,11452,4875,6576,0,64.748,6,normal
1780603848.1211612,11.840971400000853,2758098,0.048096,0.00293,1.058106,1.251908,2.923664,-0.740458,1.059202,3.265481,6577,11454,4876,6577,0,64.748,5,normal
1780603848.1536531,11.87346350000007,2758128,0.029541,-0.019043,1.047363,2.549618,2.389313,-0.183206,1.047953,3.49899,6578,11458,4879,6578,0,64.748,4,normal
1780603848.1841128,11.903922999990755,2758160,0.033936,-0.00708,1.050049,2.236641,2.679389,-0.862595,1.050621,3.595242,6581,11462,4880,6581,0,64.748,5,normal
1780603848.215807,11.935617099996307,2758191,0.038086,0.015869,1.069824,0.946565,2.992366,-0.977099,1.07062,3.28709,6582,11464,4881,6582,0,68.345,6,normal
1780603848.246576,11.966386400003103,2758222,0.042725,-0.032959,1.040527,2.0,2.21374,-0.480916,1.041926,3.021908,6583,11467,4883,6583,1,68.345,18,normal
1780603848.2772279,11.997038200002862,2758253,0.049805,-0.009277,1.049316,1.603053,2.778626,-0.549618,1.050539,3.254631,6586,11472,4885,6586,0,68.345,5,normal
1780603848.3079708,12.027780899996287,2758283,0.043945,0.012207,1.051025,0.961832,2.839695,-0.839695,1.052014,3.113531,6587,11474,4886,6587,0,68.345,5,normal
1780603848.338851,12.05866129999049,2758314,0.031982,-0.024414,1.039307,2.549618,2.656489,-0.374046,1.040085,3.700999,6588,11476,4887,6588,0,68.345,4,normal
1780603848.3689854,12.08879569999408,2758345,0.044434,-0.008789,1.061768,2.335878,2.396947,-0.671756,1.062733,3.41364,6591,11480,4888,6591,0,68.345,6,normal
1780603848.4000409,12.119851199997356,2758376,0.05249,0.001709,1.055176,0.938931,2.969466,-0.938931,1.056482,3.252831,6592,11482,4889,6592,0,68.345,5,normal
1780603848.4316838,12.151494099991396,2758407,0.037842,-0.018066,1.047119,2.335878,2.664122,0.038168,1.047958,3.54335,6594,11488,4893,6594,0,68.345,1,normal
1780603848.4621027,12.181912899992312,2758437,0.047363,-0.013184,1.05249,2.435115,2.587786,-1.0,1.053638,3.691398,6597,11492,4894,6597,0,68.345,6,normal
1780603848.4930668,12.212877099998877,2758468,0.057861,-0.01416,1.043213,0.648855,2.78626,-1.030534,1.044912,3.040766,6600,11496,4895,6600,0,64.982,6,normal
1780603848.524282,12.244092299995827,2758499,0.050049,-0.025146,1.042236,2.038168,3.061069,-0.748092,1.04374,3.752854,6602,11500,4897,6602,0,64.982,0,normal
1780603848.5554838,12.275293999991845,2758530,0.050537,-0.020264,1.068359,2.282443,3.19084,-0.748092,1.069746,3.993826,6605,11504,4898,6605,0,64.982,5,normal
1780603848.5853958,12.305205999989994,2758561,0.049316,-0.018066,1.054443,0.732824,3.083969,-0.885496,1.055751,3.291201,6607,11508,4900,6607,0,64.982,5,normal
1780603848.6175053,12.337315600001602,2758592,0.04248,-0.022949,1.043945,2.709924,2.717557,-0.358779,1.045061,3.854546,6608,11510,4901,6608,0,64.982,5,normal
1780603848.648007,12.367817099991953,2758623,0.039551,-0.007324,1.059082,2.129771,2.389313,-0.641221,1.059846,3.264339,6611,11514,4902,6611,0,64.982,6,normal
1780603848.689295,12.409105400001863,2758654,0.045898,0.008301,1.046143,0.862595,3.206107,-0.931298,1.047182,3.448262,6612,11516,4903,6612,0,64.982,5,normal
1780603848.7091434,12.42895370000042,2758685,0.041748,-0.019287,1.045654,2.244275,2.908397,-0.022901,1.046665,3.673699,6614,11520,4905,6614,0,64.982,1,normal
1780603848.7402623,12.460072399990167,2758716,0.0271,-0.010498,1.05957,1.709924,2.480916,-0.503817,1.059969,3.054933,6617,11524,4906,6617,0,64.982,5,normal
1780603848.7731771,12.49298739999358,2758747,0.04834,0.011475,1.04834,0.961832,3.343511,-1.053435,1.049516,3.635095,6618,11526,4907,6618,0,64.516,6,normal
1780603848.8029916,12.522801799990702,2758778,0.05127,-0.034668,1.044922,2.198473,2.229008,-0.328244,1.046753,3.147936,6619,11529,4909,6619,1,64.516,18,normal
1780603848.8342712,12.554081499998574,2758810,0.041016,-0.024902,1.051758,1.465649,2.580153,-0.671756,1.052852,3.042461,6621,11532,4910,6621,0,64.516,5,normal
1780603848.8645415,12.584351700003026,2758841,0.044189,-0.009033,1.064209,0.854962,2.839695,-0.801527,1.065164,3.072014,6623,11536,4912,6623,0,64.516,5,normal
1780603848.8951728,12.614983099992969,2758871,0.034668,-0.059326,1.038574,1.671756,2.381679,-0.419847,1.040845,2.939972,6624,11539,4914,6624,1,64.516,18,normal
1780603848.9262037,12.646013899997342,2758902,0.040527,-0.016357,1.056396,1.801527,2.427481,-0.725191,1.0573,3.108708,6628,11544,4915,6628,0,64.516,6,normal
1780603848.9566865,12.676496699990821,2758933,0.048584,0.00708,1.053955,0.618321,3.083969,-1.007634,1.055098,3.302804,6630,11548,4917,6630,0,64.516,0,normal
1780603848.9887965,12.708606799991685,2758964,0.040771,-0.040283,1.044922,1.923664,2.679389,-0.244275,1.046493,3.307458,6632,11553,4920,6632,1,64.516,3,normal
1780603849.01962,12.73943029998918,2758995,0.027832,-0.023193,1.05249,1.290076,2.274809,-0.80916,1.053114,2.73748,6635,11558,4922,6635,0,64.516,5,normal
1780603849.050726,12.770536099997116,2759026,0.039062,-0.023682,1.060059,0.816794,2.832061,-0.832061,1.061042,3.062686,6637,11562,4924,6637,0,68.1,0,normal
1780603849.0815845,12.801394699999946,2759057,0.042725,-0.077637,1.037109,2.129771,2.839695,-0.351145,1.040888,3.566945,6638,11565,4926,6638,1,68.1,18,normal
1780603849.1123357,12.832145899999887,2759088,0.041992,-0.025879,1.038818,1.717557,2.664122,-0.740458,1.039989,3.255123,6642,11570,4927,6642,0,68.1,5,normal
1780603849.1431649,12.86297519999789,2759119,0.036133,-0.010254,1.05835,1.221374,2.793893,-1.053435,1.059016,3.226038,6643,11572,4928,6643,0,68.1,5,normal
1780603849.1749928,12.894803100003628,2759150,0.049072,-0.05835,1.038818,1.717557,2.717557,-0.618321,1.041612,3.27375,6644,11577,4932,6644,1,68.1,18,normal
1780603849.2049754,12.924785600000178,2759181,0.039795,-0.030762,1.05127,1.580153,2.603053,-0.78626,1.052472,3.144992,6646,11580,4933,6646,0,68.1,6,normal
1780603849.2355042,12.955314299993915,2759212,0.042236,-0.028809,1.061768,1.122137,2.664122,-0.839695,1.062998,3.010286,6647,11582,4934,6647,0,68.1,6,normal
1780603849.2665741,12.98638449999271,2759243,0.05249,-0.068848,1.03833,2.122137,2.900763,-0.59542,1.041933,3.643133,6648,11585,4936,6648,1,68.1,18,normal
1780603849.2981985,13.018008699989878,2759274,0.048096,-0.017334,1.045166,1.458015,2.229008,-1.053435,1.046416,2.864264,6651,11590,4938,6651,0,68.1,5,normal
1780603849.3288238,13.048634099992341,2759305,0.04126,-0.028809,1.066162,0.687023,2.854962,-0.801527,1.067349,3.043888,6652,11592,4939,6652,0,53.763,5,normal
1780603849.3604796,13.080289799996535,2759336,0.048828,-0.036377,1.049805,2.282443,2.641221,-0.358779,1.051569,3.509176,6654,11597,4942,6654,1,53.763,14,normal
1780603849.390919,13.110729299995,2759367,0.049561,-0.018311,1.047852,1.541985,2.900763,-0.366412,1.049183,3.305511,6657,11602,4944,6657,0,53.763,0,normal
1780603849.4219513,13.141761599996244,2759398,0.041992,-0.024414,1.060059,1.030534,2.282443,-1.061069,1.061171,2.719818,6658,11604,4945,6658,0,53.763,5,normal
1780603849.4609315,13.180741899996065,2759429,0.056641,-0.003906,1.046387,3.022901,2.717557,-0.900763,1.047926,4.163462,6661,11611,4949,6661,1,53.763,3,normal
1780603849.483436,13.203246399993077,2759460,0.055664,-0.005371,1.032959,1.671756,2.580153,-0.763359,1.034472,3.167755,6665,11616,4950,6665,0,53.763,0,normal
1780603849.5153089,13.235119099990698,2759491,0.032715,-0.041016,1.055664,1.358779,2.519084,-0.908397,1.056967,3.002874,6666,11618,4951,6666,0,53.763,5,normal
1780603849.546083,13.265893299991149,2759522,0.056641,-0.018555,1.040527,3.152672,2.679389,-0.961832,1.042233,4.247774,6668,11623,4954,6668,1,53.763,14,normal
1780603849.5774055,13.297215799990227,2759553,0.047607,-0.016113,1.028564,1.557252,2.832061,-0.419847,1.029792,3.259122,6670,11626,4955,6670,0,53.763,5,normal
1780603849.6076336,13.32744389999425,2759584,0.04541,-0.050049,1.05835,1.358779,2.519084,-1.29771,1.060505,3.142628,6673,11630,4956,6673,0,75.269,5,normal
1780603849.6385822,13.358392399997683,2759615,0.04541,0.018799,1.049316,3.442748,2.900763,-0.435114,1.050467,4.52286,6674,11633,4958,6674,1,75.269,18,normal
1780603849.6695569,13.389366999996128,2759646,0.047363,0.006592,1.036621,1.366412,3.229008,-0.717557,1.037723,3.578891,6676,11636,4959,6676,0,75.269,5,normal
1780603849.7010398,13.42084999999497,2759677,0.033691,-0.037842,1.06543,1.038168,2.458015,-0.961832,1.066634,2.836327,6677,11638,4960,6677,0,75.269,6,normal
1780603849.7309184,13.45072860000073,2759708,0.040039,-0.009521,1.021728,2.618321,3.29771,-0.870229,1.022557,4.299744,6680,11643,4962,6680,1,75.269,3,normal
1780603849.7617838,13.481594099997892,2759738,0.048584,0.000488,1.04248,1.19084,2.526718,-0.564886,1.043612,2.849824,6684,11648,4963,6684,0,75.269,5,normal
1780603849.7926166,13.512426899993443,2759768,0.032959,-0.02124,1.063965,0.885496,2.557252,-0.763359,1.064687,2.811824,6686,11652,4965,6686,0,75.269,1,normal
1780603849.8237534,13.543563699990045,2759799,0.060791,-0.053955,1.035889,2.351145,2.641221,-0.625954,1.039073,3.591066,6687,11655,4967,6687,1,75.269,18,normal
1780603849.8534203,13.573230499998317,2759830,0.046875,-0.004639,1.025879,1.770992,2.267176,-0.694656,1.02696,2.959569,6691,11660,4968,6691,0,75.269,6,normal
1780603849.885104,13.6049142999982,2759861,0.031982,-0.040771,1.055664,0.89313,2.450382,-1.114504,1.056935,2.836224,6692,11662,4969,6692,0,68.592,5,normal
1780603849.916958,13.636768299998948,2759892,0.05127,-0.019531,1.045898,2.572519,3.259542,-0.664122,1.047336,4.205179,6694,11667,4972,6694,1,68.592,18,normal
1780603849.9479938,13.667803999996977,2759924,0.050781,0.015381,1.042236,1.160305,2.854962,-0.908397,1.043586,3.212834,6698,11672,4973,6698,0,68.592,5,normal
1780603849.9796896,13.699499900001683,2759955,0.04248,-0.043701,1.062988,1.312977,2.374046,-0.885496,1.064734,2.853788,6700,11676,4975,6700,0,68.592,0,normal
1780603850.009723,13.729533199992147,2759986,0.049805,0.011719,1.040283,2.778626,2.832061,-0.603053,1.041541,4.013104,6702,11679,4976,6702,1,68.592,17,normal
1780603850.0409274,13.760737599994172,2760017,0.050537,-0.007568,1.041016,0.938931,2.366412,-0.923664,1.042269,2.708257,6705,11684,4978,6705,0,68.592,5,normal
1780603850.072362,13.792172300003585,2760048,0.047119,-0.053467,1.057861,1.78626,2.374046,-0.954198,1.060259,3.120466,6706,11686,4979,6706,0,68.592,5,normal
1780603850.1030035,13.822813699996914,2760079,0.025879,0.001465,1.04126,2.526718,2.900763,-0.694656,1.041582,3.909128,6708,11689,4980,6708,1,68.592,16,normal
1780603850.13354,13.853350099991076,2760110,0.048828,-0.000732,1.041748,0.625954,2.748092,-1.145038,1.042892,3.042193,6710,11692,4981,6710,0,68.592,5,normal
1780603850.1670387,13.886849000002258,2760141,0.053711,-0.041016,1.029297,1.946565,2.870229,-1.076336,1.031513,3.63123,6712,11696,4983,6712,0,71.429,1,normal
1780603850.197641,13.917451100001927,2760173,0.048584,-0.025391,1.083984,1.847328,3.534351,-0.465649,1.08537,4.015108,6716,11702,4985,6716,0,71.429,5,normal
1780603850.2290018,13.948811900001601,2760204,0.043701,-0.022461,1.043701,0.381679,2.671756,-1.374046,1.044857,3.028524,6718,11706,4987,6718,0,71.429,1,normal
1780603850.2598927,13.979702899989206,2760235,0.053223,-0.032227,1.046631,1.977099,3.091603,-0.709924,1.048479,3.73777,6719,11708,4988,6719,0,71.429,5,normal
1780603850.2898977,14.009707999997772,2760266,0.053467,-0.008301,1.071777,2.145038,3.251908,-0.641221,1.073142,3.94807,6722,11714,4991,6722,0,71.429,6,normal
1780603850.3213477,14.041157899991958,2760297,0.053467,-0.000732,1.047852,0.282443,3.175573,-0.580153,1.049215,3.240465,6723,11716,4992,6723,0,71.429,6,normal
1780603850.3518476,14.071658000000753,2760328,0.034668,-0.024658,1.04126,2.618321,2.748092,-0.374046,1.042128,3.814122,6724,11720,4995,6724,0,71.429,4,normal
1780603850.3837883,14.10359869999229,2760359,0.061279,-0.022949,1.051025,2.19084,2.603053,-0.618321,1.05306,3.458032,6727,11724,4996,6727,0,71.429,5,normal
1780603850.4151683,14.134978599991882,2760391,0.046875,0.02124,1.052978,0.618321,3.496183,-0.748092,1.054235,3.628396,6728,11726,4997,6728,0,64.0,5,normal
1780603850.4466012,14.16641140000138,2760422,0.051758,-0.033447,1.050049,2.167939,2.450382,-0.068702,1.051856,3.272468,6729,11729,4999,6729,1,64.0,18,normal
1780603850.4762988,14.196108999996795,2760453,0.033447,-0.019531,1.045898,1.519084,2.305344,-0.748092,1.046615,2.860396,6732,11734,5001,6732,0,64.0,6,normal
1780603850.5076184,14.227428699989105,2760484,0.053467,-0.016113,1.058838,0.480916,3.206107,-0.854962,1.060309,3.352814,6733,11736,5002,6733,0,64.0,6,normal
1780603850.5405235,14.260333699989133,2760515,0.037354,-0.063477,1.046143,1.51145,2.465649,-0.442748,1.048732,2.925736,6734,11739,5004,6734,1,64.0,18,normal
1780603850.5693688,14.289178999999422,2760546,0.029785,-0.014893,1.056885,1.221374,2.671756,-0.351145,1.057409,2.958604,6736,11742,5005,6736,0,64.0,5,normal
1780603850.6005142,14.32032449998951,2760577,0.035889,-0.023926,1.065918,0.59542,2.984733,-0.59542,1.06679,3.101238,6737,11744,5006,6737,0,64.0,5,normal
1780603850.6324742,14.352284399996279,2760608,0.046875,-0.073975,1.048096,2.068702,2.778626,-0.419847,1.051748,3.489493,6739,11751,5011,6739,1,64.0,3,normal
1780603850.6630168,14.382826999993995,2760639,0.03418,-0.019043,1.04541,1.419847,2.541985,-0.564886,1.046142,2.965932,6742,11756,5013,6742,0,64.0,1,normal
1780603850.6940958,14.41390610000235,2760670,0.047363,-0.022217,1.054199,1.038168,3.015267,-0.770992,1.055496,3.280862,6743,11758,5014,6743,0,53.763,5,normal
1780603850.7258682,14.445678399992175,2760701,0.037354,-0.070312,1.050293,1.961832,3.045802,-0.587786,1.053306,3.670311,6745,11763,5017,6745,1,53.763,14,normal
1780603850.755842,14.475652099994477,2760732,0.042236,-0.018555,1.046143,1.328244,2.335878,-0.427481,1.047159,2.7209,6747,11766,5018,6747,0,53.763,5,normal
1780603850.7867975,14.506607699993765,2760763,0.041016,-0.02417,1.064209,0.824427,2.625954,-0.603053,1.065273,2.817621,6749,11770,5020,6749,0,53.763,6,normal
1780603850.8176284,14.5374385999894,2760794,0.062256,-0.056641,1.053467,2.244275,2.473282,-0.740458,1.056824,3.420844,6750,11773,5022,6750,1,53.763,17,normal
1780603850.8505952,14.570405499995104,2760826,0.043945,-0.023682,1.047119,0.961832,2.587786,-0.801527,1.048308,2.874753,6760,11784,5023,6760,0,53.763,0,normal
1780603850.8808284,14.600638699994306,2760857,0.023438,-0.026367,1.061035,1.801527,1.801527,-1.267176,1.061621,2.845476,6761,11786,5024,6761,0,53.763,5,normal
1780603850.9127176,14.632527800000389,2760888,0.04541,0.009521,1.05127,2.992366,3.282443,-0.48855,1.052293,4.468486,6764,11791,5026,6764,1,53.763,3,normal
1780603850.9426835,14.662493600000744,2760919,0.039307,0.015625,1.045166,1.198473,2.10687,-0.755725,1.046022,2.538968,6766,11794,5027,6766,0,53.763,6,normal
1780603850.9743435,14.694153699994786,2760950,0.030273,-0.049561,1.059814,1.503817,2.480916,-1.091603,1.061404,3.099678,6767,11796,5028,6767,0,85.714,6,normal
1780603851.0053682,14.725178499997128,2760981,0.044678,0.010986,1.040527,2.801527,2.656489,-0.427481,1.041544,3.884356,6769,11799,5029,6769,1,85.714,17,normal
1780603851.0358517,14.755661899995175,2761012,0.034912,-0.00708,1.043213,0.664122,2.10687,-1.030534,1.043821,2.437614,6771,11802,5030,6771,0,85.714,5,normal
1780603851.0677254,14.787535700001172,2761043,0.032959,-0.05957,1.053467,1.648855,2.358779,-1.198473,1.055664,3.117515,6774,11807,5032,6774,1,85.714,15,normal
1780603851.09696,14.816770399993402,2761074,0.035156,0.004883,1.045898,2.557252,3.091603,-1.0,1.046501,4.134918,6777,11811,5033,6777,1,85.714,16,normal
1780603851.127809,14.847619399995892,2761104,0.053467,-0.001953,1.047363,1.015267,2.687023,-0.694656,1.048729,2.955234,6781,11816,5034,6781,0,85.714,6,normal
1780603851.1587973,14.878607399994507,2761135,0.032715,-0.031494,1.057129,1.312977,2.282443,-1.183206,1.058104,2.886768,6783,11820,5036,6783,0,85.714,1,normal
1780603851.1900609,14.909870999996201,2761166,0.04248,0.012207,1.049072,2.755725,3.030534,-0.717557,1.050003,4.158491,6785,11823,5037,6785,1,85.714,17,normal
1780603851.220499,14.94030919999932,2761197,0.044434,0.009521,1.036377,0.748092,2.229008,-0.931298,1.037373,2.528919,6788,11828,5039,6788,0,85.714,5,normal
1780603851.252766,14.972576100000879,2761228,0.041992,-0.044678,1.060791,1.21374,2.687023,-1.129771,1.062562,3.157474,6789,11830,5040,6789,0,79.137,5,normal
1780603851.2828958,15.002705999999307,2761259,0.026611,-0.016357,1.047363,2.48855,2.816794,-0.854962,1.047829,3.854629,6791,11833,5041,6791,1,79.137,16,normal
1780603851.3148491,15.034659299999475,2761290,0.032715,-0.025146,1.040772,0.48855,2.244275,-1.244275,1.041589,2.612216,6793,11836,5042,6793,0,79.137,5,normal
1780603851.345931,15.06574140000157,2761321,0.040527,-0.054688,1.048096,1.374046,2.664122,-1.526718,1.050304,3.363988,6794,11839,5044,6794,0,79.137,14,normal
1780603851.3774765,15.097286599993822,2761352,0.032959,-0.019287,1.053467,2.709924,3.167939,-0.732824,1.054159,4.232795,6798,11844,5045,6798,0,79.137,5,normal
1780603851.408881,15.128691199992318,2761384,0.050293,-0.024414,1.046143,0.29771,3.030534,-1.40458,1.047635,3.353448,6799,11846,5046,6799,0,79.137,5,normal
1780603851.4403157,15.160126000002492,2761415,0.043213,-0.031494,1.052246,2.099237,3.083969,-1.21374,1.053604,3.923114,6800,11848,5047,6800,0,79.137,5,normal
1780603851.470243,15.190053199999966,2761446,0.049316,-0.037598,1.057129,2.610687,2.984733,-0.282443,1.058946,3.975436,6803,11852,5048,6803,0,79.137,6,normal
1780603851.5016878,15.221498099999735,2761477,0.047363,-0.006592,1.046143,0.442748,2.854962,-1.015267,1.047235,3.062287,6805,11856,5050,6805,0,79.137,6,normal
1780603851.5341618,15.253971999991336,2761508,0.056152,-0.033691,1.055176,2.648855,3.10687,-0.458015,1.057206,4.108388,6806,11860,5053,6806,0,60.714,5,normal
1780603851.5699291,15.289739300002111,2761539,0.067383,-0.020996,1.060791,2.305344,2.648855,-0.877863,1.063136,3.619625,6810,11866,5055,6810,0,60.714,6,normal
1780603851.5956926,15.31550279998919,2761571,0.057617,0.008789,1.056885,0.557252,3.580153,-0.938931,1.058491,3.742942,6812,11870,5057,6812,0,60.714,0,normal
1780603851.6282737,15.348083899996709,2761602,0.037109,-0.05957,1.055176,1.671756,2.435115,-0.389313,1.057507,2.979281,6813,11873,5059,6813,1,60.714,18,normal
1780603851.6573977,15.377208099991549,2761633,0.048584,-0.018555,1.049561,1.679389,2.763359,-0.587786,1.050848,3.286638,6816,11878,5061,6816,0,60.714,6,normal
1780603851.688173,15.407983400000376,2761664,0.046143,-0.006104,1.058594,0.694656,3.053435,-0.694656,1.059616,3.207579,6817,11880,5062,6817,0,60.714,5,normal
1780603851.7195733,15.43938349999371,2761695,0.028076,-0.055908,1.047852,1.732824,2.931298,-0.015267,1.049718,3.405205,6818,11883,5064,6818,1,60.714,18,normal
1780603851.750616,15.470426400002907,2761726,0.022949,-0.023438,1.050293,1.419847,2.412214,-0.732824,1.050805,2.893402,6820,11886,5065,6820,0,60.714,5,normal
1780603851.780053,15.499863099990762,2761757,0.043701,-0.022461,1.063477,1.0,3.061069,-0.526718,1.064611,3.263062,6821,11888,5066,6821,0,60.714,5,normal
1780603851.81217,15.531980200001271,2761787,0.032715,-0.048584,1.041504,1.755725,2.412214,-0.083969,1.04315,2.984694,6822,11893,5070,6822,1,57.348,18,normal
1780603851.84352,15.56333019999147,2761819,0.032227,-0.018066,1.046387,1.29771,2.244275,-0.70229,1.047039,2.685895,6825,11898,5072,6825,0,57.348,0,normal
1780603851.8755121,15.595322299996042,2761850,0.036133,-0.025391,1.060791,1.335878,3.534351,-0.541985,1.06171,3.817061,6826,11900,5073,6826,0,57.348,5,normal
1780603851.9113827,15.6311929999938,2761887,0.046631,-0.043945,1.047119,2.053435,3.114504,-0.442748,1.049078,3.756695,6829,11906,5076,6829,0,57.348,7,normal
1780603851.9415734,15.661383600003319,2761918,0.042236,-0.003906,1.05835,0.534351,3.206107,-0.847328,1.059199,3.358961,6830,11908,5077,6830,0,57.348,5,normal
1780603851.9748945,15.694704800000181,2761949,0.027588,-0.049072,1.040527,1.923664,2.572519,-0.442748,1.042049,3.242586,6831,11913,5081,6831,1,57.348,18,normal
1780603852.0041316,15.723941899996134,2761980,0.037109,-0.015381,1.048584,1.343511,2.641221,-0.89313,1.049353,3.094956,6833,11916,5082,6833,0,57.348,5,normal
1780603852.0358233,15.755633699998725,2762011,0.053467,-0.01001,1.061523,0.824427,3.259542,-0.59542,1.062916,3.414502,6834,11918,5083,6834,0,57.348,6,normal
1780603852.0664983,15.786308499998995,2762042,0.05249,-0.070557,1.046631,2.137405,2.763359,-0.236641,1.050319,3.501521,6835,11921,5085,6835,1,50.98,18,normal
1780603852.0974743,15.817284499993548,2762073,0.035889,-0.017578,1.052246,1.587786,2.664122,-0.625954,1.053005,3.163927,6838,11926,5087,6838,0,50.98,6,normal
1780603852.1277702,15.847580499990727,2762104,0.031982,-0.023438,1.062012,0.931298,3.10687,-0.824427,1.062752,3.346586,6839,11928,5088,6839,0,50.98,5,normal
1780603852.1602156,15.880025899998145,2762135,0.044678,-0.074463,1.044678,2.152672,3.022901,-0.618321,1.048281,3.762213,6840,11931,5090,6840,1,50.98,18,normal
1780603852.1904917,15.910301900003105,2762166,0.031982,-0.01709,1.032227,1.091603,2.206107,-0.931298,1.032863,2.631695,6842,11934,5091,6842,0,50.98,5,normal
1780603852.2212813,15.941091499989852,2762197,0.047363,-0.030273,1.075439,1.061069,2.480916,-0.641221,1.076908,2.773441,6843,11936,5092,6843,0,50.98,5,normal
1780603852.2538474,15.97365770000033,2762228,0.060059,-0.043457,1.046143,2.274809,2.900763,-0.412214,1.048766,3.709326,6845,11943,5097,6845,1,50.98,3,normal
1780603852.2832012,16.003011399996467,2762259,0.041992,-0.017822,1.038574,1.122137,2.038168,-0.564886,1.039576,2.394246,6849,11948,5098,6849,0,50.98,0,normal
1780603852.315421,16.03523129998939,2762290,0.032227,-0.021973,1.071289,0.977099,2.656489,-0.816794,1.071999,2.945982,6850,11950,5099,6850,0,50.98,6,normal
1780603852.3438601,16.063670299990918,2762321,0.056152,0.005371,1.052978,2.59542,3.541985,-0.358779,1.054488,4.405744,6852,11955,5102,6852,1,60.932,15,normal
1780603852.3750157,16.094826000000467,2762351,0.047119,-0.020752,1.046387,1.21374,2.450382,-0.557252,1.047653,2.790711,6854,11958,5103,6854,0,60.932,5,normal
1780603852.4063447,16.12615489999007,2762382,0.037598,-0.029297,1.063965,0.946565,2.618321,-0.923664,1.065032,2.933384,6856,11962,5105,6856,0,60.932,5,normal
1780603852.4392252,16.15903549999348,2762413,0.055176,-0.053955,1.041748,2.961832,2.687023,-0.480916,1.044602,4.02788,6857,11965,5107,6857,1,60.932,18,normal
1780603852.4684622,16.18827240000246,2762444,0.041504,0.00293,1.037598,1.221374,1.89313,-0.305344,1.038432,2.273528,6859,11968,5108,6859,0,60.932,5,normal
1780603852.4983013,16.218111599999247,2762474,0.046875,-0.025879,1.071777,0.992366,2.969466,-0.748092,1.073114,3.219031,6860,11970,5109,6860,0,60.932,6,normal
1780603852.5293207,16.249130900003365,2762505,0.065918,-0.053711,1.044189,2.229008,2.839695,-0.335878,1.047646,3.625625,6862,11975,5112,6862,1,60.932,2,normal
1780603852.5606263,16.280436399989412,2762536,0.036621,-0.015381,1.040527,1.274809,2.045802,-0.625954,1.041285,2.490434,6865,11980,5114,6865,0,60.932,6,normal
1780603852.5910892,16.310899599993718,2762567,0.039062,-0.025391,1.067383,0.832061,2.59542,-0.70229,1.068399,2.814559,6867,11984,5116,6867,0,60.932,1,normal
1780603852.6226437,16.342453899997054,2762597,0.066406,-0.05249,1.045654,2.21374,3.19084,-0.282443,1.049075,3.893826,6868,11987,5118,6868,1,57.971,18,normal
1780603852.6521966,16.372006799996598,2762628,0.042236,-0.013672,1.044434,1.244275,2.679389,-0.656489,1.045377,3.026272,6872,11992,5119,6872,0,57.971,5,normal
1780603852.6838303,16.403640399992582,2762659,0.041992,-0.022217,1.065674,0.870229,3.068702,-0.671756,1.066732,3.259676,6873,11994,5120,6873,0,57.971,5,normal
1780603852.7140489,16.43385919999855,2762690,0.062744,-0.055664,1.040772,2.267176,3.19084,-0.557252,1.044146,3.953742,6874,11999,5124,6874,1,57.971,18,normal
1780603852.7464283,16.466238599998178,2762721,0.039551,-0.004883,1.03418,0.854962,2.725191,-1.038168,1.034947,3.038983,6876,12002,5125,6876,0,57.971,6,normal
1780603852.7769654,16.49677569999767,2762752,0.041504,-0.038574,1.064941,1.442748,2.70229,-0.603053,1.066448,3.12211,6877,12004,5126,6877,0,57.971,6,normal
1780603852.8074944,16.52730459999293,2762783,0.058105,-0.005127,1.047607,2.870229,2.832061,-0.458015,1.04923,4.058148,6878,12007,5128,6878,1,57.971,17,normal
1780603852.8378181,16.557628499998827,2762814,0.044922,-0.004639,1.032471,1.091603,2.763359,-0.732824,1.033458,3.060193,6881,12012,5130,6881,0,57.971,5,normal
1780603852.8691776,16.588987900002394,2762845,0.03125,-0.035645,1.063232,1.229008,2.603053,-0.938931,1.064289,3.02786,6882,12014,5131,6882,0,57.971,5,normal
1780603852.9007432,16.62055339998915,2762876,0.038086,0.010986,1.048828,3.244275,2.732824,-0.198473,1.049577,4.246533,6884,12019,5134,6884,1,57.348,14,normal
1780603852.9318836,16.65169379999861,2762907,0.048096,0.018555,1.039062,0.977099,2.572519,-0.763359,1.04034,2.855748,6887,12024,5136,6887,0,57.348,0,normal
1780603852.9621184,16.681928699996206,2762938,0.045654,-0.053223,1.061768,1.129771,2.618321,-0.793893,1.06408,2.96011,6888,12026,5137,6888,0,57.348,5,normal
1780603852.9939322,16.713742599997204,2762969,0.040283,0.020996,1.054199,2.633588,2.854962,-0.824427,1.055177,3.970677,6891,12031,5139,6891,1,57.348,2,normal
1780603853.0247362,16.744546499990975,2763000,0.041016,0.011963,1.040283,0.229008,2.679389,-0.648855,1.04116,2.76633,6893,12034,5140,6893,0,57.348,6,normal
1780603853.0548794,16.774689600002603,2763031,0.03418,-0.042969,1.059326,1.572519,2.748092,-1.167939,1.060748,3.374745,6894,12036,5141,6894,0,57.348,5,normal
1780603853.0864263,16.80623659999401,2763062,0.028809,-0.020264,1.058594,2.725191,3.19084,-0.572519,1.05918,4.23508,6896,12039,5142,6896,0,57.348,16,normal
1780603853.1174939,16.837304000000586,2763093,0.044434,-0.029297,1.041992,0.091603,2.312977,-1.389313,1.043351,2.699712,6898,12042,5143,6898,0,57.348,5,normal
1780603853.1496704,16.869480699999258,2763124,0.037109,-0.052246,1.054688,2.641221,2.206107,-1.030534,1.056633,3.592347,6901,12046,5144,6901,0,57.348,5,normal
1780603853.1804714,16.90028159999929,2763155,0.05542,-0.027344,1.062988,2.396947,2.916031,-0.984733,1.064783,3.901062,6904,12050,5145,6904,0,71.685,5,normal
1780603853.2118015,16.93161169999803,2763187,0.050781,0.010498,1.054932,0.847328,2.679389,-0.916031,1.056205,2.955707,6907,12054,5146,6907,0,71.685,6,normal
1780603853.2421067,16.961916999993264,2763218,0.050293,-0.030029,1.039062,2.625954,2.916031,-0.10687,1.040712,3.925594,6909,12058,5148,6909,0,71.685,0,normal
1780603853.2728999,16.99271019999287,2763249,0.056885,-0.007324,1.059814,2.450382,2.885496,-0.801527,1.061365,3.869484,6913,12064,5150,6913,0,71.685,6,normal
1780603853.3037825,17.023592799989274,2763280,0.046875,0.008057,1.057373,0.824427,3.419847,-0.916031,1.058442,3.635127,6915,12068,5152,6915,0,71.685,6,normal
1780603853.3352883,17.055098600001656,2763311,0.048096,-0.0354,1.039307,2.503817,2.496183,-0.59542,1.041021,3.585325,6916,12071,5154,6916,1,71.685,18,normal
1780603853.3672853,17.087095499999123,2763342,0.035645,-0.010742,1.053955,1.854962,2.625954,-0.534351,1.054612,3.259149,6918,12074,5155,6918,0,71.685,5,normal
1780603853.3984933,17.118303499999456,2763373,0.050781,0.01123,1.055908,0.541985,3.053435,-0.885496,1.057188,3.225108,6919,12076,5156,6919,0,71.685,5,normal
1780603853.428432,17.148242299997946,2763404,0.061768,-0.04834,1.043457,2.045802,2.679389,-0.236641,1.046401,3.379413,6921,12081,5159,6921,1,71.685,3,normal
1780603853.459739,17.179549299995415,2763435,0.038818,-0.026123,1.043701,1.541985,2.557252,-0.854962,1.044749,3.106158,6923,12084,5160,6923,0,67.857,5,normal
1780603853.4902601,17.21007039998949,2763466,0.049805,-0.026855,1.065186,0.778626,2.992366,-0.59542,1.066687,3.148815,6925,12088,5162,6925,0,67.857,0,normal
1780603853.5222754,17.242085699996096,2763497,0.036377,-0.06543,1.040772,1.908397,2.916031,-0.396947,1.04346,3.507532,6926,12091,5164,6926,1,67.857,18,normal
1780603853.5522149,17.272024999998393,2763528,0.032715,-0.027832,1.044678,1.358779,2.664122,-0.641221,1.04556,3.058593,6930,12096,5165,6930,0,67.857,6,normal
1780603853.5838697,17.303679899996496,2763559,0.045898,-0.025391,1.066406,0.778626,2.625954,-1.045802,1.067696,2.931824,6933,12100,5166,6933,0,67.857,6,normal
1780603853.6151319,17.33494200000132,2763590,0.062256,-0.040771,1.046387,2.625954,2.603053,-0.465649,1.04903,3.726708,6934,12105,5170,6934,1,67.857,17,normal
1780603853.6519873,17.371797500003595,2763621,0.047852,-0.014648,1.035644,1.129771,2.244275,-0.870229,1.036853,2.659032,6936,12108,5171,6936,0,67.857,6,normal
1780603853.6760514,17.39586160000181,2763652,0.039062,-0.033447,1.06665,1.015267,2.816794,-0.961832,1.067889,3.144872,6937,12110,5172,6937,0,67.857,5,normal
1780603853.707658,17.42746829999669,2763683,0.058105,-0.028076,1.049316,2.778626,3.038168,-0.198473,1.051299,4.121968,6938,12113,5174,6938,1,67.857,18,normal
1780603853.73873,17.458540299994638,2763714,0.039551,-0.00415,1.037109,1.160305,2.877863,-0.48855,1.037872,3.141192,6941,12118,5176,6941,0,64.516,5,normal
1780603853.7699244,17.489734699993278,2763745,0.037842,-0.041992,1.06543,1.503817,2.916031,-0.992366,1.066928,3.427753,6942,12120,5177,6942,0,64.516,5,normal
1780603853.8002965,17.520106700001634,2763776,0.041504,0.018555,1.050781,3.007634,3.122137,-0.801527,1.051764,4.408633,6945,12125,5179,6945,1,64.516,14,normal
1780603853.8301897,17.55000000000291,2763807,0.047363,0.018555,1.037354,0.419847,2.870229,-0.908397,1.0386,3.039683,6948,12130,5181,6948,0,64.516,0,normal
1780603853.8610885,17.58089869999094,2763837,0.028076,-0.032227,1.063477,1.137405,2.343511,-1.022901,1.064335,2.798582,6949,12132,5182,6949,0,64.516,5,normal
1780603853.8931677,17.612977999990107,2763868,0.042236,0.009033,1.044189,2.908397,2.870229,-0.618321,1.045082,4.132712,6952,12137,5184,6952,1,64.516,3,normal
1780603853.9239495,17.64375969998946,2763899,0.04541,0.01416,1.038574,0.992366,2.21374,-0.801527,1.039663,2.554972,6954,12140,5185,6954,0,64.516,5,normal
1780603853.9542115,17.67402169998968,2763930,0.042725,-0.050537,1.058594,1.290076,2.366412,-0.801527,1.06066,2.811876,6955,12142,5186,6955,0,64.516,6,normal
1780603853.9865823,17.706392599997343,2763961,0.031006,-0.026367,1.056885,2.862595,2.89313,-0.824427,1.057668,4.15263,6957,12145,5187,6957,1,64.516,16,normal
1780603854.0170684,17.736878600000637,2763993,0.046387,-0.03125,1.046143,0.122137,2.519084,-1.152672,1.047637,2.772968,6959,12148,5188,6959,0,64.516,6,normal
1780603854.0469472,17.766757499994128,2764023,0.043945,-0.039307,1.056396,1.870229,2.320611,-1.389313,1.05804,3.28834,6962,12152,5189,6962,0,64.516,6,normal
1780603854.079049,17.79885929999,2764054,0.044189,-0.02417,1.05249,2.51145,3.328244,-0.419847,1.053695,4.190568,6964,12155,5190,6964,1,64.516,16,normal
1780603854.1089892,17.82879959999991,2764085,0.036621,-0.02832,1.042725,0.122137,2.21374,-1.167939,1.043752,2.505922,6968,12160,5191,6968,0,64.516,6,normal
1780603854.1414068,17.86121699999785,2764116,0.036865,-0.037598,1.052246,2.183206,2.847328,-0.954198,1.053563,3.712703,6970,12164,5193,6970,0,64.516,0,normal
1780603854.1710815,17.89089179999428,2764147,0.055908,-0.020752,1.064209,2.442748,3.381679,-0.916031,1.065878,4.271052,6973,12168,5194,6973,0,64.516,5,normal
1780603854.2015727,17.92138289999275,2764178,0.045654,-0.011719,1.045898,0.366412,2.70229,-0.832061,1.04696,2.851132,6975,12172,5196,6975,0,64.516,5,normal
1780603854.2338939,17.953704200001084,2764208,0.033691,-0.023438,1.051758,2.282443,2.618321,-0.969466,1.052558,3.606246,6976,12174,5197,6976,0,64.516,5,normal
1780603854.2651343,17.984944600000745,2764240,0.059326,-0.017578,1.063477,2.419847,2.572519,-0.80916,1.065275,3.623293,6979,12178,5198,6979,0,64.516,5,normal
1780603854.295599,18.01540930000192,2764271,0.042725,-0.006836,1.048584,0.992366,3.19084,-1.038168,1.049476,3.499149,6980,12180,5199,6980,0,75.54,5,normal
1780603854.3263667,18.046176999996533,2764301,0.047852,-0.027588,1.041992,2.618321,2.572519,-0.564886,1.043455,3.713833,6982,12184,5201,6982,0,75.54,1,normal
1780603854.356971,18.0767812999984,2764332,0.053467,-0.01123,1.057373,2.557252,2.687023,-0.923664,1.058784,3.822667,6986,12190,5203,6986,0,75.54,5,normal
1780603854.386422,18.10623219999252,2764363,0.053223,-0.005859,1.042969,0.656489,2.587786,-1.0,1.044342,2.850897,6988,12194,5205,6988,0,75.54,0,normal
1780603854.416958,18.13676839999971,2764393,0.039795,-0.021729,1.05249,2.183206,2.40458,-1.114504,1.053466,3.433732,6989,12196,5206,6989,0,75.54,5,normal
1780603854.4472818,18.167092199990293,2764423,0.053223,-0.026611,1.067383,2.48855,3.725191,-0.977099,1.06904,4.585264,6993,12202,5208,6993,0,75.54,6,normal
1780603854.4890058,18.20881609999924,2764454,0.052002,-0.023193,1.047852,0.022901,3.10687,-1.0,1.049398,3.263919,6994,12204,5209,6994,0,75.54,6,normal
1780603854.508365,18.228175099997316,2764484,0.041992,-0.038818,1.062744,1.992366,2.572519,-0.931298,1.064282,3.384478,6997,12208,5210,6997,0,75.54,6,normal
1780603854.5388105,18.258620799999335,2764515,0.046875,-0.023682,1.063477,2.80916,3.244275,-1.0,1.064772,4.406438,7000,12212,5211,7000,0,75.54,6,normal
1780603854.5702066,18.290016999992076,2764546,0.031982,-0.024902,1.046387,0.236641,2.625954,-1.099237,1.047172,2.856564,7001,12214,5212,7001,0,76.364,6,normal
1780603854.6014264,18.321236499992665,2764577,0.046631,-0.021973,1.046143,2.358779,2.580153,-0.984733,1.047412,3.631904,7002,12216,5213,7002,0,76.364,5,normal
1780603854.6327531,18.352563399996143,2764608,0.055664,-0.025391,1.067871,2.206107,3.610687,-0.427481,1.069622,4.252847,7006,12222,5215,7006,0,76.364,5,normal
1780603854.6638048,18.383614899998065,2764639,0.040771,-0.019775,1.047363,0.351145,2.564885,-1.053435,1.048343,2.794936,7008,12226,5217,7008,0,76.364,5,normal
1780603854.6942453,18.414055699991877,2764670,0.03833,-0.027588,1.044434,2.389313,2.931298,-0.603053,1.045501,3.82949,7010,12230,5219,7010,0,76.364,1,normal
1780603854.725343,18.44515329999558,2764701,0.035889,-0.005859,1.057617,2.251908,2.419847,-0.610687,1.058242,3.361501,7013,12234,5220,7013,0,76.364,6,normal
1780603854.756915,18.476725400003488,2764732,0.043701,0.016357,1.05127,0.778626,2.900763,-0.694656,1.052305,3.082732,7016,12238,5221,7016,0,76.364,5,normal
1780603854.7902002,18.510010600002715,2764764,0.037109,-0.057129,1.043945,2.229008,2.374046,-0.320611,1.046166,3.27221,7018,12243,5224,7018,1,76.364,3,normal
1780603854.8195055,18.539315699992585,2764795,0.029053,-0.025146,1.04541,1.465649,2.29771,-0.557252,1.046116,2.781749,7020,12246,5225,7020,0,76.364,6,normal
1780603854.8506727,18.57048290000239,2764826,0.052979,-0.011719,1.052002,0.862595,2.969466,-1.274809,1.0534,3.344688,7021,12248,5226,7021,0,71.429,6,normal
1780603854.8818872,18.60169749999477,2764857,0.060547,-0.068115,1.04248,2.068702,2.923664,-0.312977,1.046456,3.595177,7022,12251,5228,7022,1,71.429,17,normal
1780603854.9132438,18.633053999990807,2764888,0.055664,-0.026855,1.045898,1.282443,2.633588,-0.923664,1.047723,3.071417,7024,12254,5229,7024,0,71.429,6,normal
1780603854.9440432,18.663853399993968,2764919,0.049561,-0.024658,1.068115,1.045802,2.816794,-0.984733,1.069549,3.161918,7026,12258,5231,7026,0,71.429,6,normal
1780603854.9756606,18.695470799997565,2764950,0.044922,-0.060303,1.043213,2.442748,2.816794,-0.503817,1.045919,3.762337,7027,12263,5235,7027,1,71.429,18,normal
1780603855.0069911,18.726801500000875,2764981,0.037109,-0.012451,1.036865,1.335878,2.435115,-0.587786,1.037604,2.838987,7031,12268,5236,7031,0,71.429,5,normal
1780603855.037193,18.75700319999305,2765012,0.030518,-0.029785,1.059814,0.984733,2.389313,-0.824427,1.060672,2.7126,7033,12272,5238,7033,0,71.429,1,normal
1780603855.066965,18.786775400003535,2765043,0.063721,-0.024414,1.039551,2.80916,2.877863,-0.427481,1.041788,4.044282,7034,12275,5240,7034,1,71.429,18,normal
1780603855.0976646,18.817474900002708,2765074,0.036865,-0.004639,1.036621,1.335878,2.427481,-0.908397,1.037287,2.915891,7037,12280,5242,7037,0,71.429,5,normal
1780603855.1295476,18.849357799990685,2765105,0.034424,-0.037109,1.060303,1.114504,2.633588,-0.832061,1.06151,2.978293,7038,12282,5243,7038,0,60.932,5,normal
1780603855.1614416,18.88125169998966,2765136,0.040771,0.021729,1.049805,3.015267,3.320611,-0.51145,1.050821,4.514407,7040,12285,5244,7040,1,60.932,17,normal
1780603855.1924863,18.912296599999536,2765168,0.047119,-0.028564,1.050781,0.183206,2.938931,-0.641221,1.052225,3.013644,7042,12288,5245,7042,0,60.932,6,normal
1780603855.2244492,18.94425929999852,2765199,0.039307,-0.045898,1.05542,1.541985,2.977099,-1.221374,1.057148,3.568276,7044,12292,5247,7044,0,60.932,1,normal
1780603855.2555366,18.975346699997317,2765230,0.031006,-0.020752,1.046631,2.908397,3.282443,-0.679389,1.047296,4.43788,7047,12297,5249,7047,1,60.932,3,normal
1780603855.2862966,19.006106799992267,2765261,0.044434,-0.023682,1.040527,0.221374,2.435115,-0.854962,1.041745,2.590318,7050,12302,5251,7050,0,60.932,1,normal
1780603855.317533,19.037343199990573,2765292,0.052979,-0.019287,1.050537,2.137405,2.900763,-1.038168,1.052049,3.749762,7051,12304,5252,7051,0,60.932,5,normal
1780603855.3480918,19.06790209999599,2765323,0.05957,-0.0271,1.06958,2.221374,3.625954,-0.709924,1.07158,4.311153,7055,12310,5254,7055,0,60.932,5,normal
1780603855.378756,19.098566200002097,2765354,0.050293,-0.025879,1.048096,0.099237,2.862595,-0.549618,1.049621,2.91657,7056,12312,5255,7056,0,60.932,5,normal
1780603855.4090273,19.128837700001895,2765384,0.039062,-0.043213,1.063721,1.832061,2.167939,-1.076336,1.065314,3.035606,7058,12316,5257,7058,0,71.685,5,normal
1780603855.4404542,19.16026439999405,2765415,0.052734,-0.026855,1.064453,2.732824,3.412214,-0.473282,1.066097,4.397218,7061,12320,5258,7061,0,71.685,6,normal
1780603855.4715226,19.191332699992927,2765447,0.041504,0.006348,1.051758,0.770992,2.442748,-0.908397,1.052596,2.717836,7062,12322,5259,7062,0,71.685,6,normal
1780603855.5130956,19.23290580000321,2765477,0.058594,-0.02417,1.053467,2.007634,3.175573,-1.21374,1.055372,3.948167,7063,12324,5260,7063,0,71.685,5,normal
1780603855.532313,19.252123300000676,2765508,0.051025,-0.028564,1.051025,2.442748,3.083969,-0.48855,1.052651,3.964412,7067,12330,5262,7067,0,71.685,5,normal
1780603855.5630143,19.28282449999824,2765539,0.040283,-0.016602,1.049316,0.229008,2.78626,-1.206107,1.050221,3.04473,7069,12334,5264,7069,0,71.685,5,normal
1780603855.5932584,19.31306859999313,2765569,0.043457,-0.047852,1.053955,1.89313,3.10687,-0.954198,1.055935,3.76126,7071,12338,5266,7071,0,71.685,1,normal
1780603855.6247356,19.344545899992227,2765600,0.059082,-0.02417,1.074219,2.519084,3.175573,-0.572519,1.076114,4.093632,7074,12342,5267,7074,0,71.685,5,normal
1780603855.6560903,19.3759005000029,2765631,0.045898,-0.028076,1.047119,0.259542,3.015267,-1.022901,1.048501,3.194608,7077,12346,5268,7077,0,71.685,5,normal
1780603855.6859457,19.405755999992834,2765662,0.049805,-0.025146,1.062256,2.374046,2.694656,-0.748092,1.06372,3.668366,7079,12350,5270,7079,0,75.54,0,normal
1780603855.718892,19.438702400002512,2765693,0.051025,-0.02002,1.07251,2.557252,2.503817,-0.89313,1.073909,3.688674,7082,12354,5271,7082,0,75.54,6,normal
1780603855.747412,19.467222199993557,2765724,0.043457,0.002686,1.051514,0.236641,2.709924,-0.938931,1.052415,2.877721,7083,12356,5272,7083,0,75.54,5,normal
1780603855.7807765,19.500586800000747,2765755,0.044678,-0.026123,1.047363,2.412214,2.473282,-0.198473,1.048641,3.460534,7084,12358,5273,7084,0,75.54,5,normal
1780603855.8108134,19.53062360000331,2765786,0.046631,-0.012207,1.067139,2.175573,3.068702,-0.885496,1.068227,3.864473,7087,12362,5274,7087,0,75.54,5,normal
1780603855.841306,19.56111619999865,2765817,0.045898,-0.000977,1.053711,0.862595,2.801527,-1.175572,1.05471,3.158258,7089,12366,5276,7089,0,75.54,5,normal
1780603855.8735309,19.593340999999782,2765848,0.036377,-0.023682,1.038574,2.450382,2.816794,-0.564886,1.039481,3.77595,7090,12370,5279,7090,0,75.54,4,normal
1780603855.903231,19.623041200000443,2765879,0.033447,-0.006104,1.05835,2.038168,2.839695,-0.664122,1.058896,3.557956,7095,12376,5280,7095,0,75.54,6,normal
1780603855.934884,19.65469419999863,2765910,0.044922,0.018799,1.062012,0.648855,3.244275,-0.916031,1.063128,3.432994,7097,12380,5282,7097,0,75.54,0,normal
1780603855.9657757,19.685585999992327,2765941,0.05249,-0.034424,1.049561,2.083969,2.564885,-0.328244,1.051436,3.321041,7099,12385,5285,7099,1,71.685,3,normal
1780603855.9968886,19.716698799995356,2765972,0.036377,-0.008545,1.051025,1.519084,2.389313,-1.08397,1.051689,3.031736,7102,12390,5287,7102,0,71.685,5,normal
1780603856.026401,19.746211399993626,2766002,0.050781,-0.010986,1.041992,0.977099,2.725191,-0.954198,1.043287,3.048259,7104,12394,5289,7104,0,71.685,0,normal
1780603856.0578098,19.777619999993476,2766033,0.043457,-0.036133,1.043945,2.381679,2.80916,-0.435114,1.045474,3.708518,7105,12396,5290,7105,0,71.685,4,normal
1780603856.089626,19.809436399998958,2766064,0.039307,-0.008789,1.05835,2.175573,2.572519,-0.694656,1.059116,3.439988,7108,12400,5291,7108,0,71.685,6,normal
1780603856.1196032,19.839413499998045,2766095,0.046143,0.01416,1.054688,0.755725,2.916031,-0.916031,1.055791,3.148566,7109,12402,5292,7109,0,71.685,6,normal
1780603856.1509755,19.870785599996452,2766126,0.040527,-0.026611,1.047607,2.068702,2.694656,-0.160305,1.048729,3.400941,7110,12407,5296,7110,1,71.685,18,normal
1780603856.1817737,19.901583999992,2766157,0.041016,-0.004395,1.06543,1.969466,2.740458,-1.160305,1.066228,3.568643,7112,12410,5297,7112,0,71.685,5,normal
1780603856.2130404,19.932850700002746,2766188,0.043701,-0.000488,1.064453,0.541985,3.267176,-1.129771,1.06535,3.499224,7113,12412,5298,7113,0,71.685,5,normal
1780603856.2434182,19.963228399996297,2766219,0.039307,-0.052979,1.045898,1.870229,2.374046,-0.519084,1.047977,3.06648,7114,12415,5300,7114,1,53.957,18,normal
1780603856.275171,19.99498129999847,2766250,0.032715,-0.022217,1.045166,1.59542,2.419847,-0.78626,1.045914,3.003203,7117,12420,5302,7117,0,53.957,6,normal
1780603856.305663,20.025473399990005,2766281,0.03833,0.002441,1.063477,0.396947,2.908397,-0.977099,1.06417,3.093714,7119,12424,5304,7119,0,53.957,6,normal
1780603856.3368626,20.056672899998375,2766312,0.03833,-0.060547,1.040527,1.977099,2.526718,-0.129771,1.042992,3.210929,7121,12429,5307,7121,1,53.957,15,normal
1780603856.3688097,20.08861999999499,2766343,0.041016,-0.024414,1.048584,1.59542,2.503817,-0.70229,1.04967,3.050848,7124,12434,5309,7124,0,53.957,0,normal
1780603856.400284,20.120094199999585,2766375,0.031006,-0.022705,1.064453,0.992366,2.603053,-0.900763,1.065147,2.927807,7125,12436,5310,7125,0,53.957,5,normal
1780603856.4292579,20.149067999998806,2766406,0.053223,-0.047607,1.039307,2.29771,3.0,-0.664122,1.041757,3.836734,7127,12441,5313,7127,1,53.957,3,normal
1780603856.4601593,20.179969499993604,2766435,0.040039,-0.01416,1.053467,1.80916,2.755725,-0.778626,1.054322,3.387232,7129,12444,5314,7129,0,53.957,6,normal
1780603856.4915593,20.21136960000149,2766466,0.042236,-0.01709,1.065918,0.610687,3.183206,-1.038168,1.066891,3.403459,7130,12446,5315,7130,0,53.957,5,normal
1780603856.5216358,20.241445999999996,2766497,0.048584,-0.068848,1.052978,1.770992,2.641221,-0.21374,1.056345,3.187185,7131,12449,5317,7131,1,61.151,18,normal
1780603856.552463,20.27227319999656,2766528,0.032959,-0.020752,1.036377,1.854962,2.290076,-0.656489,1.037109,3.019323,7133,12452,5318,7133,0,61.151,5,normal
1780603856.5934265,20.31323679999332,2766559,0.037598,-0.020508,1.054199,0.954198,2.633588,-0.824427,1.055069,2.919925,7135,12456,5320,7135,0,61.151,5,normal
1780603856.6148942,20.334704399996554,2766590,0.041504,-0.0625,1.04126,2.167939,2.312977,-0.603053,1.043959,3.226995,7136,12459,5322,7136,1,61.151,18,normal
1780603856.6451626,20.36497280000185,2766621,0.036133,-0.025635,1.040772,1.526718,2.549618,-0.648855,1.041714,3.041781,7138,12462,5323,7138,0,61.151,6,normal
1780603856.6773202,20.397130500001367,2766652,0.04541,-0.015869,1.07959,1.076336,2.473282,-0.931298,1.080661,2.853584,7139,12464,5324,7139,0,61.151,6,normal
1780603856.708682,20.428492399994866,2766683,0.04834,-0.067871,1.042725,2.068702,3.152672,-0.70229,1.046049,3.835633,7141,12469,5327,7141,1,61.151,3,normal
1780603856.7381535,20.4579636999988,2766714,0.044922,-0.028809,1.037598,1.519084,2.870229,-0.40458,1.038969,3.27254,7144,12474,5329,7144,0,61.151,5,normal
1780603856.7691355,20.488945699995384,2766745,0.037109,-0.029053,1.062988,1.167939,2.748092,-0.854962,1.064033,3.10597,7146,12478,5331,7146,0,61.151,0,normal
1780603856.8005245,20.52033469999151,2766776,0.054932,-0.036865,1.036865,2.343511,3.450382,-0.717557,1.038974,4.232265,7147,12481,5333,7147,1,57.348,18,normal
1780603856.831257,20.5510673999961,2766807,0.052002,-0.016846,1.043213,1.290076,2.900763,-0.671756,1.044644,3.244993,7151,12486,5334,7151,0,57.348,6,normal
1780603856.863198,20.58300829998916,2766838,0.043701,-0.032959,1.057861,1.183206,2.29771,-1.038168,1.059276,2.785182,7152,12488,5335,7152,0,57.348,5,normal
1780603856.8938677,20.613677999994252,2766868,0.046875,-0.067139,1.037354,2.053435,3.19084,-0.450382,1.04058,3.821112,7153,12493,5339,7153,1,57.348,18,normal
1780603856.924053,20.643863199991756,2766899,0.043945,-0.017822,1.038818,1.328244,2.427481,-0.480916,1.0399,2.80859,7155,12496,5340,7155,0,57.348,5,normal
1780603856.9550228,20.674833099998068,2766930,0.039795,-0.028564,1.066894,0.870229,2.48855,-1.007634,1.068018,2.822322,7156,12498,5341,7156,0,57.348,5,normal
1780603856.9849153,20.70472539999173,2766961,0.056152,-0.044922,1.042969,1.977099,2.78626,-0.534351,1.045445,3.45799,7157,12501,5343,7157,1,57.348,18,normal
1780603857.0168636,20.736673899999005,2766991,0.030762,-0.025391,1.043701,1.664122,2.503817,-0.709924,1.044463,3.089076,7160,12506,5345,7160,0,57.348,6,normal
1780603857.047198,20.76700819999678,2767022,0.054688,-0.030762,1.062744,0.59542,2.946565,-1.236641,1.064595,3.250546,7162,12510,5347,7162,0,57.348,6,normal
1780603857.0775714,20.797381600001245,2767053,0.05957,-0.050781,1.044922,1.946565,3.083969,-0.564886,1.04785,3.690404,7164,12515,5350,7164,1,61.372,14,normal
1780603857.1080124,20.82782269999734,2767084,0.055176,-0.025146,1.029785,1.167939,2.70229,-0.832061,1.031569,3.059212,7167,12520,5352,7167,0,61.372,1,normal
1780603857.1404235,20.860233699990204,2767115,0.031982,-0.024414,1.064209,0.824427,2.80916,-0.931298,1.064969,3.072194,7168,12522,5353,7168,0,61.372,5,normal
1780603857.171205,20.891015399989556,2767146,0.058105,-0.053955,1.041016,1.984733,3.038168,-0.480916,1.044031,3.660725,7170,12527,5356,7170,1,61.372,3,normal
1780603857.20104,20.920850199996494,2767177,0.041504,0.001221,1.029297,1.40458,2.51145,-0.862595,1.030134,3.004047,7172,12530,5357,7172,0,61.372,6,normal
1780603857.232853,20.9526632999914,2767208,0.035156,-0.035889,1.061279,1.030534,2.175573,-1.076336,1.062468,2.636971,7173,12532,5358,7173,0,61.372,6,normal
1780603857.2633142,20.983124399994267,2767239,0.059082,-0.006348,1.041016,2.839695,3.114504,-0.442748,1.04271,4.237927,7174,12535,5360,7174,1,61.372,17,normal
1780603857.2957335,21.015543699992122,2767270,0.045654,-0.000488,1.032227,1.526718,2.450382,-0.473282,1.033236,2.925617,7176,12538,5361,7176,0,61.372,5,normal
1780603857.3253899,21.0451999999932,2767301,0.040283,-0.031982,1.054443,1.358779,2.435115,-1.08397,1.055697,2.991831,7179,12542,5362,7179,0,61.372,5,normal
1780603857.3582156,21.07802570000058,2767332,0.032471,0.018799,1.053711,2.969466,3.48855,-0.954198,1.054379,4.679551,7181,12545,5363,7181,1,60.932,17,normal
1780603857.3888404,21.1086507,2767364,0.027344,-0.020752,1.035889,0.366412,2.305344,-0.916031,1.036457,2.507584,7185,12550,5364,7185,0,60.932,6,normal
1780603857.4204552,21.14026549999835,2767395,0.033203,-0.047119,1.044434,1.450382,3.160305,-1.137405,1.046023,3.658528,7187,12554,5366,7187,0,60.932,0,normal
1780603857.4502892,21.170099499999196,2767426,0.043213,-0.02002,1.060303,2.671756,3.442748,-0.564886,1.061372,4.394302,7190,12559,5368,7190,1,60.932,2,normal
1780603857.4875944,21.207404599990696,2767462,0.047363,-0.02832,1.036133,0.549618,2.78626,-1.099237,1.037601,3.045266,7193,12564,5370,7193,0,60.932,5,normal
1780603857.525029,21.244839199993294,2767494,0.030273,0.017334,1.054199,3.251908,3.358779,-0.969466,1.054776,4.774533,7196,12569,5372,7196,1,60.932,14,normal
1780603857.5497696,21.269579899992095,2767525,0.052979,0.01416,1.039795,0.648855,2.717557,-0.648855,1.04124,2.8683,7198,12572,5373,7198,0,60.932,5,normal
1780603857.5810518,21.3008620999899,2767556,0.05127,-0.050293,1.055176,1.458015,2.465649,-1.068702,1.057617,3.057345,7199,12574,5374,7199,0,60.932,5,normal
1780603857.6124806,21.33229079999728,2767587,0.048584,-0.022461,1.064453,2.496183,2.984733,-0.473282,1.065798,3.919638,7202,12579,5376,7202,1,82.353,3,normal
1780603857.6433876,21.363197799990303,2767618,0.046387,-0.030273,1.052002,0.396947,2.503817,-0.931298,1.053459,2.700737,7204,12582,5377,7204,0,82.353,6,normal
1780603857.6728067,21.392616999990423,2767649,0.033203,-0.045166,1.054932,1.671756,2.48855,-1.221374,1.05642,3.23719,7205,12584,5378,7205,0,82.353,6,normal
1780603857.7046213,21.42443149999599,2767679,0.04248,0.016113,1.043945,2.740458,3.167939,-0.862595,1.044934,4.276683,7207,12587,5379,7207,1,82.353,17,normal
1780603857.7348175,21.454627799990703,2767710,0.042969,0.00708,1.036377,0.534351,2.244275,-0.89313,1.037291,2.47386,7209,12590,5380,7209,0,82.353,5,normal
1780603857.7662752,21.486085299999104,2767741,0.047119,-0.052734,1.049316,1.694656,2.625954,-0.908397,1.051697,3.25464,7213,12596,5382,7213,0,82.353,1,normal
1780603857.7977443,21.51755449999473,2767773,0.059082,-0.025146,1.062256,2.549618,3.053435,-0.900763,1.064195,4.078651,7216,12600,5383,7216,0,82.353,5,normal
1780603857.8285658,21.54837609999231,2767804,0.036133,-0.022217,1.047363,0.435114,2.992366,-0.984733,1.048222,3.180138,7219,12604,5384,7219,0,82.353,5,normal
1780603857.8610091,21.58081939999829,2767835,0.040283,-0.031494,1.041504,2.068702,2.389313,-0.70229,1.042758,3.237523,7221,12608,5386,7221,0,82.353,0,normal
1780603857.8919992,21.611809499998344,2767866,0.04541,-0.009277,1.068115,2.328244,2.618321,-0.503817,1.06912,3.539796,7224,12612,5387,7224,0,78.853,6,normal
1780603857.921785,21.64159529999597,2767897,0.042725,0.006836,1.057129,1.038168,3.061069,-0.816794,1.058014,3.33393,7226,12616,5389,7226,0,78.853,6,normal
1780603857.952999,21.672809299998335,2767927,0.046875,-0.02832,1.049805,2.10687,3.053435,-0.70229,1.051232,3.775656,7227,12618,5390,7227,0,78.853,5,normal
1780603857.9842634,21.704073699991568,2767959,0.055176,-0.01123,1.065674,2.099237,2.78626,-0.450382,1.06716,3.517511,7230,12622,5391,7230,0,78.853,5,normal
1780603858.0150301,21.73484049999388,2767990,0.053955,0.010254,1.056396,0.59542,3.48855,-0.832061,1.057823,3.635496,7231,12624,5392,7231,0,78.853,5,normal
1780603858.0465019,21.76631209999323,2768021,0.044189,-0.046143,1.037842,2.236641,2.51145,-0.259542,1.039806,3.373027,7233,12629,5395,7233,1,78.853,3,normal
1780603858.0760486,21.79585889998998,2768052,0.030273,-0.020996,1.047363,2.198473,2.603053,-0.732824,1.048011,3.48514,7236,12634,5397,7236,0,78.853,5,normal
1780603858.1071377,21.82694790000096,2768082,0.049316,0.01123,1.052978,0.961832,3.007634,-0.854962,1.054193,3.271382,7238,12638,5399,7238,0,78.853,1,normal
1780603858.1374943,21.857304599994677,2768113,0.039551,-0.023926,1.046631,2.679389,2.396947,-0.236641,1.047651,3.602843,7239,12640,5400,7239,0,78.853,4,normal
1780603858.168829,21.888639099997818,2768144,0.037842,-0.008545,1.05835,1.854962,3.29771,-0.687023,1.05906,3.845488,7244,12646,5401,7244,0,71.942,6,normal
1780603858.1995656,21.919375899989973,2768174,0.061035,-0.022217,1.054932,0.854962,3.396947,-0.870229,1.056929,3.609364,7245,12648,5402,7245,0,71.942,6,normal
1780603858.2293804,21.94919059998938,2768205,0.049561,-0.026123,1.046387,2.40458,2.977099,-0.21374,1.047885,3.832859,7246,12652,5405,7246,0,71.942,4,normal
1780603858.2606668,21.980477199991583,2768236,0.050537,-0.007324,1.056152,2.099237,2.977099,-0.755725,1.057386,3.720354,7249,12656,5406,7249,0,71.942,5,normal
1780603858.2913973,22.011207599993213,2768266,0.041748,-0.020752,1.048828,0.343511,2.839695,-1.08397,1.049864,3.058898,7250,12658,5407,7250,0,71.942,5,normal
1780603858.3212438,22.041054000001168,2768297,0.049316,-0.022217,1.050049,2.19084,2.70229,-0.992366,1.051441,3.617588,7251,12660,5408,7251,0,71.942,5,normal
1780603858.35272,22.07253019999189,2768328,0.051514,-0.009277,1.066406,2.305344,2.656489,-0.480916,1.06769,3.550045,7255,12666,5410,7255,0,71.942,6,normal
1780603858.3828175,22.10262779999175,2768358,0.035156,-0.01709,1.050537,0.374046,2.839695,-1.145038,1.051264,3.084622,7257,12670,5412,7257,0,71.942,6,normal
1780603858.4130857,22.132895999995526,2768389,0.051514,-0.028076,1.052734,2.015267,3.038168,-0.824427,1.054368,3.73784,7259,12674,5414,7259,0,71.942,0,normal
1780603858.4448426,22.164652899999055,2768419,0.038574,-0.023438,1.060059,2.687023,3.442748,-0.847328,1.061019,4.44866,7261,12677,5415,7261,0,61.818,15,normal
1780603858.4809349,22.20074499999464,2768450,0.041016,-0.02832,1.044434,0.664122,2.465649,-1.061069,1.045622,2.765203,7265,12682,5416,7265,0,61.818,5,normal
1780603858.5057771,22.225587299995823,2768481,0.04541,-0.023926,1.05249,1.816794,2.946565,-1.053435,1.053741,3.618385,7267,12686,5418,7267,0,61.818,0,normal
1780603858.5366485,22.256458799995016,2768512,0.054688,-0.021973,1.067139,2.29771,3.015267,-0.954198,1.068765,3.909194,7270,12690,5419,7270,0,61.818,5,normal
1780603858.569272,22.289082199989934,2768543,0.040039,-0.018799,1.052246,0.419847,3.015267,-0.687023,1.053175,3.120914,7271,12692,5420,7271,0,61.818,5,normal
1780603858.598971,22.31878119999601,2768574,0.044922,-0.033203,1.054199,2.236641,2.549618,-0.78626,1.055678,3.481569,7272,12694,5421,7272,0,61.818,5,normal
1780603858.6298947,22.34970489999978,2768605,0.042969,-0.023193,1.069336,2.10687,3.70229,-0.870229,1.07045,4.347776,7275,12698,5422,7275,0,61.818,6,normal
1780603858.659534,22.37934430000314,2768635,0.046143,-0.026367,1.04834,0.51145,2.465649,-1.145038,1.049686,2.766246,7277,12702,5424,7277,0,61.818,6,normal
1780603858.6923842,22.412194499993348,2768666,0.056396,-0.029541,1.051758,2.335878,2.687023,-0.618321,1.053683,3.613688,7278,12704,5425,7278,0,61.818,5,normal
1780603858.7225614,22.442371700002695,2768697,0.046631,-0.025635,1.066894,2.122137,3.877863,-0.679389,1.068221,4.472456,7281,12708,5426,7281,0,71.942,5,normal
1780603858.7536414,22.47345150000183,2768729,0.054199,0.0,1.056396,1.236641,2.961832,-0.847328,1.057786,3.319593,7283,12712,5428,7283,0,71.942,1,normal
1780603858.7836514,22.50346169999102,2768759,0.029785,-0.030518,1.040283,2.244275,2.847328,-0.908397,1.041157,3.737544,7284,12714,5429,7284,0,71.942,5,normal
1780603858.8166687,22.536478900001384,2768790,0.054443,-0.01416,1.067139,2.458015,3.038168,-1.167939,1.06862,4.078772,7288,12720,5431,7288,0,71.942,5,normal
1780603858.846304,22.56611420000263,2768821,0.05835,-0.00293,1.052246,0.80916,2.854962,-0.80916,1.053867,3.075758,7290,12724,5433,7290,0,71.942,0,normal
1780603858.8775277,22.597337899991544,2768852,0.040039,-0.027832,1.039062,2.236641,2.694656,-0.358779,1.040206,3.520292,7291,12726,5434,7291,0,71.942,5,normal
1780603858.908556,22.628366299992194,2768883,0.050049,-0.018799,1.061035,2.091603,3.160305,-0.748092,1.062381,3.862897,7294,12730,5435,7294,0,71.942,6,normal
1780603858.9390893,22.658899599991855,2768914,0.040527,0.024414,1.0625,1.053435,3.335878,-0.679389,1.063553,3.563618,7295,12732,5436,7295,0,71.942,5,normal
1780603858.9691157,22.68892600000254,2768944,0.046875,-0.027832,1.042236,2.21374,2.671756,-0.564886,1.043661,3.515398,7296,12736,5439,7296,0,71.942,4,normal
1780603859.0005288,22.720338999992236,2768976,0.044678,-0.011475,1.063721,1.984733,2.587786,-0.435114,1.06472,3.290156,7299,12740,5440,7299,0,64.516,5,normal
1780603859.0319571,22.751767299996573,2769007,0.049072,0.020996,1.057861,0.541985,3.419847,-1.08397,1.059207,3.628236,7300,12742,5441,7300,0,64.516,5,normal
1780603859.0626047,22.782414799992694,2769038,0.042969,-0.035889,1.043945,1.648855,2.389313,-0.358779,1.045445,2.925109,7302,12747,5444,7302,1,64.516,14,normal
1780603859.0936482,22.81345839999267,2769069,0.033936,-0.026123,1.05249,1.374046,2.374046,-0.854962,1.053361,2.873161,7305,12752,5446,7305,0,64.516,6,normal
1780603859.1248775,22.84468779999588,2769100,0.048584,-0.025879,1.063232,0.549618,3.10687,-0.679389,1.064656,3.227428,7307,12756,5448,7307,0,64.516,6,normal
1780603859.1560338,22.875843999994686,2769131,0.035156,-0.066162,1.04834,1.732824,2.519084,-0.671756,1.051014,3.13045,7309,12761,5451,7309,1,64.516,14,normal
1780603859.1869147,22.906724999993457,2769162,0.033691,-0.029297,1.049805,1.427481,2.641221,-0.59542,1.050754,3.060764,7311,12764,5452,7311,0,64.516,6,normal
1780603859.2184489,22.93825919998926,2769193,0.041504,-0.02124,1.066162,0.946565,3.145038,-0.824427,1.067181,3.386286,7312,12766,5453,7312,0,64.516,5,normal
1780603859.24962,22.969430299999658,2769224,0.058105,-0.051758,1.038818,1.900763,3.274809,-0.305344,1.041729,3.798751,7314,12771,5456,7314,1,64.516,3,normal
1780603859.2802866,23.000096799994935,2769255,0.044434,-0.016113,1.039551,1.251908,2.312977,-0.824427,1.040625,2.756233,7316,12774,5457,7316,0,60.932,5,normal
1780603859.3117285,23.031538700000965,2769286,0.040039,-0.022705,1.071777,1.129771,2.770992,-0.832061,1.072765,3.105979,7317,12776,5458,7317,0,60.932,5,normal
1780603859.3422337,23.062043999991147,2769317,0.056396,-0.054443,1.043945,2.244275,3.114504,-0.641221,1.046884,3.892052,7318,12779,5460,7318,1,60.932,18,normal
1780603859.3726254,23.092435600003228,2769348,0.049561,-0.007813,1.042725,1.320611,2.755725,-0.854962,1.043931,3.173168,7320,12782,5461,7320,0,60.932,6,normal
1780603859.4041028,23.123913099989295,2769379,0.034424,-0.030762,1.063965,1.396947,2.305344,-0.870229,1.064966,2.832555,7322,12786,5463,7322,0,60.932,6,normal
1780603859.434012,23.153822299995227,2769410,0.063477,-0.009277,1.045654,2.801527,2.748092,-0.656489,1.04762,3.978886,7325,12791,5465,7325,1,60.932,17,normal
1780603859.4659975,23.1858077999932,2769441,0.05249,-0.006836,1.033203,1.534351,2.320611,-0.832061,1.034558,2.903755,7329,12796,5466,7329,0,60.932,5,normal
1780603859.4981894,23.217999699991196,2769472,0.047607,-0.055908,1.057617,1.206107,2.427481,-0.740458,1.060163,2.809918,7331,12800,5468,7331,0,60.932,0,normal
1780603859.527889,23.24769920000108,2769503,0.029541,0.01123,1.052978,3.038168,2.977099,-0.519084,1.053453,4.28521,7333,12803,5469,7333,1,60.932,17,normal
1780603859.5581532,23.27796349998971,2769534,0.039795,0.000977,1.037842,0.847328,2.244275,-0.709924,1.038605,2.501744,7336,12808,5471,7336,0,71.685,5,normal
1780603859.5902963,23.310106399992947,2769565,0.039307,-0.05835,1.061768,1.251908,2.40458,-1.21374,1.064096,2.97026,7337,12810,5472,7337,0,71.685,5,normal
1780603859.6202333,23.340043599993805,2769596,0.035645,0.007568,1.04126,2.519084,2.931298,-0.946565,1.041897,3.979231,7339,12813,5473,7339,1,71.685,17,normal
1780603859.6658158,23.385626099989167,2769627,0.041748,-0.032715,1.037598,0.251908,2.908397,-0.839695,1.038952,3.03765,7341,12816,5474,7341,0,71.685,5,normal
1780603859.68353,23.403340399992885,2769658,0.037842,-0.042236,1.048584,2.061069,2.534351,-1.091603,1.050116,3.444203,7343,12820,5476,7343,0,71.685,1,normal
1780603859.7140675,23.4338776999939,2769689,0.036621,-0.028809,1.060059,2.610687,3.290076,-0.732824,1.061082,4.263487,7347,12826,5478,7347,0,71.685,6,normal
1780603859.7453492,23.46515940000245,2769720,0.030273,-0.024902,1.04126,0.435114,2.847328,-0.80916,1.041997,2.99188,7349,12830,5480,7349,0,71.685,0,normal
1780603859.7763336,23.496143700001994,2769751,0.044189,-0.02832,1.040527,2.267176,2.839695,-0.931298,1.04185,3.751169,7350,12832,5481,7350,0,71.685,5,normal
1780603859.8084435,23.528253700002097,2769782,0.05127,-0.020264,1.068359,2.572519,2.984733,-1.007634,1.069781,4.067162,7354,12838,5483,7354,0,71.685,5,normal
1780603859.8383691,23.55817930000194,2769813,0.052246,-0.016113,1.047607,0.412214,2.770992,-0.931298,1.049033,2.952225,7355,12840,5484,7355,0,68.1,5,normal
1780603859.8692744,23.589084599996568,2769844,0.052979,-0.025146,1.045654,2.442748,2.770992,-0.709924,1.047298,3.76157,7356,12844,5487,7356,0,68.1,4,normal
1780603859.9025831,23.622393300000113,2769875,0.056885,-0.022705,1.064941,2.374046,2.961832,-0.770992,1.066701,3.873367,7359,12848,5488,7359,0,68.1,5,normal
