host_epoch_s,host_elapsed_s,time_ms,ax,ay,az,gx,gy,gz,acc_mag,gyro_mag,pulse_count,edge_count,rise_count,fall_count,state,pulse_rate_hz,last_edge_dt_ms,label
1780595591.8054938,0.027432400005636737,187,0.040771,-0.046387,1.057861,2.038168,3.175573,-0.648855,1.059662,3.82876,19,30,11,19,1,0.0,0,normal
1780595591.8362794,0.05821790000481997,217,0.067871,-0.033691,1.066162,2.587786,3.236641,-0.076336,1.068851,4.144672,23,36,13,23,0,0.0,5,normal
1780595591.8667345,0.08867300000565592,248,0.072998,0.005127,1.055908,0.664122,3.534351,-1.114504,1.058441,3.764946,27,42,15,27,0,0.0,0,normal
1780595591.8978631,0.11980179999954998,278,0.064453,-0.038818,1.055908,2.427481,2.961832,-0.419847,1.058585,3.852452,29,47,18,29,1,104.317,14,normal
1780595591.928314,0.15025259999674745,310,0.023682,-0.006836,1.048584,2.091603,2.183206,-0.358779,1.048874,3.044653,34,54,20,34,0,104.317,0,normal
1780595591.960363,0.1823015999980271,341,0.050293,-0.014404,1.060547,0.412214,2.984733,-0.885496,1.061836,3.140486,36,58,22,36,0,104.317,1,normal
1780595591.9925375,0.21447609999449924,373,0.052734,-0.030518,1.050537,3.21374,3.206107,-0.358779,1.052302,4.553676,37,61,24,37,1,104.317,17,normal
1780595592.0348134,0.25675200000114273,405,0.046631,-0.015869,1.050293,0.290076,2.48855,-0.961832,1.051447,2.683681,42,68,26,42,0,104.317,1,normal
1780595592.0551863,0.27712480000627693,436,0.039307,-0.04834,1.058838,2.114504,2.480916,-0.862595,1.060669,3.371964,44,72,28,44,0,104.317,0,normal
1780595592.086552,0.30849060000036843,467,0.064697,-0.030762,1.053955,1.992366,2.267176,-0.503817,1.056387,3.059974,49,78,29,49,0,104.317,5,normal
1780595592.1175303,0.33946889999788254,498,0.05957,0.010254,1.063477,0.206107,3.541985,-1.145038,1.065193,3.72817,53,84,31,53,0,104.317,0,normal
1780595592.1488326,0.3707711000024574,529,0.019287,-0.052246,1.044189,2.312977,2.610687,-0.419847,1.045674,3.513093,55,89,34,55,1,103.586,14,normal
1780595592.1793268,0.4012652999954298,561,0.046631,-0.003174,1.052978,1.725191,2.29771,-0.656489,1.054015,2.947326,60,96,36,60,0,103.586,1,normal
1780595592.210984,0.432922599997255,591,0.026611,-0.038818,1.045654,0.40458,2.656489,-0.908397,1.046713,2.836512,62,100,38,62,0,103.586,0,normal
1780595592.2412636,0.46320230000128504,622,0.066406,-0.051758,1.062256,3.10687,3.10687,-0.412214,1.065587,4.413072,65,105,40,65,1,103.586,14,normal
1780595592.2725754,0.49451390000467654,653,0.039551,-0.000244,1.047363,0.755725,2.725191,-0.89313,1.04811,2.965715,70,112,42,70,0,103.586,0,normal
1780595592.3026736,0.524612299996079,684,0.033203,-0.039551,1.051025,1.564886,2.519084,-0.80916,1.052293,3.073986,72,116,44,72,0,103.586,0,normal
1780595592.3346124,0.556551000001491,715,0.033936,-0.021729,1.062256,2.801527,3.70229,-0.40458,1.06302,4.660385,75,120,45,75,0,103.586,5,normal
1780595592.3658013,0.5877400000026682,746,0.026123,-0.011963,1.048584,0.236641,3.091603,-1.152672,1.048978,3.307969,79,126,47,79,0,103.586,0,normal
1780595592.3960743,0.618012799997814,777,0.060547,-0.035889,1.055664,2.610687,2.687023,-0.519084,1.058008,3.782225,81,131,50,81,1,103.586,14,normal
1780595592.4274235,0.6493619999964722,808,0.042725,-0.02417,1.053711,2.427481,2.633588,-0.206107,1.054854,3.587608,85,137,52,85,0,107.527,3,normal
1780595592.4589925,0.6809309999953257,840,0.053467,-0.007568,1.069092,0.412214,3.068702,-1.328244,1.070455,3.369137,88,142,54,88,0,107.527,1,normal
1780595592.4901218,0.7120604999945499,871,0.043213,-0.034668,1.049072,2.885496,2.969466,-0.40458,1.050534,4.160228,90,147,57,90,1,107.527,14,normal
1780595592.521379,0.7433176000049571,903,0.043457,-0.001221,1.045166,0.343511,2.717557,-1.160305,1.04607,2.974798,95,154,59,95,0,107.527,0,normal
1780595592.552853,0.774791699994239,934,0.030518,-0.03125,1.069336,1.969466,2.305344,-1.045802,1.070228,3.207352,96,156,60,96,0,107.527,5,normal
1780595592.5841472,0.8060857999953441,965,0.058105,-0.034668,1.058594,2.847328,3.129771,-0.061069,1.060754,4.231604,100,162,62,100,0,107.527,6,normal
1780595592.614582,0.8365206000016769,996,0.068848,0.000488,1.056885,0.519084,3.610687,-1.175572,1.059125,3.832555,104,168,64,104,0,107.527,1,normal
1780595592.6466846,0.8686232000036398,1027,0.061279,-0.045898,1.052246,2.221374,2.274809,-0.40458,1.055028,3.205143,106,173,67,106,1,107.527,14,normal
1780595592.6781015,0.9000401999946916,1059,0.018555,-0.001709,1.053955,1.480916,2.267176,-0.59542,1.05412,2.772674,111,180,69,111,0,103.586,0,normal
1780595592.7089014,0.9308400000008987,1090,0.052002,-0.022949,1.055664,0.358779,2.29771,-0.89313,1.057193,2.491159,113,184,71,113,0,103.586,0,normal
1780595592.7402647,0.9622033000050578,1121,0.043457,-0.010986,1.049316,3.091603,3.557252,-0.526718,1.050273,4.742308,115,189,74,115,1,103.586,14,normal
1780595592.7712276,0.9931662000017241,1152,0.039307,0.008301,1.04834,0.862595,2.610687,-0.89313,1.049109,2.890924,120,196,76,120,0,103.586,0,normal
1780595592.8025484,1.0244869000016479,1183,0.027344,-0.05542,1.053955,1.412214,2.412214,-0.900763,1.055765,2.93675,122,200,78,122,0,103.586,0,normal
1780595592.833889,1.055827500007581,1214,0.04248,-0.024658,1.052734,2.900763,3.755725,-0.435114,1.05388,4.76542,125,204,79,125,0,103.586,5,normal
1780595592.8650107,1.0869494000071427,1246,0.069336,0.015625,1.059326,0.748092,3.78626,-1.114504,1.061708,4.017153,129,210,81,129,0,103.586,0,normal
1780595592.8973572,1.1192958000028739,1278,0.025635,-0.054199,1.037354,2.480916,2.450382,-0.763359,1.039085,3.569598,131,215,84,131,1,103.586,14,normal
1780595592.927126,1.1490646000020206,1309,0.023926,0.003418,1.047119,1.396947,2.351145,-0.389313,1.047398,2.76241,136,222,86,136,0,100.0,0,normal
1780595592.9595168,1.1814554000011412,1340,0.049316,-0.033447,1.056396,0.70229,2.396947,-0.847328,1.058076,2.637524,138,226,88,138,0,100.0,0,normal
1780595592.9890587,1.2109974000049988,1371,0.044189,-0.014404,1.048096,2.847328,3.59542,-0.145038,1.049126,4.588612,141,231,90,141,1,100.0,14,normal
1780595593.020096,1.2420345999998972,1402,0.037109,-0.008057,1.047363,1.022901,2.946565,-0.664122,1.048052,3.188986,146,238,92,146,0,100.0,0,normal
1780595593.0517669,1.2737054000026546,1433,0.037354,-0.036621,1.062744,1.78626,2.450382,-0.954198,1.064031,3.178929,148,242,94,148,0,100.0,0,normal
1780595593.0835686,1.30550729999959,1464,0.036865,-0.026367,1.050049,3.030534,3.854962,-0.442748,1.051026,4.923504,152,248,96,152,0,100.0,6,normal
1780595593.1135247,1.3354632999980822,1495,0.042969,0.00415,1.05127,0.312977,3.442748,-1.358779,1.052156,3.714398,156,254,98,156,0,100.0,0,normal
1780595593.1440866,1.3660251999972388,1526,0.058838,-0.040283,1.062012,2.091603,3.351145,-0.534351,1.064403,3.98629,158,259,101,158,1,100.0,13,normal
1780595593.1763904,1.3983290000032866,1557,0.038086,-0.023193,1.050781,1.862595,2.458015,-0.603053,1.051727,3.142415,162,264,102,162,0,100.0,0,normal
1780595593.2072334,1.4291720000037458,1589,0.049316,-0.003418,1.05835,0.541985,2.526718,-1.068702,1.059503,2.796458,164,268,104,164,0,100.0,1,normal
1780595593.2387571,1.4606957000069087,1620,0.058105,-0.034424,1.061279,2.969466,3.083969,-0.396947,1.063426,4.299554,166,273,107,166,1,100.0,14,normal
1780595593.2693639,1.4913025999994716,1651,0.047852,0.010498,1.051025,1.374046,2.557252,-0.89313,1.052166,3.037305,171,280,109,171,0,100.0,1,normal
1780595593.3004606,1.522399299996323,1682,0.041504,-0.0625,1.056396,1.465649,2.206107,-1.053435,1.059057,2.850396,173,284,111,173,0,100.0,0,normal
1780595593.332889,1.5548278000060236,1713,0.037354,-0.022461,1.05127,3.022901,3.717557,-0.320611,1.052173,4.802182,177,290,113,177,0,100.0,5,normal
1780595593.3635843,1.5855228000000352,1745,0.029053,-0.010986,1.04541,0.244275,4.061068,-1.29771,1.045872,4.270363,181,296,115,181,0,100.0,0,normal
1780595593.3945339,1.6164724999980535,1775,0.048584,-0.044189,1.062256,2.351145,2.816794,-0.748092,1.064284,3.744576,183,301,118,183,1,100.0,14,normal
1780595593.42591,1.6478486999985762,1806,0.032715,-0.026123,1.052246,2.022901,2.89313,-0.335878,1.053078,3.546145,187,306,119,187,0,100.0,5,normal
1780595593.4556637,1.677602299998398,1837,0.05542,0.003662,1.062012,0.832061,3.21374,-1.007634,1.063463,3.469262,191,312,121,191,0,100.0,0,normal
1780595593.487656,1.7095947000052547,1868,0.037109,-0.054932,1.054688,2.633588,2.557252,-0.343511,1.056769,3.686912,193,317,124,193,1,103.943,14,normal
1780595593.517685,1.7396235000051092,1899,0.0354,0.001709,1.050537,1.282443,2.358779,-0.496183,1.051135,2.730328,197,322,125,197,0,103.943,1,normal
1780595593.5495112,1.7714498999994248,1930,0.031494,-0.036865,1.050293,0.541985,2.877863,-1.053435,1.051412,3.112164,199,326,127,199,0,103.943,0,normal
1780595593.5799983,1.801936799995019,1961,0.047119,-0.026367,1.056152,3.129771,3.290076,-0.419847,1.057532,4.5603,202,331,129,202,1,103.943,14,normal
1780595593.6103106,1.832249099999899,1992,0.046631,-0.006836,1.041748,0.816794,2.59542,-0.755725,1.042814,2.823912,207,338,131,207,0,103.943,0,normal
1780595593.6417654,1.8637040000030538,2022,0.033936,-0.063965,1.051025,1.045802,2.564885,-1.183206,1.053517,3.012028,209,342,133,209,0,103.943,1,normal
1780595593.67248,1.8944187000015518,2053,0.044678,-0.02124,1.057861,3.282443,3.244275,-0.114504,1.059017,4.616586,213,348,135,213,0,103.943,6,normal
1780595593.7030373,1.924975899994024,2085,0.04834,-0.013184,1.059814,0.427481,3.51145,-1.396947,1.060998,3.80322,217,354,137,217,0,103.943,1,normal
1780595593.735648,1.9575865999941016,2116,0.058594,-0.039307,1.047363,2.175573,2.496183,-0.557252,1.049737,3.357764,219,359,140,219,1,103.943,14,normal
1780595593.7669945,1.9889331000013044,2148,0.025391,0.002686,1.053955,1.343511,2.885496,-0.29771,1.054264,3.196833,224,366,142,224,0,110.714,0,normal
1780595593.7989693,2.0209079000051133,2179,0.044434,-0.032715,1.06665,0.656489,2.633588,-1.076336,1.068077,2.919805,226,370,144,226,0,110.714,0,normal
1780595593.8298101,2.0517487000033725,2210,0.045898,-0.018066,1.043945,3.015267,3.564885,-0.129771,1.04511,4.670876,229,375,146,229,1,110.714,14,normal
1780595593.8594465,2.081385199999204,2241,0.064697,0.007568,1.057617,0.89313,2.648855,-1.129771,1.059621,3.015045,232,380,148,232,0,110.714,0,normal
1780595593.8911312,2.113069800005178,2272,0.031006,-0.036133,1.062744,1.427481,3.015267,-1.0,1.06381,3.482748,234,384,150,234,0,110.714,0,normal
1780595593.9211454,2.1430839999957243,2303,0.035645,-0.022949,1.048828,3.038168,4.0,-0.51145,1.049684,5.048965,238,390,152,238,0,110.714,5,normal
1780595593.9520268,2.1739653999975417,2334,0.03833,-0.00293,1.046875,0.21374,3.076336,-1.122137,1.04758,3.281573,242,396,154,242,0,110.714,0,normal
1780595593.984442,2.206380600007833,2365,0.030762,-0.04248,1.052978,2.083969,2.717557,-0.458015,1.054284,3.455116,244,400,156,244,1,110.714,0,normal
1780595594.0149357,2.236874299996998,2396,0.037842,-0.026367,1.044678,2.175573,2.694656,-0.641221,1.045695,3.522138,249,406,157,249,0,110.714,6,normal
1780595594.0457716,2.267710200001602,2427,0.036133,-0.006592,1.056152,0.778626,3.572519,-1.068702,1.056791,3.809367,253,412,159,253,0,103.943,0,normal
1780595594.0776627,2.2996013999945717,2458,0.013428,-0.049561,1.047852,2.274809,2.755725,-0.641221,1.049109,3.630419,254,415,161,254,1,103.943,18,normal
1780595594.1082282,2.3301667000050656,2489,0.054199,-0.016846,1.056885,1.473282,2.648855,-1.007634,1.058408,3.194107,260,422,162,260,0,103.943,1,normal
1780595594.147022,2.3689606999978423,2521,0.045166,-0.055908,1.064209,0.89313,2.19084,-0.923664,1.066633,2.539806,262,426,164,262,0,103.943,0,normal
1780595594.1711214,2.39305990000139,2552,0.04834,-0.02002,1.052246,3.305344,3.725191,-0.251908,1.053546,4.986562,266,432,166,266,0,103.943,6,normal
1780595594.2030585,2.4249971999961417,2583,0.04541,-0.013672,1.047607,0.473282,2.740458,-1.21374,1.04868,3.034349,270,438,168,270,0,103.943,0,normal
1780595594.2334073,2.455345900001703,2614,0.04126,-0.043701,1.065918,1.816794,2.908397,-0.641221,1.067611,3.48865,272,442,170,272,0,103.943,1,normal
1780595594.26358,2.4855187000066508,2645,0.039307,-0.023926,1.058594,2.70229,2.984733,-0.633588,1.059593,4.075836,277,448,171,277,0,103.943,6,normal
1780595594.2958317,2.5177703000081237,2676,0.045898,0.014648,1.05249,0.519084,3.580153,-0.740458,1.053592,3.69259,281,454,173,281,0,103.943,1,normal
1780595594.3267117,2.5486501999985194,2707,0.039551,-0.054688,1.049316,2.290076,2.305344,-0.259542,1.051485,3.259819,283,459,176,283,1,107.143,14,normal
1780595594.358173,2.5801114000059897,2739,0.029053,0.01001,1.053711,1.526718,2.381679,-0.465649,1.054159,2.86707,288,466,178,288,0,107.143,1,normal
1780595594.3895338,2.6114724000071874,2770,0.055908,-0.047607,1.056396,0.778626,2.80916,-1.007634,1.058946,3.08431,290,470,180,290,0,107.143,0,normal
1780595594.4216785,2.6436170999950264,2802,0.040771,-0.013672,1.049316,2.916031,3.480916,-0.48855,1.050197,4.567132,294,476,182,294,0,107.143,5,normal
1780595594.4532912,2.6752299000072526,2834,0.042725,-0.01123,1.05127,0.427481,3.480916,-0.885496,1.052197,3.617129,298,482,184,298,0,107.143,0,normal
1780595594.4840665,2.706005100000766,2865,0.054199,-0.053711,1.056396,2.427481,2.641221,-1.007634,1.059149,3.726129,300,487,187,300,1,107.143,14,normal
1780595594.5157242,2.737662800005637,2896,0.029785,-0.020264,1.05835,2.229008,1.992366,-0.648855,1.058962,3.05925,305,494,189,305,0,107.143,1,normal
1780595594.5476685,2.7696069999947213,2928,0.045166,-0.037109,1.049561,0.618321,2.954198,-0.992366,1.051187,3.177168,307,498,191,307,0,107.143,0,normal
1780595594.579103,2.8010415000026114,2959,0.071289,-0.049072,1.060303,3.061069,2.938931,-0.351145,1.063829,4.258023,310,503,193,310,1,107.143,14,normal
1780595594.610063,2.832001799994032,2991,0.040527,-0.007568,1.044678,0.755725,3.122137,-1.053435,1.045491,3.380619,315,510,195,315,0,107.143,0,normal
1780595594.6414528,2.8633913999947254,3022,0.046631,-0.033203,1.05835,1.89313,3.137405,-0.938931,1.059897,3.782703,317,514,197,317,0,107.143,0,normal
1780595594.6716285,2.893567200007965,3053,0.044922,-0.03125,1.061523,2.458015,3.343511,-0.519084,1.062933,4.182147,321,520,199,321,0,107.143,5,normal
1780595594.7022994,2.9242380000068806,3084,0.057617,0.001465,1.063477,0.48855,3.572519,-1.091603,1.065037,3.767382,323,524,201,323,0,107.143,0,normal
1780595594.73402,2.9559584999951767,3115,0.03833,-0.046631,1.051514,2.320611,2.480916,-0.656489,1.053245,3.459936,325,529,204,325,1,107.143,14,normal
1780595594.765334,2.9872724000015296,3146,0.048096,-0.010254,1.054443,1.870229,2.259542,-0.572519,1.055589,2.988489,331,536,205,331,0,107.143,1,normal
1780595594.7969942,3.018932799997856,3178,0.042725,-0.038818,1.059326,0.580153,2.572519,-0.839695,1.060898,2.767583,333,540,207,333,0,107.143,0,normal
1780595594.8278718,3.0498102999990806,3209,0.061279,-0.039307,1.055664,3.29771,3.007634,0.061069,1.058171,4.463684,336,545,209,336,1,104.0,14,normal
1780595594.8580296,3.079968200006988,3240,0.033936,0.000244,1.045166,0.732824,2.755725,-1.08397,1.045717,3.05058,341,552,211,341,0,104.0,0,normal
1780595594.8896446,3.1115833000076236,3270,0.041748,-0.046387,1.056641,0.969466,2.916031,-0.78626,1.058482,3.171956,343,556,213,343,0,104.0,1,normal
1780595594.9201193,3.142057899996871,3301,0.053467,-0.021729,1.053223,3.221374,3.641221,-0.396947,1.054803,4.877838,347,562,215,347,0,104.0,6,normal
1780595594.949968,3.1719067999947583,3332,0.054199,-0.013672,1.047119,0.480916,2.801527,-1.19084,1.04861,3.081872,351,568,217,351,0,104.0,0,normal
1780595594.981655,3.2035936000029324,3362,0.062012,-0.027588,1.061523,1.549618,2.709924,-0.977099,1.063691,3.271044,353,572,219,353,0,104.0,1,normal
1780595595.012693,3.234631500003161,3393,0.062256,-0.039551,1.067627,2.656489,3.519084,-0.366412,1.070172,4.42438,357,578,221,357,0,104.0,5,normal
1780595595.0430775,3.265016100005596,3424,0.062744,-0.000732,1.062744,0.641221,3.603053,-1.587786,1.064595,3.989264,359,582,223,359,0,104.0,1,normal
1780595595.0743086,3.2962473000079626,3455,0.048096,-0.052979,1.051025,2.320611,2.366412,-0.580153,1.053458,3.364776,361,587,226,361,1,104.0,14,normal
1780595595.1060057,3.327944300006493,3487,0.019775,0.002441,1.050293,1.496183,2.366412,-0.709924,1.050482,2.888332,366,594,228,366,0,107.914,0,normal
1780595595.1368628,3.3588012999971397,3518,0.017334,-0.042725,1.045898,0.824427,2.633588,-1.19084,1.046914,3.005589,368,598,230,368,0,107.914,0,normal
1780595595.1682158,3.390154299995629,3549,0.047119,-0.046875,1.045898,2.969466,3.694656,-0.29771,1.048008,4.749404,371,603,232,371,1,107.914,14,normal
1780595595.1995356,3.4214743000047747,3581,0.037842,-0.006104,1.045898,0.526718,2.770992,-1.480916,1.046601,3.18574,376,610,234,376,0,107.914,0,normal
1780595595.2311904,3.453129000001354,3612,0.04834,-0.051758,1.059326,1.450382,2.633588,-1.343511,1.061691,3.293086,378,614,236,378,0,107.914,0,normal
1780595595.262439,3.4843776000052458,3643,0.053223,-0.037354,1.063477,2.839695,2.977099,-0.427481,1.065462,4.13639,382,620,238,382,0,107.914,5,normal
1780595595.2937362,3.5156749000016134,3675,0.053467,-0.003906,1.057129,0.885496,3.618321,-0.908397,1.058487,3.834258,386,626,240,386,0,107.914,0,normal
1780595595.3257785,3.5477170999947703,3706,0.020508,-0.049805,1.044189,2.145038,2.320611,-0.671756,1.045578,3.23074,388,631,243,388,1,107.914,14,normal
1780595595.355775,3.5777136999968207,3738,0.03125,-0.007324,1.053467,1.862595,2.641221,-0.687023,1.053956,3.304136,392,636,244,392,0,103.586,6,normal
1780595595.3875666,3.609505200001877,3768,0.037598,-0.042969,1.050049,0.641221,2.740458,-0.816794,1.0516,2.930602,394,640,246,394,0,103.586,0,normal
1780595595.4194403,3.641378900007112,3799,0.044678,-0.023438,1.041992,2.954198,3.022901,-0.687023,1.043213,4.282198,397,645,248,397,1,103.586,13,normal
1780595595.4475236,3.6694622000068193,3830,0.034912,0.009033,1.049561,0.572519,2.70229,-0.900763,1.05018,2.90543,402,652,250,402,0,103.586,0,normal
1780595595.4789915,3.700930100007099,3859,0.048828,-0.055664,1.060059,0.687023,2.725191,-0.816794,1.062642,2.926742,404,656,252,404,0,103.586,1,normal
1780595595.5117273,3.7336660000000848,3891,0.033691,-0.017334,1.053223,3.0,3.793893,-0.236641,1.053904,4.842481,408,662,254,408,0,103.586,6,normal
1780595595.5404408,3.7623793999955524,3922,0.030029,0.000244,1.049316,0.480916,2.412214,-1.458015,1.049746,2.859347,412,668,256,412,0,103.586,1,normal
1780595595.573063,3.795001599995885,3953,0.05835,-0.048828,1.058594,2.145038,3.290076,-0.473282,1.061324,3.955981,414,672,258,414,1,103.586,0,normal
1780595595.6050851,3.8270236999960616,3985,0.043701,-0.010742,1.064453,2.045802,2.259542,-0.396947,1.065404,3.073825,420,680,260,420,0,103.586,0,normal
1780595595.6366298,3.8585684999998193,4017,0.011963,-0.033936,1.044922,0.389313,2.961832,-0.839695,1.045541,3.103079,422,684,262,422,0,107.527,0,normal
1780595595.6671042,3.8890428000013344,4048,0.055908,-0.050293,1.052734,3.0,3.381679,-0.267176,1.055417,4.52848,424,689,265,424,1,107.527,14,normal
1780595595.6972914,3.9192299999995157,4079,0.044922,0.006348,1.044434,0.687023,2.816794,-0.78626,1.045418,3.004086,428,694,266,428,0,107.527,5,normal
1780595595.729201,3.951139600001625,4109,0.039307,-0.044678,1.062012,0.694656,2.526718,-0.877863,1.063678,2.763601,430,698,268,430,0,107.527,0,normal
1780595595.7604003,3.9823388999939198,4140,0.038574,-0.023682,1.04541,3.068702,3.198473,-0.267176,1.04639,4.440557,433,703,270,433,1,107.527,14,normal
1780595595.7899883,4.011926799998037,4171,0.048828,-0.010498,1.044189,0.412214,2.885496,-1.206107,1.045383,3.154473,438,710,272,438,0,107.527,0,normal
1780595595.8219342,4.043872800000827,4202,0.040039,-0.033691,1.065918,1.801527,2.78626,-0.648855,1.067202,3.380792,440,714,274,440,0,107.527,0,normal
1780595595.8524637,4.074402300000656,4233,0.031494,-0.030273,1.05249,2.442748,3.114504,-0.603053,1.053396,4.003852,444,720,276,444,0,107.527,6,normal
1780595595.8838468,4.105785399995511,4265,0.051514,-0.007324,1.062744,0.717557,3.122137,-1.358779,1.064017,3.479786,448,726,278,448,0,107.527,0,normal
1780595595.9159954,4.137933999998495,4296,0.029053,-0.055176,1.041016,2.290076,2.847328,-0.183206,1.042882,3.658592,450,731,281,450,1,100.358,13,normal
1780595595.9445598,4.1664983999944525,4327,0.037598,0.006348,1.047607,1.427481,2.40458,-0.610687,1.048301,2.86228,456,738,282,456,0,100.358,0,normal
1780595595.9764695,4.198408099997323,4357,0.027588,-0.043457,1.040039,0.129771,2.755725,-0.923664,1.041312,2.909298,458,742,284,458,0,100.358,1,normal
1780595596.0189328,4.240871500005596,4388,0.04541,-0.046631,1.049072,3.022901,3.022901,-0.557252,1.051089,4.311194,460,747,287,460,1,100.358,14,normal
1780595596.039417,4.261355700000422,4420,0.060303,-0.015137,1.050537,0.732824,2.687023,-0.961832,1.052375,2.946565,464,752,288,464,0,100.358,5,normal
1780595596.0708654,4.2928038999962155,4451,0.04126,-0.050293,1.068115,1.717557,3.053435,-1.40458,1.070094,3.774429,466,756,290,466,0,100.358,0,normal
1780595596.1020777,4.32401640000171,4483,0.035156,-0.009766,1.053467,2.274809,2.961832,-0.557252,1.054098,3.775942,469,762,293,469,0,100.358,5,normal
1780595596.1331084,4.355046900003799,4514,0.043457,-0.003906,1.059326,0.358779,3.969466,-0.870229,1.060224,4.079544,473,768,295,473,0,100.358,0,normal
1780595596.1644368,4.386375400004908,4545,0.029785,-0.044922,1.044678,2.396947,2.885496,-0.206107,1.046067,3.75685,475,773,298,475,1,100.358,14,normal
1780595596.194705,4.416643699994893,4576,0.028564,-0.006836,1.05249,1.847328,2.496183,-0.251908,1.0529,3.115607,480,780,300,480,0,107.143,1,normal
1780595596.2266886,4.44862720000674,4607,0.036133,-0.016602,1.060059,0.656489,2.358779,-1.099237,1.060804,2.683866,482,784,302,482,0,107.143,0,normal
1780595596.2570777,4.479016199999023,4638,0.057617,-0.024414,1.061768,2.931298,3.587786,-0.328244,1.06361,4.644616,485,789,304,485,1,107.143,14,normal
1780595596.2879877,4.509926400001859,4668,0.032959,0.004639,1.045654,1.450382,2.709924,-1.061069,1.046184,3.25164,488,794,306,488,0,107.143,0,normal
1780595596.3185952,4.540533799998229,4699,0.04834,-0.050781,1.055176,0.717557,2.366412,-0.854962,1.057502,2.616439,490,798,308,490,0,107.143,0,normal
1780595596.3500896,4.572028199996566,4730,0.037598,-0.018066,1.051758,3.160305,3.633588,-0.748092,1.052585,4.87341,494,804,310,494,0,107.143,5,normal
1780595596.380814,4.602752699996927,4762,0.054932,-0.001953,1.053955,0.427481,3.175573,-0.862595,1.055387,3.318294,498,810,312,498,0,107.143,0,normal
1780595596.4135377,4.635476399998879,4793,0.062012,-0.046875,1.053711,2.343511,3.312977,-0.366412,1.056574,4.07457,500,815,315,500,1,107.143,14,normal
1780595596.4448767,4.666815200005658,4825,0.021973,-0.012939,1.055908,2.091603,2.51145,-0.664122,1.056216,3.335153,506,822,316,506,0,107.143,0,normal
1780595596.4757354,4.69767409999622,4856,0.027344,-0.035889,1.042725,0.51145,3.343511,-1.145038,1.0437,3.570961,508,826,318,508,0,100.0,1,normal
1780595596.50691,4.728848600003403,4887,0.054199,-0.049316,1.053223,2.946565,3.091603,-0.503817,1.055769,4.300475,510,831,321,510,1,100.0,14,normal
1780595596.5372775,4.759216000005836,4918,0.028809,0.003418,1.044922,0.763359,3.091603,-0.564886,1.045325,3.234165,515,838,323,515,0,100.0,1,normal
1780595596.5681314,4.790070000002743,4949,0.035645,-0.044189,1.053467,1.267176,2.664122,-0.992366,1.054995,3.112567,517,842,325,517,0,100.0,1,normal
1780595596.5996037,4.821542200006661,4980,0.04541,-0.026855,1.046875,3.045802,3.610687,0.022901,1.048204,4.723822,521,848,327,521,0,100.0,6,normal
1780595596.6299014,4.851840000002994,5011,0.03125,-0.000732,1.056152,0.007634,3.366412,-1.122137,1.056615,3.548518,523,852,329,523,0,100.0,1,normal
1780595596.6599905,4.881929099996341,5040,0.051514,-0.053955,1.050049,1.061069,2.89313,-0.992366,1.052695,3.237415,525,856,331,525,0,100.0,0,normal
1780595596.6916463,4.913585000002058,5071,0.063232,-0.02417,1.06543,3.015267,3.839695,-0.59542,1.067578,4.918294,529,862,333,529,0,100.0,5,normal
1780595596.7211452,4.94308369999635,5102,0.05835,-0.015137,1.049805,0.541985,3.450382,-1.015267,1.051534,3.637258,533,868,335,533,0,100.0,0,normal
1780595596.7536013,4.975539999999455,5133,0.067139,-0.047363,1.05127,2.083969,3.145038,-0.603053,1.054475,3.820716,535,873,338,535,1,97.473,14,normal
1780595596.785102,5.007040500000585,5165,0.019287,-0.020996,1.048828,2.358779,2.870229,-0.419847,1.049216,3.73876,540,880,340,540,0,97.473,0,normal
1780595596.81618,5.038118600001326,5197,0.041016,-0.031738,1.055908,0.587786,2.557252,-0.78626,1.057181,2.739203,542,884,342,542,0,97.473,0,normal
1780595596.847428,5.06936670000141,5228,0.061279,-0.012695,1.059814,3.083969,3.427481,-0.519084,1.06166,4.639821,545,889,344,545,1,97.473,14,normal
1780595596.8784115,5.1003500999941025,5259,0.057129,-0.010742,1.047363,0.580153,2.687023,-0.885496,1.048975,2.88804,550,896,346,550,0,97.473,0,normal
1780595596.9095132,5.1314517999999225,5290,0.047119,-0.044678,1.061279,1.496183,2.59542,-1.137405,1.063264,3.204443,552,900,348,552,0,97.473,0,normal
1780595596.9400592,5.161997799994424,5320,0.038086,-0.028076,1.050537,3.381679,3.908397,-0.396947,1.051602,5.183521,556,906,350,556,0,97.473,6,normal
1780595596.970318,5.192256700000144,5351,0.045654,-0.005371,1.049316,0.580153,2.80916,-1.282443,1.050323,3.142072,560,912,352,560,0,97.473,0,normal
1780595597.0022,5.224138599995058,5382,0.035645,-0.051514,1.056641,1.78626,3.10687,-0.572519,1.058496,3.629207,562,916,354,562,0,97.473,1,normal
1780595597.032513,5.254451500004507,5413,0.049561,-0.03125,1.050537,2.557252,3.091603,-0.687023,1.05217,4.07057,567,922,355,567,0,114.286,6,normal
1780595597.0705216,5.292460199998459,5444,0.054932,-0.006592,1.054688,0.435114,3.51145,-1.076336,1.056138,3.698392,571,928,357,571,0,114.286,1,normal
1780595597.0943906,5.31632919999538,5475,0.036133,-0.046387,1.044434,2.442748,2.305344,-0.587786,1.046087,3.409856,573,933,360,573,1,114.286,14,normal
1780595597.1262164,5.34815510000044,5506,0.037354,-0.008301,1.048828,1.549618,2.343511,-0.862595,1.049526,2.938951,578,940,362,578,0,114.286,0,normal
1780595597.1642091,5.386147800003528,5538,0.035156,-0.040771,1.052978,0.732824,2.656489,-0.992366,1.054354,2.928951,580,944,364,580,0,114.286,1,normal
1780595597.194785,5.416723700007424,5575,0.061768,-0.005615,1.053467,1.442748,2.732824,-0.274809,1.055291,3.102478,586,952,366,586,0,114.286,0,normal
1780595597.2268085,5.448747200003709,5606,0.039307,-0.044678,1.053955,0.931298,2.832061,-1.198473,1.055634,3.213133,587,954,367,587,0,114.286,5,normal
1780595597.2590604,5.480998900005943,5638,0.05127,-0.019775,1.048096,3.114504,3.427481,-0.129771,1.049535,4.63299,591,960,369,591,0,114.286,6,normal
1780595597.289568,5.511506599999848,5670,0.036621,-0.016846,1.045654,0.557252,3.70229,-1.053435,1.046431,3.889371,595,966,371,595,0,108.949,1,normal
1780595597.3211055,5.543044000005466,5701,0.04834,-0.039551,1.050781,2.198473,2.862595,-0.389313,1.052636,3.630331,597,971,374,597,1,108.949,14,normal
1780595597.352922,5.574860599997919,5733,0.039795,-0.003906,1.052002,1.519084,2.206107,-0.412214,1.052762,2.710064,603,978,375,603,0,108.949,0,normal
1780595597.384127,5.606065600004513,5764,0.051758,-0.032959,1.047363,0.442748,2.129771,-0.908397,1.049159,2.357358,605,982,377,605,0,108.949,1,normal
1780595597.4149582,5.636896900003194,5795,0.035156,-0.018799,1.053467,2.89313,2.954198,-0.664122,1.054221,4.187905,607,987,380,607,1,108.949,14,normal
1780595597.446546,5.668484800000442,5827,0.046143,-0.009521,1.048096,0.59542,3.061069,-0.78626,1.049154,3.216034,612,994,382,612,0,108.949,1,normal
1780595597.4777944,5.699732900000527,5858,0.02832,-0.023682,1.069092,1.580153,3.145038,-0.931298,1.069729,3.640805,614,998,384,614,0,108.949,0,normal
1780595597.508853,5.730791499998304,5889,0.041504,-0.03833,1.064209,2.534351,3.29771,-0.358779,1.065707,4.174512,619,1004,385,619,0,108.949,6,normal
1780595597.538699,5.7606376000039745,5920,0.034424,-0.005859,1.045166,0.648855,3.633588,-0.977099,1.045749,3.818206,623,1010,387,623,0,112.0,0,normal
1780595597.5701783,5.792116900003748,5950,0.049561,-0.045654,1.051514,2.358779,3.21374,-0.549618,1.05367,4.024182,624,1012,388,624,1,112.0,5,normal
1780595597.6013782,5.823316800000612,5981,0.034912,-0.016602,1.051758,2.175573,2.671756,-0.137405,1.052468,3.448228,629,1018,389,629,0,112.0,5,normal
1780595597.632099,5.854037600001902,6012,0.045166,-0.01123,1.059326,0.549618,3.442748,-0.931298,1.060348,3.608588,633,1024,391,633,0,112.0,0,normal
1780595597.6636312,5.885569799997029,6043,0.033447,-0.049561,1.057129,2.229008,2.679389,-0.534351,1.058818,3.526065,635,1029,394,635,1,112.0,14,normal
1780595597.6941795,5.916118099994492,6074,0.037842,-0.018066,1.055176,1.763359,2.709924,-0.29771,1.056009,3.246807,641,1036,395,641,0,112.0,0,normal
1780595597.7261295,5.948068199999398,6106,0.049561,-0.044678,1.054932,0.961832,2.503817,-1.122137,1.05704,2.907475,643,1040,397,643,0,112.0,0,normal
1780595597.7572315,5.979170000005979,6137,0.052734,-0.025146,1.049805,3.152672,3.51145,-0.061069,1.051429,4.719465,647,1046,399,647,0,112.0,5,normal
1780595597.787088,6.00902660000429,6168,0.04541,-0.005127,1.045898,0.473282,2.832061,-1.091603,1.046896,3.071834,650,1050,400,650,0,112.0,6,normal
1780595597.81876,6.040698500000872,6199,0.050781,-0.052246,1.064453,1.656489,3.022901,-0.587786,1.066944,3.496766,652,1054,402,652,0,103.943,1,normal
1780595597.8512557,6.073194299999159,6231,0.034912,-0.029785,1.043701,2.030534,2.778626,-0.564886,1.04471,3.487539,657,1061,404,657,0,103.943,3,normal
1780595597.8810563,6.102994800006854,6262,0.031738,-0.008301,1.065186,0.778626,3.366412,-1.450382,1.065691,3.747345,660,1066,406,660,0,103.943,0,normal
1780595597.9133832,6.135321900001145,6293,0.028809,-0.048096,1.039062,2.29771,2.648855,-0.343511,1.040574,3.523337,662,1071,409,662,1,103.943,13,normal
1780595597.9432662,6.1652047999959905,6324,0.023926,0.003662,1.048828,1.618321,2.442748,-0.603053,1.049107,2.991597,668,1078,410,668,0,103.943,0,normal
1780595597.9742575,6.19619600000442,6355,0.027832,-0.052246,1.051025,0.648855,2.961832,-0.984733,1.052691,3.187971,670,1082,412,670,0,103.943,1,normal
1780595598.005942,6.227880699996604,6386,0.044678,-0.013672,1.049561,3.198473,3.274809,-0.480916,1.0506,4.602813,673,1087,414,673,1,103.943,14,normal
1780595598.0391536,6.261092300002929,6418,0.042725,-0.012695,1.041992,0.167939,2.679389,-1.030534,1.042945,2.875644,678,1094,416,678,0,103.943,0,normal
1780595598.0689602,6.290898799998104,6449,0.048096,-0.054443,1.056641,1.664122,2.908397,-0.862595,1.059135,3.460079,680,1098,418,680,0,112.0,0,normal
1780595598.0993967,6.321335200002068,6480,0.040039,-0.033936,1.056152,2.305344,2.732824,-0.480916,1.057456,3.607522,685,1104,419,685,0,112.0,5,normal
1780595598.1301746,6.35211320000235,6511,0.061523,0.006104,1.060303,0.755725,3.160305,-1.221374,1.062104,3.471369,689,1110,421,689,0,112.0,1,normal
1780595598.1610649,6.383003399998415,6541,0.051025,-0.059326,1.051758,2.152672,2.175573,-0.29771,1.054665,3.075019,691,1115,424,691,1,112.0,14,normal
1780595598.1928806,6.41481930000009,6573,0.029053,-0.00415,1.048828,1.335878,2.763359,-0.282443,1.049239,3.082288,696,1122,426,696,0,112.0,1,normal
1780595598.2238567,6.445795299994643,6604,0.041504,-0.043213,1.055664,0.725191,2.679389,-0.80916,1.057363,2.891326,698,1126,428,698,0,112.0,0,normal
1780595598.255357,6.477295699995011,6635,0.053955,-0.041748,1.052978,2.839695,3.030534,-0.534351,1.055186,4.187306,701,1131,430,701,1,112.0,14,normal
1780595598.2854073,6.507345999998506,6666,0.049561,0.008057,1.050049,0.854962,2.267176,-0.847328,1.051249,2.566907,706,1138,432,706,0,112.0,0,normal
1780595598.3166118,6.538550400000531,6697,0.026367,-0.038818,1.060059,1.08397,2.862595,-0.717557,1.061097,3.143936,708,1142,434,708,0,112.0,0,normal
1780595598.347837,6.569775700001628,6728,0.037842,-0.014648,1.060547,2.923664,3.916031,-0.206107,1.061323,4.891379,712,1148,436,712,0,114.695,5,normal
1780595598.3789704,6.600908899999922,6759,0.028564,-0.006836,1.049072,0.648855,3.305344,-1.198473,1.049483,3.575283,716,1154,438,716,0,114.695,0,normal
1780595598.4096327,6.631571300007636,6790,0.041016,-0.054932,1.050049,2.114504,2.89313,-0.221374,1.052284,3.590311,717,1156,439,717,1,114.695,4,normal
1780595598.4417639,6.6637024999945424,6821,0.031006,-0.020996,1.058838,1.961832,2.984733,-0.633588,1.0595,3.627513,722,1162,440,722,0,114.695,5,normal
1780595598.4714155,6.693354200004251,6852,0.036133,-0.008545,1.064453,0.847328,3.725191,-1.122137,1.0651,3.981734,726,1168,442,726,0,114.695,0,normal
1780595598.5035875,6.725526199996239,6883,0.016846,-0.049561,1.048096,2.427481,2.839695,-0.625954,1.049402,3.787922,728,1173,445,728,1,114.695,14,normal
1780595598.5339317,6.755870299995877,6914,0.050781,-0.012451,1.058106,1.305344,2.450382,-0.48855,1.059396,2.819038,734,1180,446,734,0,114.695,1,normal
1780595598.5664413,6.788379899997381,6946,0.060059,-0.056396,1.052002,0.984733,2.572519,-0.847328,1.055223,2.88193,736,1184,448,736,0,114.695,0,normal
1780595598.5966218,6.818560300001991,6977,0.058838,-0.02124,1.056641,3.10687,3.534351,-0.206107,1.058491,4.710282,739,1189,450,739,1,114.695,13,normal
1780595598.627636,6.849574499996379,7008,0.05542,-0.003174,1.059326,0.70229,2.854962,-1.40458,1.06078,3.258353,744,1196,452,744,0,114.286,0,normal
1780595598.658858,6.880796600002213,7039,0.05542,-0.030273,1.063232,1.580153,2.992366,-0.885496,1.065106,3.497891,746,1200,454,746,0,114.286,1,normal
1780595598.6903057,6.9122442999941995,7070,0.041992,-0.030273,1.054199,2.320611,3.442748,-0.435114,1.05547,4.174575,751,1206,455,751,0,114.286,6,normal
1780595598.7208023,6.942740900005447,7101,0.05835,0.014404,1.0625,0.29771,3.450382,-0.885496,1.064198,3.574614,755,1212,457,755,0,114.286,1,normal
1780595598.7521372,6.9740758999978425,7132,0.016113,-0.057373,1.040772,2.519084,2.816794,-0.145038,1.042476,3.781686,756,1215,459,756,1,114.286,18,normal
1780595598.7829416,7.0048802999954205,7163,0.037598,-0.019043,1.05835,1.847328,2.534351,-0.328244,1.059188,3.1533,762,1222,460,762,0,114.286,0,normal
1780595598.8136907,7.035629300007713,7194,0.031738,-0.04248,1.042969,0.40458,3.129771,-1.061069,1.044316,3.329417,764,1226,462,764,0,114.286,1,normal
1780595598.8457701,7.067708700007643,7225,0.054688,-0.044434,1.05835,2.564885,3.137405,-0.160305,1.060693,4.05557,766,1231,465,766,1,114.286,14,normal
1780595598.8767462,7.098684700002195,7257,0.05249,-0.008057,1.039062,0.625954,2.748092,-1.061069,1.040419,3.011593,771,1238,467,771,0,114.286,1,normal
1780595598.9086392,7.130577899995842,7288,0.026855,-0.03833,1.056396,1.832061,3.030534,-1.114504,1.057433,3.712506,773,1242,469,773,0,103.571,0,normal
1780595598.9404657,7.162404400005471,7319,0.053223,-0.041504,1.060303,2.625954,3.053435,0.061069,1.062449,4.027758,777,1248,471,777,0,103.571,6,normal
1780595598.9705875,7.192526099999668,7351,0.051025,0.0,1.063965,0.351145,3.480916,-1.076336,1.065188,3.660407,780,1252,472,780,0,103.571,5,normal
1780595599.0013978,7.223336499999277,7381,0.052734,-0.044189,1.066894,2.045802,2.480916,-0.656489,1.069111,3.281954,782,1257,475,782,1,103.571,14,normal
1780595599.0327582,7.254696899995906,7413,0.024414,0.000488,1.0625,1.389313,2.519084,-0.496183,1.062781,2.919276,787,1264,477,787,0,103.571,0,normal
1780595599.062874,7.2848127000033855,7443,0.048584,-0.014648,1.062988,0.580153,2.969466,-1.282443,1.064199,3.286178,789,1268,479,789,0,103.571,0,normal
1780595599.0939696,7.31590810000489,7474,0.041504,-0.060059,1.053223,2.412214,2.51145,-0.557252,1.05575,3.526569,791,1273,482,791,1,103.571,14,normal
1780595599.1248715,7.346810200004256,7505,0.046143,-0.014648,1.047119,1.442748,2.366412,-0.679389,1.048238,2.853594,796,1280,484,796,0,103.571,0,normal
1780595599.156216,7.378154399993946,7536,0.040039,-0.046875,1.052002,0.885496,2.351145,-1.114504,1.053807,2.748473,798,1284,486,798,0,103.571,0,normal
1780595599.1865957,7.4085343000042485,7567,0.048828,-0.021973,1.053223,3.206107,3.19084,-0.641221,1.054583,4.56856,801,1289,488,801,1,100.358,14,normal
1780595599.2191763,7.44111490000796,7599,0.03418,-0.015869,1.047852,0.480916,3.381679,-1.175572,1.048529,3.612341,806,1296,490,806,0,100.358,0,normal
1780595599.2496433,7.471581899997545,7630,0.040771,-0.052002,1.063477,2.206107,3.236641,-0.847328,1.065528,4.007582,807,1299,492,807,1,100.358,17,normal
1780595599.2823863,7.504324900000938,7662,0.029785,-0.008789,1.050781,2.007634,2.473282,-0.175573,1.05124,3.190383,812,1306,494,812,0,100.358,0,normal
1780595599.3143082,7.536246699994081,7693,0.046631,-0.009766,1.062012,0.671756,3.381679,-1.557252,1.06308,3.783126,814,1310,496,814,0,100.358,0,normal
1780595599.344388,7.566326500003925,7724,0.049805,-0.062988,1.052002,2.358779,2.679389,-0.435114,1.055062,3.596149,816,1315,499,816,1,100.358,14,normal
1780595599.374692,7.596630500003812,7755,0.051514,-0.006104,1.060059,1.51145,2.496183,-0.419847,1.061327,2.948166,821,1322,501,821,0,100.358,0,normal
1780595599.4075732,7.629511799997999,7786,0.041748,-0.049805,1.061035,1.076336,2.175573,-1.198473,1.063023,2.707019,823,1326,503,823,0,100.358,0,normal
1780595599.437172,7.659110599997803,7817,0.050781,-0.015625,1.049316,3.114504,3.740458,-0.557252,1.050661,4.899152,826,1331,505,826,1,100.0,14,normal
1780595599.4674263,7.689364999998361,7848,0.037842,-0.005127,1.050781,0.709924,3.099237,-1.389313,1.051475,3.469791,831,1338,507,831,0,100.0,0,normal
1780595599.4995368,7.721475400001509,7879,0.047607,-0.031982,1.067139,1.89313,3.083969,-0.954198,1.068679,3.742366,833,1342,509,833,0,100.0,0,normal
1780595599.530803,7.752741599993897,7910,0.038574,-0.02832,1.050293,2.526718,3.656489,-0.572519,1.051383,4.481293,838,1348,510,838,0,100.0,6,normal
1780595599.5609424,7.7828811000072164,7941,0.051025,0.014893,1.057129,0.59542,3.580153,-1.206107,1.058464,3.824488,842,1354,512,842,0,100.0,0,normal
1780595599.5923295,7.814268000001903,7972,0.045654,-0.050781,1.049072,2.458015,2.755725,-0.419847,1.051292,3.716468,843,1357,514,843,1,100.0,18,normal
1780595599.6223674,7.844306099999812,8003,0.023682,-0.012695,1.042725,2.068702,2.259542,-0.671756,1.043071,3.13629,849,1364,515,849,0,100.0,0,normal
1780595599.6535842,7.875522899994394,8034,0.024658,-0.04126,1.050293,0.335878,3.068702,-0.793893,1.051392,3.187478,851,1368,517,851,0,100.0,1,normal
1780595599.685229,7.907167700002901,8065,0.040527,-0.039307,1.05249,2.618321,3.038168,-0.145038,1.054003,4.013366,853,1373,520,853,1,100.0,14,normal
1780595599.715225,7.93716349999886,8096,0.040039,0.003418,1.047119,1.358779,2.725191,-0.770992,1.04789,3.141238,858,1380,522,858,0,114.695,1,normal
1780595599.746246,7.968184800003655,8126,0.04248,-0.041748,1.052734,1.053435,2.687023,-1.328244,1.054418,3.177114,860,1384,524,860,0,114.695,1,normal
1780595599.7777503,7.999688800002332,8157,0.04126,-0.024414,1.049072,2.954198,3.610687,-0.083969,1.050167,4.665983,863,1389,526,863,1,114.695,14,normal
1780595599.8084817,8.030420399998548,8189,0.036621,-0.010498,1.045166,0.526718,3.328244,-1.465649,1.04586,3.674611,868,1396,528,868,0,114.695,1,normal
1780595599.8395097,8.06144829999539,8219,0.032959,-0.032227,1.05957,1.580153,2.801527,-1.21374,1.060572,3.437819,870,1400,530,870,0,114.695,0,normal
1780595599.871707,8.09364550000464,8251,0.048828,-0.023926,1.060791,2.244275,2.755725,-0.519084,1.062184,3.59169,873,1406,533,873,0,114.695,5,normal
1780595599.9004488,8.122387499999604,8282,0.05957,-0.003662,1.054443,0.381679,3.770992,-0.984733,1.056131,3.91609,877,1412,535,877,0,114.695,0,normal
1780595599.9319937,8.153932300003362,8312,0.050537,-0.04248,1.056396,2.045802,2.51145,-0.351145,1.058457,3.258219,879,1417,538,879,1,114.695,14,normal
1780595599.9640174,8.185955900000408,8344,0.039795,-0.002441,1.050293,1.458015,2.099237,-0.549618,1.051049,2.614323,884,1424,540,884,0,114.695,1,normal
1780595599.993811,8.21574949999922,8375,0.03125,-0.019775,1.053223,0.648855,2.885496,-0.78626,1.053872,3.060279,886,1428,542,886,0,100.358,0,normal
1780595600.0268369,8.24877550000383,8406,0.049072,-0.017334,1.053711,3.015267,3.007634,-0.290076,1.054995,4.268705,888,1433,545,888,1,100.358,14,normal
1780595600.0564532,8.278391900006682,8437,0.056396,0.000977,1.054688,0.931298,2.320611,-1.114504,1.056195,2.737639,893,1440,547,893,0,100.358,0,normal
1780595600.0881343,8.310073000000557,8468,0.04126,-0.052002,1.062988,1.541985,2.244275,-1.076336,1.065059,2.927966,895,1444,549,895,0,100.358,0,normal
1780595600.119254,8.34119279999868,8499,0.057373,-0.020508,1.047363,2.763359,3.549618,-0.442748,1.049134,4.520174,899,1450,551,899,0,100.358,5,normal
1780595600.1517076,8.373646299995016,8531,0.044189,0.014404,1.054688,0.633588,3.40458,-1.030534,1.055711,3.613115,903,1456,553,903,0,100.358,0,normal
1780595600.1832192,8.405157700006384,8562,0.038086,-0.045654,1.051514,2.007634,2.870229,-0.274809,1.053193,3.51345,905,1461,556,905,1,100.358,14,normal
1780595600.2138746,8.435813200005214,8593,0.035156,-0.01001,1.053223,2.10687,2.412214,-0.549618,1.053857,3.249578,910,1468,558,910,0,100.358,1,normal
1780595600.243159,8.465097699998296,8624,0.041748,-0.006836,1.054199,0.435114,3.755725,-1.022901,1.055048,3.916774,912,1472,560,912,0,100.358,0,normal
1780595600.2754648,8.497403300003498,8655,0.033691,-0.051025,1.046143,2.381679,2.946565,-0.29771,1.047928,3.80043,914,1477,563,914,1,100.0,14,normal
1780595600.305565,8.527503799996339,8686,0.036621,0.000732,1.045654,1.122137,2.633588,-0.870229,1.046296,2.992035,919,1484,565,919,0,100.0,0,normal
1780595600.3367896,8.558728100004373,8717,0.031738,-0.04541,1.055664,1.015267,2.725191,-0.633588,1.057117,2.976385,921,1488,567,921,0,100.0,0,normal
1780595600.3680377,8.58997640000598,8748,0.039307,-0.017334,1.04834,3.351145,3.465649,-0.167939,1.04922,4.823806,925,1494,569,925,0,100.0,5,normal
1780595600.3978221,8.619760700006736,8779,0.036865,-0.00293,1.047607,0.40458,2.854962,-1.290076,1.04826,3.158922,929,1500,571,929,0,100.0,0,normal
1780595600.430262,8.652200600001379,8810,0.046143,-0.040283,1.055908,1.80916,3.206107,-0.80916,1.057683,3.769207,930,1502,572,930,0,100.0,5,normal
1780595600.4611378,8.68307630000345,8841,0.045654,-0.031494,1.064209,2.358779,3.358779,-0.480916,1.065653,4.132374,935,1508,573,935,0,100.0,6,normal
1780595600.4914365,8.713375100007397,8872,0.041016,0.004639,1.048828,0.473282,3.648855,-1.030534,1.04964,3.821013,939,1514,575,939,0,100.0,0,normal
1780595600.5216427,8.743581300004735,8902,0.050049,-0.040771,1.05542,2.160305,2.900763,-0.312977,1.057392,3.630331,941,1519,578,941,1,100.0,14,normal
1780595600.5534275,8.775366000001668,8933,0.029541,-0.022217,1.056396,2.145038,2.458015,-0.656489,1.057043,3.327763,946,1526,580,946,0,111.511,0,normal
1780595600.5847616,8.806700200002524,8965,0.045898,-0.01416,1.051758,0.480916,3.251908,-1.015267,1.052854,3.440488,948,1530,582,948,0,111.511,1,normal
1780595600.6171768,8.839115399998263,8996,0.048584,-0.058594,1.048584,2.748092,3.022901,-0.343511,1.051343,4.099748,950,1535,585,950,1,111.511,14,normal
1780595600.64594,8.867878599994583,9027,0.049561,0.004883,1.046631,0.908397,2.480916,-0.70229,1.047815,2.733741,955,1542,587,955,0,111.511,1,normal
1780595600.678754,8.900692800001707,9058,0.057861,-0.054688,1.056885,1.312977,2.770992,-0.847328,1.059879,3.181238,957,1546,589,957,0,111.511,1,normal
1780595600.7089143,8.930852899997262,9089,0.063965,-0.017578,1.054932,3.236641,3.541985,-0.603053,1.057015,4.835822,961,1552,591,961,0,111.511,5,normal
1780595600.7398322,8.961770800000522,9120,0.048096,-0.005371,1.046875,0.114504,3.320611,-1.244275,1.047993,3.547927,965,1558,593,965,0,111.511,1,normal
1780595600.7711396,8.993078200001037,9151,0.054199,-0.03833,1.068848,2.427481,3.030534,-0.664122,1.070907,3.939272,966,1560,594,966,1,111.511,5,normal
1780595600.8038735,9.025812100007897,9183,0.022217,-0.022949,1.044434,1.732824,2.664122,-0.29771,1.044922,3.191999,971,1568,597,971,0,100.0,1,normal
1780595600.8349898,9.056928499994683,9215,0.031006,-0.034912,1.05835,0.725191,2.419847,-0.801527,1.059379,2.650284,973,1572,599,973,0,100.0,0,normal
1780595600.8668694,9.088808100001188,9246,0.054199,-0.018311,1.064453,3.045802,2.541985,-0.412214,1.065989,3.988548,976,1577,601,976,1,100.0,14,normal
1780595600.8960905,9.118029000004753,9277,0.049805,-0.00293,1.050781,0.832061,2.717557,-1.076336,1.051965,3.039069,981,1584,603,981,0,100.0,1,normal
1780595600.927506,9.149444499998935,9308,0.045654,-0.049561,1.060303,1.519084,2.427481,-1.122137,1.062442,3.075626,983,1588,605,983,0,100.0,0,normal
1780595600.958618,9.180556599996635,9339,0.058594,-0.024414,1.056396,3.251908,3.10687,-0.603053,1.058302,4.537756,987,1594,607,987,0,100.0,5,normal
1780595600.9896665,9.211605000004056,9370,0.048584,-0.008301,1.034668,-0.061069,2.839695,-1.358779,1.035841,3.148631,990,1598,608,990,0,100.0,5,normal
1780595601.0243683,9.246306900007767,9401,0.056152,-0.05249,1.064453,2.137405,3.045802,-0.40458,1.067225,3.742872,992,1603,611,992,1,100.0,14,normal
1780595601.0527844,9.274723099995754,9432,0.047607,-0.02124,1.056152,1.885496,2.610687,-0.656489,1.057438,3.286603,996,1608,612,996,0,100.0,5,normal
1780595601.0838866,9.30582520000462,9463,0.066406,-0.010742,1.064697,0.671756,3.442748,-0.641221,1.06682,3.565801,1000,1614,614,1000,0,103.571,0,normal
1780595601.115127,9.33706560000428,9494,0.039307,-0.051758,1.059326,2.274809,2.312977,-0.641221,1.061318,3.30693,1002,1619,617,1002,1,103.571,14,normal
1780595601.1449096,9.366848300007405,9525,0.042969,-0.006592,1.061768,1.435114,2.59542,-0.641221,1.062657,3.034291,1007,1626,619,1007,0,103.571,0,normal
1780595601.174969,9.39690750000591,9555,0.041504,-0.015137,1.06543,0.496183,3.305344,-1.221374,1.066345,3.558546,1009,1630,621,1009,0,103.571,0,normal
1780595601.207559,9.429497699995409,9586,0.040527,-0.063232,1.046387,2.167939,2.931298,-0.450382,1.049079,3.673596,1011,1635,624,1011,1,103.571,14,normal
1780595601.2362525,9.458191099998658,9617,0.041992,0.017578,1.054199,1.29771,2.374046,-1.145038,1.055182,2.9379,1016,1642,626,1016,0,103.571,0,normal
1780595601.2675712,9.489509799997904,9647,0.030518,-0.053711,1.04541,0.847328,2.396947,-0.656489,1.047234,2.625699,1017,1644,627,1017,0,103.571,5,normal
1780595601.298381,9.520319799994468,9678,0.042969,-0.011963,1.055176,2.931298,3.519084,-0.580153,1.056118,4.616604,1020,1649,629,1020,1,103.571,14,normal
1780595601.3292754,9.55121400000644,9709,0.038574,-0.000977,1.039062,0.931298,2.946565,-0.961832,1.039779,3.236461,1025,1656,631,1025,0,103.571,0,normal
1780595601.3606763,9.582614900005865,9740,0.0354,-0.042725,1.071045,1.770992,2.908397,-0.969466,1.072481,3.540487,1027,1660,633,1027,0,97.473,0,normal
1780595601.39151,9.613448699994478,9771,0.054688,-0.035645,1.05835,2.580153,3.709924,-0.152672,1.060361,4.521508,1031,1666,635,1031,0,97.473,6,normal
1780595601.4233272,9.645265900006052,9802,0.051025,-0.011963,1.050049,0.427481,3.160305,-1.08397,1.051356,3.368272,1035,1672,637,1035,0,97.473,0,normal
1780595601.4530728,9.675011500003166,9833,0.050537,-0.048096,1.056152,2.167939,2.938931,-0.572519,1.058454,3.696627,1037,1677,640,1037,1,97.473,14,normal
1780595601.4838028,9.705741400000989,9864,0.03833,-0.018066,1.05127,1.778626,2.473282,-0.732824,1.052123,3.133316,1041,1683,642,1041,1,97.473,3,normal
1780595601.514418,9.736356599998544,9895,0.046387,-0.012451,1.047119,0.687023,3.290076,-1.198473,1.04822,3.568324,1044,1688,644,1044,0,97.473,1,normal
1780595601.547055,9.768993499994394,9926,0.039307,-0.05542,1.037598,2.076336,2.625954,-0.572519,1.03982,3.39626,1046,1693,647,1046,1,97.473,14,normal
1780595601.576724,9.798662700006389,9957,0.036865,-0.008789,1.048096,1.48855,2.48855,-0.870229,1.048781,3.027533,1051,1700,649,1051,0,97.473,0,normal
1780595601.6084003,9.83033900000737,9988,0.044434,-0.051758,1.053711,0.671756,2.740458,-0.832061,1.055917,2.941716,1052,1702,650,1052,0,97.473,5,normal
1780595601.6405401,9.862478800001554,10020,0.049561,-0.019531,1.043945,3.167939,3.152672,-0.305344,1.045304,4.479778,1056,1708,652,1056,0,103.571,6,normal
1780595601.67164,9.893578500006697,10052,0.052734,-0.009766,1.05249,0.870229,3.564885,-0.656489,1.053856,3.727825,1060,1714,654,1060,0,103.571,1,normal
1780595601.7023427,9.924281300001894,10083,0.052246,-0.042236,1.060059,2.0,3.015267,-0.259542,1.062185,3.627561,1062,1719,657,1062,1,103.571,13,normal
1780595601.7360213,9.957959799998207,10114,0.043457,-0.018066,1.05957,1.946565,2.580153,-0.59542,1.060615,3.286461,1066,1725,659,1066,0,103.571,3,normal
1780595601.7651238,9.987062500003958,10145,0.04541,-0.011963,1.068848,0.938931,2.984733,-1.320611,1.069879,3.396209,1069,1730,661,1069,0,103.571,1,normal
1780595601.7971566,10.019095199997537,10176,0.043945,-0.046387,1.048828,2.381679,2.450382,-0.78626,1.050773,3.506419,1071,1735,664,1071,1,103.571,14,normal
1780595601.8267915,10.048730199996498,10208,0.052002,-0.002441,1.052978,1.244275,2.435115,-1.0,1.054265,2.911701,1075,1740,665,1075,0,103.571,5,normal
1780595601.8583884,10.08032710000407,10238,0.021973,-0.043945,1.050049,0.824427,2.709924,-0.839695,1.051198,2.954396,1077,1744,667,1077,0,103.571,1,normal
1780595601.889814,10.111752400000114,10269,0.057373,-0.017822,1.048096,3.10687,3.526718,-0.503817,1.049816,4.726966,1080,1749,669,1080,1,103.571,14,normal
1780595601.9201362,10.142074799994589,10301,0.03833,0.000244,1.045898,0.557252,2.877863,-1.427481,1.046601,3.260418,1085,1756,671,1085,0,103.203,1,normal
1780595601.9524887,10.174427200006903,10332,0.04248,-0.036377,1.06543,2.038168,3.167939,-0.770992,1.066897,3.845048,1087,1760,673,1087,0,103.203,1,normal
1780595601.9839523,10.205890900004306,10363,0.042236,-0.015381,1.052246,2.259542,3.076336,-0.679389,1.053206,3.876976,1092,1766,674,1092,0,103.203,5,normal
1780595602.013828,10.235766600002535,10394,0.049805,0.006348,1.058594,0.366412,3.740458,-1.21374,1.059784,3.949487,1096,1772,676,1096,0,103.203,1,normal
1780595602.0463207,10.26825920000556,10425,0.024902,-0.040771,1.044678,2.51145,2.442748,-0.770992,1.04577,3.587315,1098,1777,679,1098,1,103.203,15,normal
1780595602.0777667,10.299705199999153,10457,0.035889,-0.005859,1.046143,1.305344,2.229008,-0.816794,1.046774,2.70916,1103,1784,681,1103,0,103.203,0,normal
1780595602.1130426,10.334981299994979,10488,0.044678,-0.045654,1.055664,0.732824,2.519084,-0.458015,1.057595,2.663192,1104,1786,682,1104,0,103.203,5,normal
1780595602.139679,10.361617500006105,10519,0.050293,-0.019043,1.057861,3.045802,2.946565,-0.221374,1.059227,4.243602,1107,1791,684,1107,1,103.203,14,normal
1780595602.172797,10.394735599998967,10551,0.048828,-0.016357,1.046387,0.465649,3.061069,-1.045802,1.047653,3.26813,1112,1798,686,1112,0,108.0,1,normal
1780595602.2025783,10.424517000006745,10582,0.038574,-0.032715,1.062988,1.923664,3.061069,-0.793893,1.064191,3.701472,1114,1802,688,1114,0,108.0,0,normal
1780595602.2332382,10.455176899995422,10613,0.045166,-0.021973,1.05542,2.129771,2.977099,-0.21374,1.056614,3.666705,1119,1808,689,1119,0,108.0,5,normal
1780595602.2649899,10.48692850000225,10644,0.043945,0.013428,1.061768,0.549618,3.564885,-0.916031,1.062761,3.721505,1123,1814,691,1123,0,108.0,1,normal
1780595602.295368,10.517306599998847,10675,0.041748,-0.046875,1.048584,2.51145,2.687023,-0.427481,1.050461,3.702731,1125,1819,694,1125,1,108.0,14,normal
1780595602.326589,10.548527799997828,10706,0.031982,-0.001221,1.055176,1.419847,2.366412,-0.603053,1.055661,2.824809,1131,1826,695,1131,0,108.0,0,normal
1780595602.3568063,10.578744800004642,10737,0.02002,-0.04834,1.042725,0.442748,2.534351,-1.08397,1.044036,2.791765,1133,1830,697,1133,0,108.0,0,normal
1780595602.388368,10.61030660000688,10768,0.04541,-0.04126,1.047607,2.687023,3.366412,-0.244275,1.049402,4.31422,1135,1835,700,1135,1,108.0,14,normal
1780595602.4172983,10.639236999995774,10798,0.054932,-0.018799,1.054932,1.282443,2.816794,-0.496183,1.056528,3.134515,1140,1842,702,1140,0,108.0,1,normal
1780595602.4491234,10.671062099994742,10829,0.041016,-0.049561,1.044434,0.916031,2.603053,-1.419847,1.046413,3.10338,1141,1844,703,1141,0,104.317,5,normal
1780595602.4812286,10.703167100000428,10861,0.039307,-0.013428,1.055908,2.89313,3.229008,-0.183206,1.056725,4.339384,1145,1850,705,1145,0,104.317,5,normal
1780595602.51272,10.734658600005787,10893,0.076172,-0.003418,1.060303,0.412214,3.618321,-1.007634,1.063041,3.778556,1149,1856,707,1149,0,104.317,1,normal
1780595602.5450447,10.766983199995593,10924,0.068604,-0.036865,1.059814,2.343511,2.557252,-0.396947,1.062672,3.491296,1151,1861,710,1151,1,104.317,14,normal
1780595602.5759413,10.797879999998258,10956,0.026123,-0.011475,1.051758,1.221374,2.740458,-0.419847,1.052145,3.029544,1156,1868,712,1156,0,104.317,0,normal
1780595602.60787,10.829808700000285,10988,0.03418,-0.050537,1.043213,0.717557,2.854962,-0.938931,1.044995,3.089868,1158,1872,714,1158,0,104.317,0,normal
1780595602.6390111,10.860949699999765,11019,0.050293,-0.019531,1.051514,3.007634,3.053435,-0.206107,1.052897,4.290898,1161,1877,716,1161,1,104.317,14,normal
1780595602.6719143,10.8938530000014,11051,0.049805,-0.018799,1.049316,0.557252,2.824427,-1.122137,1.050666,3.08984,1166,1884,718,1166,0,104.317,1,normal
1780595602.703098,10.925036600005114,11082,0.04126,-0.051758,1.044922,2.099237,2.748092,-0.969466,1.047016,3.591472,1168,1889,721,1168,1,106.719,14,normal
1780595602.735571,10.957509600004414,11114,0.029297,-0.016846,1.051514,2.229008,2.671756,-0.328244,1.052057,3.494925,1173,1896,723,1173,0,106.719,1,normal
1780595602.7725172,10.994455899999593,11146,0.049316,-0.049316,1.053467,0.580153,2.625954,-0.977099,1.055773,2.861282,1175,1900,725,1175,0,106.719,0,normal
1780595602.803537,11.025475500005996,11183,0.019043,-0.009766,1.043213,0.923664,2.450382,-0.48855,1.043432,2.66387,1181,1908,727,1181,0,106.719,1,normal
1780595602.8345828,11.05652139999438,11214,0.023682,-0.048584,1.055908,0.854962,2.450382,-0.717557,1.057291,2.692623,1183,1912,729,1183,0,106.719,1,normal
1780595602.8651867,11.087125200006994,11245,0.039551,-0.038574,1.048096,2.694656,3.389313,-0.580153,1.049551,4.36866,1185,1917,732,1185,1,106.719,14,normal
1780595602.896379,11.118317700005719,11276,0.031494,0.014404,1.04126,0.641221,2.519084,-1.099237,1.041836,2.822281,1190,1924,734,1190,0,106.719,1,normal
1780595602.9274037,11.1493424000073,11307,0.020264,-0.045166,1.050781,1.59542,2.633588,-0.709924,1.051947,3.159928,1192,1928,736,1192,0,106.719,0,normal
1780595602.9592283,11.18116700000246,11338,0.040771,-0.026855,1.05127,2.984733,3.015267,-0.694656,1.052402,4.299188,1195,1932,737,1195,0,105.469,5,normal
1780595602.9884732,11.210411699998076,11370,0.05542,-0.005127,1.049561,0.748092,3.076336,-1.29771,1.051035,3.421628,1199,1938,739,1199,0,105.469,1,normal
1780595603.0210247,11.242963299999246,11400,0.024414,-0.048828,1.058106,2.320611,2.877863,-0.687023,1.059513,3.76023,1201,1942,741,1201,1,105.469,0,normal
1780595603.0520854,11.274023999998462,11432,0.021484,-0.005371,1.052002,1.526718,2.251908,-0.740458,1.052235,2.819616,1206,1950,744,1206,0,105.469,1,normal
1780595603.0831966,11.30513520000386,11463,0.049561,-0.016113,1.049316,0.992366,3.267176,-0.984733,1.05061,3.55372,1208,1954,746,1208,0,105.469,0,normal
1780595603.1144707,11.336409399998956,11494,0.054199,-0.056885,1.049805,2.282443,2.824427,-0.358779,1.052741,3.649063,1210,1959,749,1210,1,105.469,14,normal
1780595603.146142,11.368080700005521,11526,0.037354,0.009033,1.048828,1.19084,3.236641,-0.618321,1.049532,3.50375,1215,1966,751,1215,0,105.469,1,normal
1780595603.1779518,11.399890500004403,11557,0.044678,-0.027588,1.059082,1.374046,3.061069,-1.19084,1.060383,3.560371,1216,1968,752,1216,0,105.469,5,normal
1780595603.2081287,11.430067299996153,11588,0.044922,-0.015869,1.057617,2.770992,3.0,-0.70229,1.05869,4.143864,1220,1974,754,1220,0,100.0,5,normal
1780595603.238241,11.460179500005324,11619,0.032227,-0.014404,1.048584,0.633588,2.961832,-1.389313,1.049178,3.332278,1224,1980,756,1224,0,100.0,1,normal
1780595603.270442,11.492380600000615,11650,0.02124,-0.04541,1.052246,2.21374,2.89313,-1.068702,1.05344,3.796442,1226,1984,758,1226,1,100.0,0,normal
1780595603.301927,11.523865600000136,11681,0.060059,-0.018799,1.053223,2.206107,2.969466,-0.564886,1.055101,3.742156,1231,1990,759,1231,0,100.0,5,normal
1780595603.3330753,11.555013999997755,11713,0.053711,-0.012207,1.06543,0.946565,3.641221,-0.89313,1.066853,3.866802,1235,1996,761,1235,0,100.0,0,normal
1780595603.3638077,11.585746199998539,11744,0.064697,-0.055176,1.054199,2.687023,2.633588,-0.320611,1.057623,3.776065,1237,2001,764,1237,1,100.0,14,normal
1780595603.3958504,11.617788999996264,11775,0.059082,-0.011719,1.053955,1.557252,2.396947,-0.732824,1.055675,2.950834,1242,2008,766,1242,0,100.0,1,normal
1780595603.4276853,11.649623899997096,11806,0.024658,-0.041992,1.064209,0.862595,2.465649,-0.709924,1.065322,2.706933,1244,2012,768,1244,0,100.0,0,normal
1780595603.4569383,11.678876799996942,11837,0.04541,-0.015381,1.044922,2.648855,3.374046,-0.770992,1.046021,4.358331,1246,2015,769,1246,1,100.0,16,normal
1780595603.488438,11.71037640000577,11868,0.045898,-0.016602,1.034668,1.045802,2.984733,-0.931298,1.035819,3.296914,1251,2022,771,1251,0,110.714,0,normal
1780595603.519854,11.741792600005283,11899,0.044678,-0.032227,1.064453,1.564886,2.526718,-1.022901,1.065878,3.143166,1253,2026,773,1253,0,110.714,0,normal
1780595603.552297,11.774235699995188,11931,0.056885,-0.016357,1.045898,2.305344,3.045802,-0.389313,1.047572,3.839672,1257,2032,775,1257,0,110.714,5,normal
1780595603.5825763,11.80451479999465,11962,0.060303,-0.008789,1.05249,0.419847,3.709924,-1.053435,1.054253,3.879373,1261,2038,777,1261,0,110.714,0,normal
1780595603.6132646,11.835203099995852,11993,0.027344,-0.055176,1.044922,2.21374,2.984733,-0.412214,1.046735,3.738876,1263,2043,780,1263,1,110.714,14,normal
1780595603.646745,11.868683499997132,12025,0.059814,-0.025391,1.057617,1.381679,2.450382,-0.671756,1.059611,2.892173,1268,2050,782,1268,0,110.714,0,normal
1780595603.6763875,11.898326199996518,12056,0.028564,-0.055908,1.051025,0.610687,2.534351,-1.122137,1.052899,2.838145,1270,2054,784,1270,0,110.714,0,normal
1780595603.707674,11.9296125999972,12087,0.043457,-0.022461,1.05542,2.725191,2.656489,-0.10687,1.056553,3.807232,1273,2059,786,1273,1,110.714,14,normal
1780595603.7390218,11.960960399999749,12119,0.0271,-0.015381,1.047852,0.251908,3.374046,-1.427481,1.048315,3.67224,1278,2066,788,1278,0,107.57,0,normal
1780595603.7692752,11.991213700006483,12150,0.020996,-0.049072,1.059326,2.343511,3.068702,-0.519084,1.06067,3.89595,1280,2071,791,1280,1,107.57,14,normal
1780595603.801333,12.023271600002772,12181,0.05249,-0.022705,1.052978,2.10687,3.175573,-0.656489,1.05453,3.867058,1282,2074,792,1282,0,107.57,5,normal
1780595603.832605,12.054543499994907,12212,0.057129,-0.005615,1.065674,0.778626,3.419847,-0.778626,1.067219,3.592753,1286,2080,794,1286,0,107.57,0,normal
1780595603.8632624,12.085200999994413,12243,0.026611,-0.04541,1.04541,2.374046,3.160305,-0.458015,1.046734,3.97912,1288,2085,797,1288,1,107.57,14,normal
1780595603.8958986,12.117837300000247,12275,0.053467,-0.010986,1.049561,1.381679,2.618321,-0.656489,1.050979,3.032428,1293,2092,799,1293,0,107.57,0,normal
1780595603.9262471,12.148185700003523,12306,0.038818,-0.057861,1.066894,0.900763,2.389313,-0.610687,1.069167,2.625477,1295,2096,801,1295,0,107.57,0,normal
1780595603.9581287,12.180067199995392,12337,0.048584,-0.016846,1.044678,3.022901,3.351145,-0.603053,1.045943,4.553216,1298,2101,803,1298,1,107.57,14,normal
1780595603.9882467,12.210185200005071,12368,0.053711,-0.011475,1.048828,0.755725,2.916031,-1.335878,1.050265,3.295288,1303,2108,805,1303,0,107.57,0,normal
1780595604.0186632,12.240601700003026,12399,0.047119,-0.026611,1.083496,1.801527,3.053435,-0.916031,1.084847,3.661704,1304,2110,806,1304,0,92.857,6,normal
1780595604.0498548,12.271793399995659,12430,0.043701,-0.018799,1.06543,2.610687,3.312977,-0.007634,1.066491,4.218004,1308,2116,808,1308,0,92.857,6,normal
1780595604.081073,12.3030116000009,12461,0.045654,-0.000732,1.046143,0.763359,3.564885,-1.145038,1.047139,3.821287,1312,2122,810,1312,0,92.857,0,normal
1780595604.113294,12.335232500001439,12492,0.045654,-0.033936,1.064453,2.274809,2.48855,-0.473282,1.065972,3.404648,1314,2127,813,1314,1,92.857,14,normal
1780595604.156952,12.378890399995726,12523,0.041748,-0.012695,1.050293,1.923664,2.167939,-0.343511,1.051199,2.918637,1319,2134,815,1319,0,92.857,0,normal
1780595604.173862,12.395800500002224,12554,0.030762,-0.013428,1.054443,0.916031,2.755725,-1.0,1.054977,3.07134,1321,2138,817,1321,0,92.857,0,normal
1780595604.2049723,12.42691090000153,12584,0.048096,-0.054932,1.062012,2.48855,2.832061,-0.526718,1.064518,3.806689,1323,2143,820,1323,1,92.857,14,normal
1780595604.2358556,12.457794100002502,12615,0.044434,0.001953,1.064697,1.236641,2.251908,-0.770992,1.065626,2.682313,1328,2150,822,1328,0,92.857,1,normal
1780595604.2666101,12.488548699999228,12646,0.043213,-0.046143,1.048096,0.641221,2.877863,-0.717557,1.050001,3.034493,1330,2154,824,1330,0,92.857,0,normal
1780595604.2965243,12.518462899999577,12677,0.060791,-0.008789,1.055176,3.076336,3.480916,-0.312977,1.056962,4.656026,1332,2157,825,1332,1,100.719,17,normal
1780595604.3272116,12.549150200007716,12707,0.044189,0.01001,1.05542,1.435114,3.038168,-0.725191,1.056392,3.437429,1337,2164,827,1337,0,100.719,0,normal
1780595604.3590517,12.580990300004487,12738,0.025391,-0.046875,1.05835,1.343511,2.435115,-0.748092,1.059691,2.880008,1339,2168,829,1339,0,100.719,0,normal
1780595604.3894756,12.61141409999982,12769,0.046875,-0.02002,1.046875,3.351145,3.450382,-0.435114,1.048115,4.829558,1342,2173,831,1342,0,100.719,14,normal
1780595604.4195223,12.64146100000653,12800,0.044434,-0.003662,1.056152,0.381679,2.908397,-1.229008,1.057093,3.180395,1347,2180,833,1347,0,100.719,0,normal
1780595604.4533725,12.675310999999056,12831,0.047607,-0.04126,1.064209,1.862595,3.053435,-0.587786,1.066072,3.624668,1349,2184,835,1349,0,100.719,1,normal
1780595604.4820614,12.703999999997905,12862,0.054443,-0.032715,1.052734,2.244275,2.954198,-0.458015,1.054649,3.73816,1354,2190,836,1354,0,100.719,6,normal
1780595604.5116732,12.733611799994833,12893,0.05249,0.0,1.056152,0.480916,3.70229,-1.305344,1.057456,3.955016,1358,2196,838,1358,0,100.719,0,normal
1780595604.5440483,12.765986900005373,12923,0.036865,-0.037598,1.054688,2.312977,2.732824,-0.51145,1.056001,3.616597,1360,2201,841,1360,1,100.719,14,normal
1780595604.5753162,12.797254899996915,12955,0.029053,-0.002441,1.044678,1.671756,2.312977,-0.732824,1.045084,2.946466,1366,2208,842,1366,0,122.302,0,normal
1780595604.6063738,12.828312400000868,12986,0.061768,-0.015381,1.062256,0.587786,2.78626,-0.977099,1.064161,3.010558,1368,2212,844,1368,0,122.302,1,normal
1780595604.638964,12.860902500004158,13018,0.054443,-0.031738,1.055176,3.007634,3.389313,-0.534351,1.057056,4.562766,1370,2217,847,1370,1,122.302,14,normal
1780595604.6687615,12.890700000003562,13049,0.036865,-0.012695,1.046143,0.412214,2.778626,-0.954198,1.046869,2.966678,1375,2224,849,1375,0,122.302,0,normal
1780595604.7004497,12.922388200007845,13080,0.039551,-0.030029,1.068604,1.580153,3.114504,-1.282443,1.069757,3.72044,1377,2228,851,1377,0,122.302,1,normal
1780595604.7327619,12.954700400005095,13112,0.045166,-0.036377,1.063477,2.381679,3.160305,-0.351145,1.065057,3.972811,1381,2234,853,1381,0,122.302,6,normal
1780595604.7631981,12.985136799994507,13143,0.046875,0.003174,1.05542,0.70229,3.503817,-0.862595,1.056465,3.676141,1385,2240,855,1385,0,122.302,0,normal
1780595604.794262,13.016200500002014,13174,0.039062,-0.052246,1.049316,2.068702,2.48855,-0.381679,1.051342,3.258541,1387,2245,858,1387,1,122.302,14,normal
1780595604.8256245,13.047563000000082,13206,0.040527,-0.009521,1.058594,1.389313,2.603053,-0.366412,1.059412,2.97327,1393,2252,859,1393,0,107.57,0,normal
1780595604.8568602,13.07879870000761,13237,0.030273,-0.053711,1.049561,0.862595,2.335878,-0.534351,1.05137,2.546748,1395,2256,861,1395,0,107.57,1,normal
1780595604.8877382,13.109676899999613,13268,0.058838,-0.030273,1.049561,2.923664,3.374046,-0.381679,1.051644,4.480812,1398,2261,863,1398,1,107.57,13,normal
1780595604.9182653,13.140203899994958,13299,0.038574,-0.003906,1.042725,0.816794,2.717557,-1.160305,1.043445,3.06571,1403,2268,865,1403,0,107.57,0,normal
1780595604.949052,13.170990800004802,13329,0.056885,-0.060303,1.054932,1.259542,2.618321,-0.717557,1.058184,2.992814,1405,2272,867,1405,0,107.57,1,normal
1780595604.9822805,13.204219100007322,13360,0.046631,-0.023926,1.052246,2.824427,3.656489,-0.625954,1.05355,4.662523,1409,2278,869,1409,0,107.57,6,normal
1780595605.013311,13.235249599994859,13392,0.052734,-0.023682,1.049072,0.267176,3.358779,-1.068702,1.050664,3.534813,1413,2284,871,1413,0,107.57,1,normal
1780595605.0507686,13.272707199997967,13423,0.047852,-0.034912,1.056885,2.274809,3.038168,-0.687023,1.058543,3.8571,1415,2289,874,1415,1,107.57,13,normal
1780595605.0755007,13.297439300004044,13454,0.038574,-0.028564,1.056641,2.076336,2.175573,-0.656489,1.05773,3.078192,1420,2296,876,1420,0,107.57,0,normal
1780595605.1063673,13.328305999995791,13486,0.046875,-0.01416,1.066162,0.541985,2.80916,-1.038168,1.067286,3.043505,1422,2300,878,1422,0,103.571,1,normal
1780595605.1378775,13.35981609999726,13517,0.064209,-0.032227,1.055664,3.435115,2.778626,-0.290076,1.058106,4.427744,1423,2303,880,1423,1,103.571,17,normal
1780595605.1693914,13.391330099999323,13549,0.046875,-0.012451,1.049805,0.984733,2.885496,-1.015267,1.050924,3.213496,1428,2310,882,1428,0,103.571,1,normal
1780595605.2008615,13.42280010000104,13580,0.034912,-0.037109,1.071045,1.824428,2.480916,-0.946565,1.072256,3.221718,1430,2314,884,1430,0,103.571,1,normal
1780595605.2307527,13.45269140000164,13611,0.054932,-0.022217,1.052978,2.587786,3.358779,-0.160305,1.054644,4.24308,1434,2320,886,1434,0,103.571,5,normal
1780595605.2626555,13.484594099994865,13642,0.047119,-0.020508,1.046875,0.770992,2.908397,-1.526718,1.048136,3.374028,1438,2326,888,1438,0,103.571,1,normal
1780595605.2940104,13.51594890000706,13673,0.050049,-0.037354,1.056885,2.244275,2.816794,-0.694656,1.058728,3.667921,1440,2331,891,1440,1,103.571,14,normal
1780595605.324184,13.546122500003548,13704,0.037354,-0.019287,1.052734,1.70229,2.946565,-0.732824,1.053573,3.480958,1444,2337,893,1444,0,103.571,4,normal
1780595605.3556278,13.577566499996465,13735,0.045898,-0.01001,1.053711,1.0,3.015267,-1.282443,1.054758,3.425857,1446,2340,894,1446,0,103.571,5,normal
1780595605.3864646,13.608403100006399,13766,0.043213,-0.060547,1.043457,2.450382,2.801527,-0.641221,1.046105,3.776783,1448,2345,897,1448,1,92.857,14,normal
1780595605.4178567,13.639795199997025,13798,0.057617,0.008057,1.047119,1.137405,2.854962,-0.832061,1.048734,3.183838,1453,2352,899,1453,0,92.857,0,normal
1780595605.449872,13.671810600004392,13829,0.037109,-0.056152,1.052002,1.389313,2.427481,-0.70229,1.054153,2.883759,1455,2356,901,1455,0,92.857,1,normal
1780595605.4815397,13.703478299998096,13860,0.053467,-0.020996,1.068604,2.961832,3.442748,-0.450382,1.070146,4.56375,1459,2362,903,1459,0,92.857,6,normal
1780595605.5127747,13.734713199999533,13892,0.052734,0.000244,1.057861,0.664122,3.656489,-1.10687,1.059175,3.877645,1463,2368,905,1463,0,92.857,1,normal
1780595605.5435474,13.765485900003114,13923,0.043701,-0.035156,1.055176,2.053435,2.70229,-0.778626,1.056665,3.482129,1465,2373,908,1465,1,92.857,14,normal
1780595605.5751073,13.797045900006196,13954,0.031006,-0.003662,1.04248,1.847328,2.519084,-0.458015,1.042948,3.157243,1470,2380,910,1470,0,92.857,0,normal
1780595605.6054096,13.827348200007691,13985,0.045166,-0.012695,1.064697,1.061069,3.656489,-0.938931,1.06573,3.921399,1472,2384,912,1472,0,92.857,1,normal
1780595605.635378,13.857316399997217,14016,0.040527,-0.055908,1.050049,2.0,2.419847,-0.396947,1.052317,3.164369,1473,2387,914,1473,1,100.0,17,normal
1780595605.6664038,13.888342399994144,14046,0.035156,0.005859,1.052734,1.465649,2.229008,-0.778626,1.053338,2.779003,1479,2394,915,1479,0,100.0,0,normal
1780595605.697204,13.91914280000492,14077,0.058838,-0.040771,1.05957,0.908397,3.21374,-0.969466,1.061986,3.477524,1481,2398,917,1481,0,100.0,0,normal
1780595605.7280607,13.949999300006311,14108,0.062256,-0.055664,1.050537,2.80916,2.778626,-0.48855,1.053851,3.98131,1483,2403,920,1483,1,100.0,14,normal
1780595605.7590814,13.981019900005776,14139,0.044434,0.00293,1.045654,0.778626,2.412214,-0.862595,1.046602,2.677518,1488,2410,922,1488,0,100.0,1,normal
1780595605.7898698,14.011808299997938,14170,0.045166,-0.052979,1.067139,1.51145,2.251908,-1.259542,1.069407,2.990321,1490,2414,924,1490,0,100.0,0,normal
1780595605.8215234,14.043462000001455,14201,0.055664,-0.019043,1.05542,3.122137,3.091603,-0.503817,1.057058,4.422622,1494,2420,926,1494,0,100.0,6,normal
1780595605.8524606,14.074399200006155,14232,0.045166,-0.006592,1.049805,0.183206,3.183206,-0.984733,1.050796,3.337074,1498,2426,928,1498,0,100.0,1,normal
1780595605.8833284,14.10526710000704,14262,0.044189,-0.035645,1.063477,1.709924,3.015267,-0.946565,1.064991,3.59328,1500,2430,930,1500,0,100.0,0,normal
1780595605.914114,14.136052600006224,14293,0.052246,-0.034424,1.063477,2.267176,2.954198,-0.572519,1.065316,3.767645,1504,2436,932,1504,0,111.913,5,normal
1780595605.9442272,14.166165799993905,14325,0.041504,0.002441,1.060059,0.824427,3.198473,-1.267176,1.060874,3.537746,1508,2442,934,1508,0,111.913,0,normal
1780595605.976201,14.198139700005413,14356,0.0271,-0.046631,1.043945,2.129771,2.748092,-0.496183,1.045338,3.511998,1510,2447,937,1510,1,111.913,14,normal
1780595606.0084825,14.230421000000206,14388,0.045898,-0.001221,1.044189,1.618321,2.419847,-0.656489,1.045198,2.984225,1515,2454,939,1515,0,111.913,1,normal
1780595606.0398688,14.261807400005637,14419,0.038574,-0.046387,1.05249,0.900763,2.961832,-0.778626,1.054218,3.192191,1517,2458,941,1517,0,111.913,0,normal
1780595606.077253,14.299191700003576,14450,0.043457,-0.003174,1.049316,2.938931,3.48855,-0.030534,1.050221,4.561604,1520,2463,943,1520,1,111.913,14,normal
1780595606.1007679,14.322706399994786,14481,0.046143,-0.008789,1.049072,0.793893,3.022901,-0.854962,1.050123,3.24024,1525,2470,945,1525,0,111.913,0,normal
1780595606.132492,14.354430599996704,14512,0.050049,-0.035645,1.05249,1.832061,3.396947,-0.89313,1.054282,3.961486,1527,2474,947,1527,0,111.913,0,normal
1780595606.1635091,14.385447799999383,14543,0.055664,-0.037842,1.058838,2.114504,3.290076,-0.572519,1.060975,3.952658,1531,2480,949,1531,0,108.0,5,normal
1780595606.1951244,14.41706300000078,14575,0.049072,-0.003662,1.063232,0.580153,3.755725,-0.854962,1.06437,3.895255,1535,2486,951,1535,0,108.0,0,normal
1780595606.2262304,14.448169099996448,14606,0.038818,-0.043457,1.043701,2.236641,2.458015,-0.48855,1.045326,3.35903,1537,2491,954,1537,1,108.0,14,normal
1780595606.2564008,14.478339499997674,14637,0.02832,-0.005859,1.049805,1.442748,2.442748,-0.633588,1.050203,2.906884,1542,2498,956,1542,0,108.0,0,normal
1780595606.2884393,14.51037780000479,14668,0.029053,-0.041992,1.051025,0.618321,3.015267,-0.641221,1.052265,3.144093,1544,2502,958,1544,0,108.0,0,normal
1780595606.3201222,14.54206079999858,14699,0.052734,-0.036621,1.057129,3.076336,3.473282,-0.458015,1.059077,4.662329,1547,2507,960,1547,1,108.0,14,normal
1780595606.3502734,14.572212099999888,14730,0.048096,0.006836,1.041992,1.022901,2.580153,-1.038168,1.043124,2.963327,1552,2514,962,1552,0,108.0,0,normal
1780595606.3803046,14.602243200002704,14760,0.05542,-0.054932,1.057373,1.045802,2.687023,-0.839695,1.060248,3.003145,1554,2518,964,1554,0,108.0,0,normal
1780595606.4118607,14.633799200004432,14791,0.058105,-0.015869,1.05835,3.419847,3.259542,-0.175573,1.060062,4.727663,1557,2523,966,1557,1,108.0,14,normal
1780595606.4429784,14.66491710000264,14822,0.05127,-0.011719,1.048096,0.541985,2.938931,-1.183206,1.049414,3.214194,1562,2530,968,1562,0,111.111,0,normal
1780595606.4728153,14.694753899995703,14853,0.046387,-0.032959,1.065674,2.068702,3.274809,-1.08397,1.067192,4.0223,1563,2532,969,1563,0,111.111,5,normal
1780595606.5050466,14.726985100001912,14884,0.043457,-0.025879,1.060059,2.541985,3.122137,-0.458015,1.061264,4.052062,1567,2538,971,1567,0,111.111,5,normal
1780595606.5360398,14.757978399997228,14915,0.060547,0.003906,1.071045,0.610687,3.603053,-1.038168,1.072762,3.799043,1571,2544,973,1571,0,111.111,0,normal
1780595606.5663104,14.788249100005487,14946,0.06958,-0.038574,1.053711,2.290076,2.625954,-0.40458,1.05671,3.507673,1573,2549,976,1573,1,111.111,14,normal
1780595606.5976906,14.819629300007364,14977,0.045654,-0.026855,1.054932,1.664122,3.038168,-0.70229,1.05626,3.534541,1578,2556,978,1578,0,111.111,1,normal
1780595606.6310635,14.853002100004232,15009,0.010742,-0.044434,1.057617,1.053435,2.328244,-0.938931,1.058605,2.722506,1580,2560,980,1580,0,111.111,0,normal
1780595606.6610641,14.883002700007637,15040,0.042969,-0.031738,1.046387,3.083969,2.900763,-0.274809,1.047749,4.242737,1583,2565,982,1583,1,111.111,14,normal
1780595606.6911933,14.913131900000735,15071,0.039062,0.010986,1.051025,0.748092,2.503817,-1.236641,1.051808,2.891024,1588,2572,984,1588,0,111.111,0,normal
1780595606.7235,14.945438700000523,15102,0.047607,-0.042725,1.052246,1.885496,2.687023,-0.954198,1.054189,3.418433,1590,2576,986,1590,0,100.0,0,normal
1780595606.753615,14.975553500000387,15133,0.053711,-0.019531,1.061523,2.862595,3.175573,-0.40458,1.063061,4.294461,1594,2582,988,1594,0,100.0,5,normal
1780595606.785009,15.00694750000548,15164,0.03833,-0.016357,1.045166,0.412214,3.396947,-1.045802,1.045997,3.57811,1598,2588,990,1598,0,100.0,0,normal
1780595606.8157904,15.03772900000331,15195,0.048828,-0.044189,1.064209,2.419847,3.198473,-0.59542,1.066245,4.054678,1600,2592,992,1600,0,100.0,0,normal
1780595606.8466551,15.06859369999438,15226,0.035889,-0.026611,1.056396,1.977099,2.900763,-0.549618,1.057341,3.553228,1605,2598,993,1605,0,100.0,5,normal
1780595606.8770404,15.098979100002907,15257,0.047607,-0.007813,1.06543,1.076336,3.374046,-1.122137,1.066521,3.715088,1609,2604,995,1609,0,100.0,0,normal
1780595606.9086087,15.130547199994908,15288,0.031494,-0.044189,1.049072,1.931298,2.679389,-0.419847,1.050475,3.329461,1611,2609,998,1611,1,100.0,14,normal
1780595606.9394536,15.161392099995282,15319,0.041748,0.002686,1.054932,1.450382,2.610687,-0.832061,1.055761,3.100261,1617,2616,999,1617,0,100.0,0,normal
1780595606.970277,15.192215700008092,15350,0.037109,-0.031982,1.047363,0.755725,2.374046,-0.969466,1.048508,2.673402,1618,2618,1000,1618,0,100.0,6,normal
1780595607.0017836,15.223722299997462,15381,0.05127,-0.018555,1.05249,2.832061,2.725191,-0.664122,1.053902,3.986012,1621,2623,1002,1621,1,111.111,14,normal
1780595607.033651,15.255589699998382,15413,0.035156,-0.01001,1.053955,0.473282,2.648855,-1.656489,1.054589,3.159808,1626,2630,1004,1626,0,111.111,0,normal
1780595607.065365,15.287303699995391,15444,0.046143,-0.038818,1.062988,1.931298,3.015267,-0.709924,1.064697,3.650444,1628,2634,1006,1628,0,111.111,0,normal
1780595607.095889,15.317827699996997,15475,0.052002,-0.030273,1.060547,2.152672,2.839695,-0.832061,1.062252,3.65926,1633,2640,1007,1633,0,111.111,5,normal
1780595607.1281433,15.350082000004477,15507,0.042236,-0.010742,1.060303,0.534351,3.625954,-1.10687,1.061198,3.828608,1637,2646,1009,1637,0,111.111,0,normal
1780595607.1596923,15.381630799995037,15538,0.033691,-0.046387,1.036621,2.587786,2.59542,-0.251908,1.038205,3.673731,1639,2651,1012,1639,1,111.111,14,normal
1780595607.190204,15.412142500004848,15569,0.039307,0.005615,1.049072,1.564886,2.648855,-0.519084,1.049823,3.120056,1643,2656,1013,1643,0,111.111,5,normal
1780595607.2213902,15.443328900000779,15600,0.041016,-0.041504,1.050293,0.778626,2.885496,-0.992366,1.051913,3.149149,1645,2660,1015,1645,0,111.111,0,normal
1780595607.2524915,15.47443000000203,15631,0.056885,-0.018555,1.051758,3.030534,3.160305,-0.458015,1.053458,4.402436,1648,2665,1017,1648,1,108.0,14,normal
1780595607.2818062,15.503744800007553,15662,0.044678,0.007324,1.050293,0.687023,2.732824,-1.022901,1.051268,2.997775,1653,2672,1019,1653,0,108.0,0,normal
1780595607.3135533,15.535491999995429,15693,0.034668,-0.050537,1.05835,1.801527,2.625954,-1.08397,1.060122,3.363944,1655,2676,1021,1655,0,108.0,0,normal
1780595607.3443644,15.566303100000368,15724,0.060303,-0.023926,1.065186,2.877863,4.08397,-0.419847,1.067159,5.013698,1659,2682,1023,1659,0,108.0,5,normal
1780595607.3762867,15.598225399997318,15755,0.05127,-0.01001,1.054443,0.48855,3.435115,-0.961832,1.055736,3.60053,1663,2688,1025,1663,0,108.0,0,normal
1780595607.4069114,15.628850099994452,15786,0.061279,-0.04248,1.05835,2.496183,3.236641,-0.312977,1.060973,4.099357,1665,2693,1028,1665,1,108.0,14,normal
1780595607.43743,15.65936839999631,15817,0.043945,-0.021729,1.056396,1.854962,2.381679,-0.450382,1.057533,3.052232,1669,2698,1029,1669,0,108.0,5,normal
1780595607.466825,15.688763500002096,15848,0.052246,0.006592,1.062744,1.0,3.381679,-0.961832,1.064048,3.655253,1672,2702,1030,1672,0,108.0,6,normal
1780595607.4990695,15.721008000007714,15878,0.040771,-0.041748,1.05542,2.183206,2.641221,-0.427481,1.057032,3.453285,1674,2707,1033,1674,1,108.0,14,normal
1780595607.5296154,15.751553900001454,15909,0.025635,-0.011963,1.048828,1.374046,2.816794,-0.320611,1.04921,3.150416,1680,2714,1034,1680,0,115.108,0,normal
1780595607.5611303,15.783068899996579,15941,0.047607,-0.048096,1.058106,0.908397,2.938931,-1.152672,1.060267,3.284989,1682,2718,1036,1682,0,115.108,0,normal
1780595607.5928314,15.814770099997986,15972,0.063721,-0.042969,1.054199,2.717557,3.175573,-0.496183,1.056997,4.208988,1685,2723,1038,1685,1,115.108,14,normal
1780595607.622551,15.844489600000088,16003,0.053711,-0.004395,1.045166,0.374046,2.564885,-0.847328,1.046554,2.726997,1690,2730,1040,1690,0,115.108,0,normal
1780595607.6550996,15.87703830000828,16034,0.049561,-0.0354,1.069092,1.931298,3.022901,-1.167939,1.070825,3.772522,1692,2734,1042,1692,0,115.108,0,normal
1780595607.6851156,15.907054099996458,16065,0.0625,-0.015869,1.057129,2.870229,3.755725,-0.648855,1.059094,4.771236,1696,2740,1044,1696,0,115.108,6,normal
1780595607.7159607,15.937899299999117,16096,0.040527,-0.002197,1.049072,0.519084,3.541985,-1.175572,1.049857,3.767901,1700,2746,1046,1700,0,115.108,0,normal
1780595607.7475157,15.969454300007783,16127,0.053223,-0.043701,1.050537,2.259542,3.076336,-0.351145,1.052792,3.833102,1702,2751,1049,1702,1,115.108,14,normal
1780595607.778856,16.00079469999764,16158,0.04126,-0.025879,1.054688,1.816794,2.618321,-0.732824,1.055811,3.270072,1706,2757,1051,1706,1,115.108,3,normal
1780595607.8099282,16.03186679999635,16190,0.05249,-0.05127,1.047852,0.587786,3.145038,-0.908397,1.050417,3.32595,1708,2760,1052,1708,0,99.644,5,normal
1780595607.841772,16.063710800008266,16221,0.052002,-0.041016,1.052246,2.366412,2.801527,-0.709924,1.054328,3.735298,1710,2765,1055,1710,1,99.644,13,normal
1780595607.87225,16.09418870000809,16252,0.045898,-0.000488,1.04541,1.282443,2.824427,-0.541985,1.046417,3.148936,1715,2772,1057,1715,0,99.644,0,normal
1780595607.9028795,16.124818199998117,16283,0.030273,-0.042725,1.061035,1.496183,2.679389,-0.89313,1.062326,3.196149,1717,2776,1059,1717,0,99.644,1,normal
1780595607.9340725,16.156011099999887,16314,0.038574,-0.018555,1.048828,3.099237,3.526718,-0.145038,1.049701,4.697238,1721,2782,1061,1721,0,99.644,6,normal
1780595607.965557,16.187495799997123,16345,0.046143,-0.016846,1.052002,0.137405,3.435115,-1.343511,1.053148,3.691059,1725,2788,1063,1725,0,99.644,0,normal
1780595607.9964015,16.218340200008242,16376,0.040039,-0.04834,1.051758,1.671756,3.152672,-0.496183,1.053629,3.602819,1727,2792,1065,1727,0,99.644,1,normal
1780595608.0271842,16.249122799999896,16407,0.040283,-0.029297,1.057861,2.381679,3.10687,-0.572519,1.059033,3.956364,1732,2798,1066,1732,0,99.644,6,normal
1780595608.0668178,16.28875639999751,16438,0.048584,0.001465,1.054199,0.442748,3.480916,-0.770992,1.055319,3.592664,1734,2802,1068,1734,0,99.644,0,normal
1780595608.0900533,16.311992000002647,16469,0.040039,-0.049805,1.038818,2.358779,2.427481,-0.427481,1.040782,3.411633,1736,2807,1071,1736,1,100.358,14,normal
1780595608.121639,16.343577599996934,16501,0.046631,-0.008545,1.046387,1.396947,2.175573,-1.038168,1.04746,2.786103,1742,2814,1072,1742,0,100.358,0,normal
1780595608.1525483,16.37448690000747,16532,0.036865,-0.044434,1.053223,0.671756,2.969466,-1.175572,1.054804,3.26358,1744,2818,1074,1744,0,100.358,1,normal
1780595608.1839323,16.405870800008415,16563,0.061279,-0.032959,1.05249,2.641221,3.175573,-0.435114,1.054788,4.153268,1747,2823,1076,1747,1,100.358,13,normal
1780595608.2140615,16.436000100002275,16594,0.04248,-0.012939,1.04834,0.519084,2.641221,-0.984733,1.04928,2.866216,1752,2830,1078,1752,0,100.358,0,normal
1780595608.2450862,16.467024700003094,16625,0.03125,-0.033691,1.057129,1.832061,2.923664,-1.183206,1.058127,3.647497,1754,2834,1080,1754,0,100.358,1,normal
1780595608.2772098,16.49914840000565,16656,0.045654,-0.015381,1.064209,2.374046,3.267176,-0.358779,1.065299,4.054534,1758,2840,1082,1758,0,100.358,6,normal
1780595608.3077862,16.529724799998803,16688,0.048096,0.002441,1.054443,0.641221,3.656489,-0.931298,1.055542,3.827322,1761,2844,1083,1761,0,100.358,5,normal
1780595608.33943,16.561368599999696,16719,0.039062,-0.038086,1.050049,2.51145,2.465649,-0.160305,1.051465,3.523138,1763,2849,1086,1763,1,108.0,14,normal
1780595608.3706086,16.592547199994442,16750,0.037598,-0.005859,1.049316,1.541985,2.633588,-0.770992,1.050006,3.147686,1769,2856,1087,1769,0,108.0,0,normal
1780595608.4073217,16.629260200003046,16786,0.042725,-0.020752,1.061523,2.351145,3.129771,-0.358779,1.062586,3.930912,1771,2861,1090,1771,1,108.0,14,normal
1780595608.4380047,16.659943399994518,16818,0.030518,0.005127,1.044678,1.847328,2.625954,-0.916031,1.045136,3.338768,1777,2868,1091,1777,0,108.0,0,normal
1780595608.4704757,16.69241430000693,16849,0.04248,-0.029053,1.050781,0.480916,2.587786,-1.335878,1.052041,2.951692,1779,2872,1093,1779,0,108.0,0,normal
1780595608.5011148,16.72305349999806,16880,0.046143,-0.062744,1.048584,2.465649,2.78626,-0.458015,1.051472,3.748659,1781,2877,1096,1781,1,108.0,13,normal
1780595608.531092,16.753030599997146,16911,0.056641,-0.001221,1.04541,1.129771,2.358779,-0.725191,1.046944,2.71406,1785,2882,1097,1785,0,108.0,6,normal
1780595608.5624676,16.784406300008413,16942,0.037598,-0.047119,1.048828,0.961832,2.755725,-0.839695,1.050559,3.037142,1787,2886,1099,1787,0,108.0,1,normal
1780595608.5943186,16.81625720000011,16973,0.03418,-0.010986,1.053955,3.175573,3.129771,-0.419847,1.054566,4.478392,1791,2892,1101,1791,0,110.236,6,normal
1780595608.6246202,16.846558799996274,17004,0.044922,-0.020508,1.047607,0.389313,2.427481,-0.938931,1.048771,2.631695,1795,2898,1103,1795,0,110.236,0,normal
1780595608.6560986,16.878037200003746,17035,0.020264,-0.032715,1.06665,1.748092,2.954198,-0.572519,1.067344,3.48007,1796,2900,1104,1796,0,110.236,4,normal
1780595608.687727,16.90966550000303,17067,0.035645,-0.026855,1.047363,1.732824,2.442748,-0.526718,1.048314,3.04091,1800,2907,1107,1800,0,110.236,3,normal
1780595608.7186086,16.940547300007893,17098,0.046631,-0.019287,1.060791,0.78626,3.534351,-1.08397,1.061991,3.779528,1803,2912,1109,1803,0,110.236,1,normal
1780595608.7504606,16.972399200007203,17129,0.043701,-0.047119,1.047852,2.198473,2.664122,-0.366412,1.04982,3.473484,1805,2917,1112,1805,1,110.236,13,normal
1780595608.780839,17.002777600006084,17160,0.040527,0.00293,1.052734,1.633588,2.396947,-0.618321,1.053518,2.965853,1811,2924,1113,1811,0,110.236,0,normal
1780595608.8117974,17.03373599999759,17191,0.035889,-0.050049,1.053955,0.564886,2.534351,-0.984733,1.055753,2.777,1813,2928,1115,1813,0,110.236,1,normal
1780595608.8431363,17.06507500000589,17222,0.057617,-0.018799,1.045898,3.267176,3.137405,-0.587786,1.047653,4.56763,1816,2933,1117,1816,1,110.236,14,normal
1780595608.875456,17.09739470000204,17254,0.030518,-0.009521,1.04248,0.290076,2.687023,-1.267176,1.042971,2.984957,1820,2938,1118,1820,0,103.203,5,normal
1780595608.9056716,17.127610299998196,17285,0.033691,-0.047607,1.053955,2.053435,3.419847,-0.755725,1.055568,4.059935,1822,2942,1120,1822,0,103.203,0,normal
1780595608.935723,17.157661599994753,17316,0.043457,-0.031006,1.057129,2.320611,3.083969,-0.519084,1.058476,3.894297,1827,2948,1121,1827,0,103.203,5,normal
1780595608.9674835,17.18942209999659,17347,0.044189,-0.006104,1.06958,0.763359,3.549618,-0.885496,1.07051,3.737193,1831,2954,1123,1831,0,103.203,1,normal
1780595608.9987693,17.220707900007255,17378,0.028076,-0.039551,1.05835,2.198473,2.618321,-0.679389,1.05946,3.485751,1833,2959,1126,1833,1,103.203,15,normal
1780595609.0380783,17.260017000007792,17410,0.044189,-0.014648,1.051758,1.442748,2.748092,-0.519084,1.052788,3.1469,1838,2966,1128,1838,0,103.203,1,normal
1780595609.0615692,17.28350780000619,17441,0.032715,-0.040283,1.05957,1.007634,2.671756,-0.862595,1.06084,2.982897,1840,2970,1130,1840,0,103.203,1,normal
1780595609.0929866,17.31492530000105,17472,0.051025,-0.022705,1.059326,3.015267,3.129771,-0.259542,1.060797,4.353696,1843,2975,1132,1843,1,103.203,14,normal
1780595609.1247027,17.3466413999995,17504,0.039551,-0.015625,1.043945,0.015267,2.717557,-1.114504,1.044811,2.937255,1848,2982,1134,1848,0,112.0,1,normal
1780595609.1550639,17.377002399996854,17535,0.036133,-0.053467,1.058838,2.29771,2.839695,-0.694656,1.060802,3.718318,1849,2984,1135,1849,0,112.0,5,normal
1780595609.1868927,17.408831299995654,17566,0.039795,-0.02417,1.049561,1.961832,2.954198,-0.435114,1.050593,3.57287,1852,2990,1138,1852,0,112.0,5,normal
1780595609.2170565,17.438995200005593,17597,0.035889,-0.004883,1.04541,0.748092,3.717557,-1.015267,1.046037,3.925639,1856,2996,1140,1856,0,112.0,1,normal
1780595609.2478042,17.469742800007225,17628,0.029297,-0.044678,1.043701,2.152672,2.832061,-0.061069,1.045068,3.55785,1858,3001,1143,1858,1,112.0,15,normal
1780595609.2783813,17.500320000006468,17659,0.026611,-0.002686,1.05249,1.374046,2.801527,-0.59542,1.05283,3.176646,1863,3008,1145,1863,0,112.0,1,normal
1780595609.3088217,17.530760299996473,17689,0.055176,-0.009033,1.070068,1.114504,3.450382,-0.839695,1.071528,3.721873,1865,3012,1147,1865,0,112.0,0,normal
1780595609.3398523,17.561790899999323,17719,0.031494,-0.046631,1.049072,2.503817,2.396947,-0.458015,1.05058,3.496317,1867,3017,1150,1867,1,112.0,14,normal
1780595609.3710747,17.593013300007442,17750,0.036621,0.003418,1.047852,1.229008,2.664122,-0.419847,1.048497,2.963828,1872,3024,1152,1872,0,112.0,1,normal
1780595609.401711,17.62364950000483,17781,0.039795,-0.03833,1.060303,0.778626,2.496183,-1.068702,1.061741,2.824768,1874,3028,1154,1874,0,93.863,0,normal
1780595609.4330194,17.65495799999917,17812,0.062744,-0.013916,1.052978,2.931298,3.068702,-0.503817,1.054938,4.273555,1877,3033,1156,1877,1,93.863,14,normal
1780595609.463876,17.685814600001322,17843,0.050049,0.006348,1.042236,0.984733,2.458015,-1.08397,1.043457,2.861211,1882,3040,1158,1882,0,93.863,0,normal
1780595609.4957633,17.71770190000825,17874,0.04834,-0.044189,1.054688,1.748092,2.992366,-0.70229,1.056719,3.536,1883,3042,1159,1883,0,93.863,6,normal
1780595609.5259192,17.74785780000093,17905,0.060303,-0.012451,1.053955,2.900763,3.007634,-0.496183,1.055752,4.207908,1887,3048,1161,1887,0,93.863,5,normal
1780595609.5576503,17.77958889999718,17936,0.071777,-0.011719,1.054688,0.290076,3.419847,-0.870229,1.057192,3.540734,1891,3054,1163,1891,0,93.863,0,normal
1780595609.588079,17.810017499999958,17967,0.06543,-0.043457,1.067627,2.427481,3.015267,-0.343511,1.070512,3.886193,1893,3058,1165,1893,1,93.863,0,normal
1780595609.618419,17.84035749999748,17998,0.064941,-0.021973,1.056885,1.862595,2.862595,-0.755725,1.059106,3.497833,1898,3064,1166,1898,0,93.863,5,normal
1780595609.6494977,17.871436400004313,18029,0.054688,-0.004639,1.06958,0.969466,3.351145,-0.908397,1.070987,3.604888,1902,3070,1168,1902,0,93.863,0,normal
1780595609.6809173,17.90285589999985,18060,0.047363,-0.040527,1.049561,2.083969,2.801527,-0.381679,1.05141,3.51243,1904,3075,1171,1904,1,107.527,14,normal
1780595609.7129717,17.934910399999353,18091,0.045166,-0.012695,1.054932,1.259542,2.748092,-0.824427,1.055974,3.13339,1908,3080,1172,1908,0,107.527,6,normal
1780595609.7426836,17.96462220000103,18122,0.026855,-0.046143,1.057617,0.687023,2.580153,-1.129771,1.058964,2.899236,1910,3084,1174,1910,0,107.527,0,normal
1780595609.7741294,17.996068000007654,18153,0.058105,-0.0354,1.050049,3.167939,3.068702,-0.564886,1.052251,4.446556,1913,3089,1176,1913,1,107.527,14,normal
1780595609.8042512,18.02618970000185,18184,0.063232,0.01416,1.047363,0.770992,2.343511,-1.099237,1.049366,2.700888,1918,3096,1178,1918,0,107.527,0,normal
1780595609.8361137,18.058052399996086,18215,0.037842,-0.041016,1.061768,1.91603,2.48855,-0.648855,1.063233,3.207034,1920,3100,1180,1920,0,107.527,0,normal
1780595609.867024,18.08896249999816,18246,0.053955,-0.016357,1.057129,2.671756,3.244275,-0.618321,1.058631,4.248049,1924,3106,1182,1924,0,107.527,6,normal
1780595609.8986244,18.1205631000048,18278,0.049316,0.001953,1.056885,0.572519,3.48855,-0.70229,1.058037,3.604298,1928,3112,1184,1928,0,107.527,0,normal
1780595609.9312918,18.153230500000063,18309,0.049561,-0.037354,1.056396,2.061069,3.091603,-0.083969,1.058218,3.716593,1930,3117,1187,1930,1,107.527,14,normal
1780595609.9622529,18.184191399996052,18341,0.037109,-0.016357,1.057373,1.076336,2.572519,-0.48855,1.05815,2.831084,1936,3124,1188,1936,0,113.879,1,normal
1780595610.0091677,18.23110629999428,18373,0.02832,-0.045166,1.043457,1.038168,2.709924,-0.954198,1.044818,3.054828,1937,3126,1189,1937,0,113.879,5,normal
1780595610.0251474,18.2470861000038,18404,0.043213,-0.01709,1.056396,2.931298,3.549618,-0.358779,1.057418,4.617469,1941,3132,1191,1941,0,113.879,5,normal
1780595610.0562894,18.27822799999558,18435,0.049072,-0.017334,1.05249,0.473282,3.122137,-0.946565,1.053776,3.296623,1945,3138,1193,1945,0,113.879,0,normal
1780595610.0874097,18.30934839999827,18466,0.040771,-0.039551,1.056641,1.824428,2.648855,-0.687023,1.058166,3.288916,1947,3142,1195,1947,0,113.879,0,normal
1780595610.1170037,18.338942200003657,18497,0.044189,-0.032227,1.060303,2.29771,3.320611,-0.358779,1.061712,4.053967,1951,3148,1197,1951,0,113.879,6,normal
1780595610.1485302,18.3704687999998,18528,0.042725,0.005127,1.058594,0.633588,3.572519,-1.282443,1.059468,3.848244,1955,3154,1199,1955,0,113.879,0,normal
1780595610.1800864,18.40202500000305,18559,0.038574,-0.045654,1.042725,2.343511,2.221374,-0.267176,1.044436,3.240051,1957,3159,1202,1957,1,113.879,14,normal
1780595610.2113297,18.43326829999569,18590,0.038574,-0.002441,1.054688,1.816794,2.916031,-0.557252,1.055396,3.48059,1963,3166,1203,1963,0,113.879,0,normal
1780595610.2414596,18.463398199994117,18621,0.043457,-0.019531,1.062012,0.832061,2.984733,-1.335878,1.06308,3.374244,1965,3170,1205,1965,0,103.571,0,normal
1780595610.272958,18.49489669999457,18652,0.040283,-0.059814,1.050781,2.801527,2.763359,-0.389313,1.053253,3.954272,1967,3175,1208,1967,1,103.571,14,normal
1780595610.3030279,18.524966400000267,18683,0.032959,-0.005127,1.040772,1.335878,2.755725,-0.793893,1.041306,3.163678,1972,3182,1210,1972,0,103.571,0,normal
1780595610.3344526,18.556391300007817,18714,0.048584,-0.057129,1.057373,1.29771,2.59542,-0.870229,1.060029,3.029448,1973,3184,1211,1973,0,103.571,5,normal
1780595610.364249,18.586187699998845,18744,0.037598,-0.00415,1.049561,3.007634,3.152672,-0.175573,1.050242,4.360737,1976,3189,1213,1976,1,103.571,14,normal
1780595610.3957376,18.617676199995913,18775,0.044678,0.000488,1.049805,0.496183,2.229008,-1.236641,1.050755,2.596913,1981,3196,1215,1981,0,103.571,0,normal
1780595610.4275577,18.649496400001226,18806,0.029053,-0.029297,1.073486,2.022901,2.725191,-0.824427,1.074279,3.492632,1983,3200,1217,1983,0,103.571,1,normal
1780595610.4582105,18.68014910000784,18837,0.033447,-0.031738,1.052978,2.435115,3.763359,-0.290076,1.053988,4.491859,1986,3206,1220,1986,0,103.571,6,normal
1780595610.4885006,18.710439200003748,18868,0.043701,-0.01416,1.060059,0.648855,3.40458,-0.770992,1.061054,3.550578,1990,3212,1222,1990,0,103.571,0,normal
1780595610.5198288,18.74176730000181,18899,0.046631,-0.045166,1.058838,2.450382,2.824427,-0.251908,1.060826,3.747695,1992,3217,1225,1992,1,97.122,14,normal
1780595610.5511518,18.773090300004696,18931,0.041748,-0.008545,1.051025,1.755725,2.748092,-0.717557,1.051889,3.339082,1998,3224,1226,1998,0,97.122,0,normal
1780595610.582782,18.80472070000542,18962,0.05542,-0.041992,1.058838,0.717557,3.145038,-0.816794,1.061118,3.327658,2000,3228,1228,2000,0,97.122,1,normal
1780595610.615273,18.837211499994737,18993,0.05957,-0.046875,1.048096,2.587786,2.877863,-0.80916,1.050833,3.953918,2002,3233,1231,2002,1,97.122,14,normal
1780595610.644562,18.866500500007533,19024,0.062012,-0.01001,1.043945,1.183206,2.740458,-0.633588,1.045833,3.051478,2007,3240,1233,2007,0,97.122,0,normal
1780595610.6757338,18.89767249999568,19055,0.030518,-0.047363,1.055664,1.603053,2.587786,-0.679389,1.057167,3.118972,2009,3244,1235,2009,0,97.122,1,normal
1780595610.7070746,18.929013200002373,19086,0.048096,-0.01709,1.053955,2.954198,3.59542,-0.625954,1.05519,4.695333,2013,3250,1237,2013,0,97.122,6,normal
1780595610.7382884,18.960226900002453,19117,0.044922,-0.01001,1.046387,0.389313,2.740458,-1.129771,1.047398,2.989658,2017,3256,1239,2017,0,97.122,1,normal
1780595610.76975,18.99168869999994,19148,0.050537,-0.039062,1.068848,2.10687,2.824427,-0.923664,1.070754,3.642725,2019,3260,1241,2019,0,97.122,0,normal
1780595610.8006654,19.022603899997193,19179,0.04541,-0.019043,1.055908,2.351145,2.854962,-0.587786,1.057056,3.744888,2024,3266,1242,2024,0,114.286,5,normal
1780595610.8323758,19.054314299995895,19211,0.031738,-0.015869,1.059326,0.938931,3.480916,-1.015267,1.05992,3.745549,2027,3270,1243,2027,0,114.286,5,normal
1780595610.863741,19.08567960000073,19242,0.039551,-0.048828,1.047852,2.19084,2.931298,-0.358779,1.049734,3.677092,2029,3275,1246,2029,1,114.286,14,normal
1780595610.8941255,19.116064000001643,19273,0.041748,-0.007568,1.052978,1.290076,2.877863,-0.366412,1.053833,3.175004,2034,3282,1248,2034,0,114.286,1,normal
1780595610.9249372,19.14687579999736,19304,0.031982,-0.049072,1.049072,0.961832,2.885496,-1.175572,1.050706,3.260856,2036,3286,1250,2036,0,114.286,0,normal
1780595610.9563909,19.17832950000593,19335,0.050537,-0.015869,1.045654,3.053435,3.335878,-0.236641,1.046995,4.528526,2039,3291,1252,2039,1,114.286,14,normal
1780595610.986703,19.208641599994735,19366,0.03833,-0.007813,1.045898,0.320611,2.969466,-1.244275,1.04663,3.235543,2044,3298,1254,2044,0,114.286,1,normal
1780595611.0174105,19.239349099996616,19397,0.030518,-0.039307,1.056641,1.770992,2.59542,-1.053435,1.057812,3.313962,2046,3302,1256,2046,0,114.286,0,normal
1780595611.0486903,19.27062890000525,19428,0.050781,-0.032959,1.063965,2.19084,3.251908,-0.335878,1.065686,3.935416,2050,3308,1258,2050,0,114.286,5,normal
1780595611.0956402,19.31757870000729,19460,0.042236,-0.007813,1.056396,0.839695,3.610687,-0.961832,1.057269,3.829787,2054,3314,1260,2054,0,106.762,1,normal
1780595611.112307,19.334245799997007,19491,0.041992,-0.045654,1.05127,2.389313,2.832061,-0.709924,1.053098,3.772715,2056,3319,1263,2056,1,106.762,14,normal
1780595611.145068,19.36700660000497,19523,0.045654,-0.012939,1.05249,1.251908,2.984733,-0.503817,1.053559,3.275628,2061,3326,1265,2061,0,106.762,1,normal
1780595611.17518,19.397118499997305,19554,0.026123,-0.04541,1.063232,1.068702,2.847328,-0.839695,1.064522,3.155074,2063,3330,1267,2063,0,106.762,0,normal
1780595611.2061558,19.428094400005648,19585,0.048096,-0.018311,1.049805,3.183206,3.160305,-0.320611,1.051065,4.497012,2066,3335,1269,2066,1,106.762,14,normal
1780595611.2369194,19.458858099998906,19616,0.033936,0.000488,1.04541,0.862595,2.969466,-0.969466,1.045961,3.240626,2071,3342,1271,2071,0,106.762,1,normal
1780595611.2689674,19.4909059000056,19647,0.030273,-0.03418,1.055664,2.030534,2.679389,-1.343511,1.056651,3.62039,2073,3346,1273,2073,0,106.762,0,normal
1780595611.2997942,19.52173279999988,19678,0.05957,-0.025879,1.059326,2.450382,3.419847,-0.496183,1.061315,4.236263,2077,3352,1275,2077,0,106.762,6,normal
1780595611.3311882,19.553126900005736,19710,0.047607,-0.007568,1.063721,0.671756,3.503817,-0.977099,1.064812,3.699015,2081,3358,1277,2081,0,108.0,0,normal
1780595611.3623238,19.58426230000623,19741,0.0354,-0.045166,1.043701,2.328244,2.832061,-0.419847,1.045278,3.690198,2083,3363,1280,2083,1,108.0,14,normal
1780595611.3935971,19.615535799995996,19772,0.045166,0.002441,1.065186,1.40458,2.465649,-0.366412,1.066145,2.861211,2089,3370,1281,2089,0,108.0,1,normal
1780595611.424078,19.646016500002588,19803,0.061279,-0.028564,1.062012,1.061069,2.770992,-1.007634,1.064162,3.133623,2091,3374,1283,2091,0,108.0,0,normal
1780595611.4540632,19.676001900006668,19834,0.046387,-0.023438,1.057373,3.10687,3.0,-0.328244,1.05865,4.331326,2094,3379,1285,2094,1,108.0,14,normal
1780595611.4833488,19.705287500008126,19864,0.061523,-0.009277,1.047607,1.29771,3.068702,-0.412214,1.049453,3.357217,2099,3386,1287,2099,0,108.0,1,normal
1780595611.5142615,19.736200100000133,19894,0.033203,-0.044678,1.056885,0.526718,2.755725,-0.916031,1.05835,2.951367,2101,3390,1289,2101,0,108.0,0,normal
1780595611.5459774,19.767915899996297,19925,0.044678,-0.043213,1.048828,3.335878,3.244275,-0.503817,1.050668,4.680516,2104,3395,1291,2104,1,108.0,14,normal
1780595611.576698,19.798636699997587,19956,0.04126,0.002441,1.042969,0.458015,2.526718,-0.824427,1.043787,2.696991,2109,3402,1293,2109,0,108.0,0,normal
1780595611.6088984,19.8308371000021,19987,0.033691,-0.042236,1.052002,1.923664,2.549618,-0.793893,1.053388,3.291094,2111,3406,1295,2111,0,108.303,0,normal
1780595611.6404216,19.862360200000694,20018,0.040771,-0.015137,1.053223,2.793893,3.381679,-0.419847,1.05412,4.40657,2115,3412,1297,2115,0,108.303,5,normal
1780595611.6701243,19.89206290000584,20050,0.069092,-0.010254,1.053955,1.0,3.587786,-1.290076,1.056267,3.941638,2118,3416,1298,2118,0,108.303,6,normal
1780595611.7008297,19.922768400007044,20080,0.054199,-0.040771,1.055908,2.412214,3.236641,-0.427481,1.058084,4.059232,2120,3421,1301,2120,1,108.303,14,normal
1780595611.7327726,19.95471130000078,20111,0.04541,-0.021729,1.060303,2.091603,2.740458,-0.259542,1.061497,3.457206,2124,3426,1302,2124,0,108.303,5,normal
1780595611.7640264,19.98596489999909,20142,0.037842,-0.006348,1.068115,1.007634,3.335878,-0.70229,1.068804,3.554802,2128,3432,1304,2128,0,108.303,0,normal
1780595611.7940154,20.015953900001477,20173,0.027832,-0.046387,1.038086,2.229008,2.755725,-0.442748,1.039494,3.571907,2130,3437,1307,2130,1,108.303,14,normal
1780595611.8256269,20.047565400003805,20205,0.04834,0.002686,1.047852,1.022901,3.007634,-1.022901,1.048969,3.337441,2135,3444,1309,2135,0,108.303,0,normal
1780595611.857389,20.079327600004035,20236,0.027588,-0.061279,1.055908,1.045802,2.503817,-1.061069,1.058045,2.913532,2137,3448,1311,2137,0,108.303,0,normal
1780595611.8879178,20.109856299997773,20267,0.051025,-0.018799,1.05835,3.022901,3.770992,-0.549618,1.059746,4.864195,2140,3453,1313,2140,1,103.571,14,normal
1780595611.9173603,20.139298800000688,20298,0.03125,-0.003174,1.044678,0.450382,2.374046,-1.335878,1.04515,2.76107,2145,3460,1315,2145,0,103.571,0,normal
1780595611.949241,20.17117960000178,20328,0.047363,-0.036621,1.058838,1.801527,2.580153,-0.748092,1.060529,3.234552,2147,3464,1317,2147,0,103.571,0,normal
1780595611.9805145,20.202453100006096,20359,0.060791,-0.018066,1.058838,2.839695,3.824427,-0.763359,1.060735,4.824192,2151,3470,1319,2151,0,103.571,6,normal
1780595612.011123,20.23306149999553,20390,0.054688,-0.02002,1.044189,0.59542,3.442748,-1.114504,1.045812,3.667309,2154,3474,1320,2154,0,103.571,6,normal
1780595612.0418167,20.263755299994955,20421,0.042725,-0.039307,1.06543,2.335878,3.045802,-0.618321,1.06701,3.887873,2156,3479,1323,2156,1,103.571,14,normal
1780595612.073972,20.2959106000053,20452,0.053955,-0.031738,1.051025,1.923664,2.580153,-0.526718,1.052888,3.261151,2161,3486,1325,2161,0,103.571,0,normal
1780595612.1049058,20.326844499999424,20484,0.043213,-0.020752,1.056641,0.641221,3.282443,-1.137405,1.057727,3.532603,2163,3490,1327,2163,0,103.571,0,normal
1780595612.1355836,20.357522300007986,20515,0.036377,-0.056152,1.054932,2.687023,2.961832,-0.328244,1.057051,4.012516,2165,3495,1330,2165,1,103.571,13,normal
1780595612.166229,20.388167600001907,20546,0.044922,-0.001221,1.04834,1.122137,2.687023,-0.847328,1.049303,3.032697,2170,3502,1332,2170,0,107.527,0,normal
1780595612.1986396,20.420578300007037,20577,0.01416,-0.060059,1.054932,1.038168,2.641221,-0.916031,1.056735,2.982106,2172,3506,1334,2172,0,107.527,1,normal
1780595612.228856,20.45079459999397,20608,0.042725,-0.017578,1.04834,3.137405,3.526718,-0.335878,1.049357,4.732215,2176,3512,1336,2176,0,107.527,6,normal
1780595612.2601278,20.482066299999133,20639,0.028564,-0.007813,1.050537,0.564886,2.717557,-1.251908,1.050954,3.044912,2180,3518,1338,2180,0,107.527,0,normal
1780595612.2935107,20.51544920000015,20670,0.042725,-0.048828,1.05127,2.167939,3.282443,-0.496183,1.05327,3.96492,2182,3522,1340,2182,0,107.527,1,normal
1780595612.3217762,20.543714800005546,20701,0.036865,-0.03125,1.054199,2.114504,2.847328,-0.496183,1.055306,3.581145,2187,3528,1341,2187,0,107.527,6,normal
1780595612.3529274,20.574866099996143,20732,0.050293,0.006836,1.059814,0.541985,3.89313,-1.206107,1.061029,4.111557,2191,3534,1343,2191,0,107.527,1,normal
1780595612.3839788,20.605917499997304,20763,0.041748,-0.053467,1.052734,2.21374,2.748092,-0.694656,1.054918,3.596554,2193,3539,1346,2193,1,107.527,15,normal
1780595612.4161355,20.638074100002996,20794,0.025391,-0.010254,1.056152,1.671756,2.465649,-0.519084,1.056507,3.023845,2199,3546,1347,2199,0,107.527,0,normal
1780595612.4463568,20.668295499999658,20825,0.037354,-0.048096,1.051025,0.381679,3.519084,-0.763359,1.052788,3.621098,2201,3550,1349,2201,0,111.111,1,normal
1780595612.4768782,20.698816699994495,20856,0.051514,-0.046631,1.046387,2.427481,2.961832,-0.458015,1.048691,3.856798,2203,3555,1352,2203,1,111.111,14,normal
1780595612.5084498,20.730388500000117,20887,0.041504,-0.005859,1.043701,0.458015,2.587786,-0.900763,1.044542,2.778091,2207,3560,1353,2207,0,111.111,5,normal
1780595612.538891,20.760829699996975,20918,0.030029,-0.052246,1.043945,1.167939,2.480916,-0.946565,1.045683,2.900864,2209,3564,1355,2209,0,111.111,0,normal
1780595612.570995,20.792933799995808,20949,0.05835,-0.017822,1.050781,3.022901,3.78626,-0.641221,1.052551,4.887213,2213,3570,1357,2213,0,111.111,6,normal
1780595612.6019435,20.823881999996956,20981,0.04541,-0.008789,1.051514,0.961832,2.89313,-1.465649,1.05253,3.382816,2217,3576,1359,2217,0,111.111,1,normal
1780595612.6340978,20.85603650000121,21012,0.056396,-0.050537,1.055908,2.534351,2.770992,-0.679389,1.05862,3.816137,2219,3581,1362,2219,1,111.111,14,normal
1780595612.6651504,20.887089099996956,21044,0.063232,0.006348,1.040283,1.618321,2.70229,-0.80916,1.042222,3.252088,2224,3588,1364,2224,0,111.111,0,normal
1780595612.6965144,20.918453000005684,21075,0.041748,-0.049072,1.049805,0.610687,2.801527,-0.78626,1.05178,2.973162,2226,3592,1366,2226,0,100.0,0,normal
1780595612.7276063,20.949544799994328,21106,0.054932,-0.044678,1.050293,2.503817,3.129771,-0.29771,1.052677,4.019104,2228,3597,1369,2228,1,100.0,14,normal
1780595612.7569673,20.978905800002394,21137,0.040283,0.003662,1.046387,1.08397,2.664122,-0.709924,1.047168,2.962521,2233,3604,1371,2233,0,100.0,1,normal
1780595612.7899299,21.01186840000446,21168,0.047607,-0.046387,1.067871,1.78626,2.496183,-0.977099,1.069938,3.221238,2235,3608,1373,2235,0,100.0,0,normal
1780595612.82001,21.041948600002797,21199,0.056885,-0.018066,1.064453,2.885496,3.450382,-0.458015,1.066125,4.521172,2239,3614,1375,2239,0,100.0,5,normal
1780595612.852028,21.07396660000086,21231,0.054199,-0.009277,1.057129,0.183206,3.129771,-1.114504,1.058558,3.327334,2243,3620,1377,2243,0,100.0,1,normal
1780595612.883744,21.105682499997783,21262,0.036865,-0.050781,1.049805,2.229008,2.587786,-0.648855,1.051678,3.476511,2245,3625,1380,2245,1,100.0,14,normal
1780595612.915184,21.13712260000466,21294,0.044189,-0.006104,1.053223,1.221374,2.450382,-0.59542,1.054167,2.801901,2250,3632,1382,2250,0,100.0,0,normal
1780595612.9471796,21.169118100006017,21325,0.033203,-0.05127,1.052246,0.870229,2.816794,-0.801527,1.054017,3.055172,2252,3636,1384,2252,0,104.0,0,normal
1780595612.9771662,21.199104900006205,21356,0.053467,-0.040039,1.056152,2.679389,2.877863,-0.503817,1.058262,3.964222,2254,3641,1387,2254,1,104.0,14,normal
1780595613.0067556,21.22869420000643,21387,0.029785,0.004883,1.046631,0.557252,2.412214,-1.496183,1.047066,2.892727,2259,3648,1389,2259,0,104.0,1,normal
1780595613.0376348,21.259573400006047,21417,0.032227,-0.05835,1.049072,0.862595,2.610687,-0.862595,1.051188,2.881636,2261,3652,1391,2261,0,104.0,0,normal
1780595613.0686977,21.290636200006702,21448,0.037842,-0.018311,1.046143,3.061069,3.351145,-0.351145,1.046987,4.55232,2264,3657,1393,2264,1,104.0,14,normal
1780595613.0999522,21.321890899998834,21479,0.039551,-0.010254,1.044922,0.557252,2.755725,-1.435114,1.04572,3.156597,2269,3664,1395,2269,0,104.0,0,normal
1780595613.131701,21.353639699998894,21510,0.029297,-0.029541,1.060059,2.091603,3.083969,-0.839695,1.060875,3.819785,2271,3668,1397,2271,0,104.0,0,normal
1780595613.162077,21.38401550000708,21541,0.046143,-0.033936,1.057373,2.312977,3.236641,-0.519084,1.058923,4.011877,2276,3674,1398,2276,0,104.0,6,normal
1780595613.1932185,21.415157099996577,21572,0.050537,-0.001709,1.056396,0.603053,3.679389,-1.099237,1.057606,3.887146,2280,3680,1400,2280,0,104.0,0,normal
1780595613.2228699,21.444808600004762,21602,0.05127,-0.050781,1.062256,2.480916,3.030534,-0.618321,1.064704,3.965022,2282,3684,1402,2282,1,108.303,0,normal
1780595613.2543397,21.476278200003435,21633,0.062012,-0.028809,1.052734,2.045802,2.778626,-0.793893,1.054953,3.540668,2287,3690,1403,2287,0,108.303,5,normal
1780595613.285285,21.507223599997815,21664,0.032471,-0.01001,1.06665,0.694656,3.458015,-1.152672,1.067192,3.71067,2291,3696,1405,2291,0,108.303,0,normal
1780595613.3171415,21.53908020000381,21695,0.030029,-0.051025,1.040772,2.206107,2.458015,-0.389313,1.042454,3.325704,2293,3701,1408,2293,1,108.303,14,normal
1780595613.3476071,21.569545799997286,21727,0.03833,-0.00293,1.050293,1.076336,2.496183,-0.900763,1.050996,2.863704,2297,3706,1409,2297,0,108.303,5,normal
1780595613.3784573,21.60039599999436,21758,0.025635,-0.054443,1.042725,0.984733,2.778626,-0.877863,1.04446,3.075891,2299,3710,1411,2299,0,108.303,0,normal
1780595613.409959,21.63189780000539,21789,0.064697,-0.019531,1.054443,3.083969,3.572519,0.038168,1.056607,4.719662,2302,3715,1413,2302,1,108.303,14,normal
1780595613.4419014,21.66384009999456,21820,0.037842,-0.014404,1.046143,0.503817,3.244275,-0.977099,1.046926,3.425474,2307,3722,1415,2307,0,108.303,0,normal
1780595613.4721284,21.694067000003997,21851,0.029541,-0.026123,1.056396,1.847328,2.59542,-0.870229,1.057132,3.302442,2309,3726,1417,2309,0,108.303,0,normal
1780595613.5041158,21.726054400001885,21882,0.044678,-0.034424,1.06543,2.145038,3.068702,-0.679389,1.066922,3.805219,2313,3732,1419,2313,0,110.714,5,normal
1780595613.5345347,21.7564732000028,21914,0.03833,-0.005127,1.05835,0.740458,3.29771,-0.824427,1.059056,3.478915,2317,3738,1421,2317,0,110.714,0,normal
1780595613.5649135,21.78685220000625,21944,0.051514,-0.04834,1.05127,2.412214,2.572519,-0.603053,1.05364,3.577751,2319,3743,1424,2319,1,110.714,14,normal
1780595613.596456,21.818394700007048,21976,0.038086,0.007813,1.05835,1.099237,2.59542,-0.534351,1.059063,2.868808,2322,3748,1426,2322,0,110.714,0,normal
1780595613.6273787,21.84931730000244,22006,0.032227,-0.010986,1.04834,0.877863,3.48855,-1.08397,1.048893,3.757075,2324,3752,1428,2324,0,110.714,0,normal
1780595613.6585014,21.88043990000733,22037,0.060303,-0.052246,1.052246,2.458015,2.755725,-0.10687,1.055267,3.694223,2326,3757,1431,2326,1,110.714,14,normal
1780595613.6884131,21.91035180000472,22068,0.053467,-0.003662,1.049072,1.21374,2.175573,-0.80916,1.05044,2.619356,2331,3764,1433,2331,0,110.714,0,normal
1780595613.7197149,21.941653500005486,22099,0.048096,-0.062988,1.054199,1.152672,2.473282,-0.854962,1.057174,2.8595,2333,3768,1435,2333,0,110.714,0,normal
1780595613.7509637,21.97290229999635,22130,0.050293,-0.021729,1.047119,3.015267,3.374046,-0.419847,1.048551,4.54448,2336,3773,1437,2336,1,110.714,13,normal
1780595613.7827568,22.004695399999036,22161,0.047607,-0.017578,1.04834,0.435114,2.992366,-1.206107,1.049567,3.255499,2341,3780,1439,2341,0,100.358,0,normal
1780595613.8144143,22.036352800001623,22192,0.052734,-0.044922,1.060059,1.78626,2.89313,-1.091603,1.06232,3.571067,2343,3784,1441,2343,0,100.358,1,normal
1780595613.8448527,22.066791300007026,22223,0.063965,-0.037598,1.05957,2.137405,3.030534,-0.236641,1.062165,3.715997,2348,3790,1442,2348,0,100.358,6,normal
1780595613.876307,22.098245700006373,22255,0.045654,-0.003662,1.067139,1.244275,3.358779,-1.015267,1.068121,3.722953,2352,3796,1444,2352,0,100.358,0,normal
1780595613.9067402,22.128678900000523,22286,0.027588,-0.04126,1.041504,2.435115,2.572519,-0.580153,1.042686,3.589459,2354,3801,1447,2354,1,100.358,14,normal
1780595613.9379148,22.159853400007705,22317,0.033203,-0.00293,1.053711,1.328244,2.969466,-0.320611,1.054238,3.268754,2360,3808,1448,2360,0,100.358,1,normal
1780595613.9686148,22.190553499996895,22348,0.011963,-0.047852,1.055664,0.694656,3.053435,-0.740458,1.056816,3.217808,2362,3812,1450,2362,0,100.358,1,normal
1780595614.006333,22.22827170000528,22385,0.047363,-0.026611,1.044678,3.21374,3.465649,-0.633588,1.046089,4.768677,2368,3820,1452,2368,0,100.358,0,normal
1780595614.0372434,22.259181999994325,22416,0.044434,-0.057617,1.047607,0.931298,2.78626,-0.847328,1.050131,3.057536,2370,3824,1454,2370,0,113.725,0,normal
1780595614.0698555,22.291794100005063,22447,0.066406,-0.010498,1.05127,3.198473,3.534351,-0.549618,1.053417,4.798328,2373,3829,1456,2373,1,113.725,14,normal
1780595614.0982485,22.32018720000633,22478,0.070801,-0.000244,1.047363,0.694656,2.648855,-1.030534,1.049754,2.925916,2378,3836,1458,2378,0,113.725,0,normal
1780595614.1302936,22.352232300007017,22509,0.052734,-0.049805,1.060791,1.816794,2.900763,-0.854962,1.063268,3.527907,2380,3840,1460,2380,0,113.725,0,normal
1780595614.1609786,22.38291709999612,22540,0.053467,-0.030029,1.064941,2.801527,3.709924,-0.496183,1.066706,4.675284,2384,3846,1462,2384,0,113.725,5,normal
1780595614.1930325,22.41497120000713,22572,0.032959,0.002686,1.060547,0.793893,3.687023,-1.007634,1.061062,3.90381,2387,3850,1463,2387,0,113.725,6,normal
1780595614.2244942,22.446432800003095,22603,0.036621,-0.047363,1.057861,2.503817,2.175573,-0.114504,1.059554,3.318934,2389,3855,1466,2389,1,113.725,14,normal
1780595614.2559786,22.477917299998808,22635,0.033447,0.009033,1.052734,1.274809,2.244275,-0.80916,1.053304,2.70493,2395,3862,1467,2395,0,113.725,1,normal
1780595614.2869546,22.50889320000715,22666,0.044189,-0.055664,1.059814,0.603053,2.458015,-0.977099,1.062195,2.712975,2397,3866,1469,2397,0,108.0,0,normal
1780595614.3172326,22.539171199998236,22697,0.060303,-0.018799,1.057861,2.755725,3.40458,-0.221374,1.059745,4.38568,2400,3871,1471,2400,1,108.0,14,normal
1780595614.3484485,22.570387200001278,22728,0.054932,-0.005859,1.045654,0.564886,2.671756,-1.366412,1.047112,3.053598,2405,3878,1473,2405,0,108.0,0,normal
1780595614.380724,22.6026625999948,22759,0.047607,-0.053711,1.052246,1.732824,2.587786,-0.618321,1.054691,3.17516,2407,3882,1475,2407,0,108.0,0,normal
1780595614.410444,22.63238270000147,22790,0.054688,-0.033447,1.055176,2.59542,3.618321,-0.572519,1.057121,4.489568,2411,3888,1477,2411,0,108.0,6,normal
1780595614.4405024,22.662441099993885,22820,0.028809,-0.009033,1.049805,0.236641,2.900763,-1.267176,1.050239,3.174297,2413,3892,1479,2413,0,108.0,0,normal
1780595614.4726567,22.694595299995854,22851,0.034668,-0.028809,1.056396,2.145038,3.022901,-0.587786,1.057358,3.752947,2415,3896,1481,2415,0,108.0,1,normal
1780595614.5028803,22.724818899994716,22882,0.044434,-0.031982,1.047363,1.992366,3.40458,-0.328244,1.048793,3.958337,2420,3902,1482,2420,0,108.0,6,normal
1780595614.5342343,22.75617290000082,22913,0.055664,-0.003418,1.069336,0.679389,3.473282,-1.328244,1.070789,3.780144,2424,3908,1484,2424,0,108.0,0,normal
1780595614.566036,22.787974599996232,22944,0.043213,-0.056152,1.046631,2.541985,2.229008,-0.480916,1.049026,3.414886,2426,3913,1487,2426,1,104.317,13,normal
1780595614.5969481,22.818886699998984,22976,0.036865,0.000977,1.056396,1.603053,2.534351,-0.412214,1.05704,3.026985,2432,3920,1488,2432,0,104.317,0,normal
1780595614.6297095,22.851648199997726,23007,0.032227,-0.049805,1.062256,0.694656,2.862595,-0.916031,1.063911,3.08482,2434,3924,1490,2434,0,104.317,1,normal
1780595614.66014,22.88207870000042,23038,0.061279,-0.044922,1.053955,2.908397,3.396947,-0.267176,1.05669,4.479889,2437,3929,1492,2437,1,104.317,13,normal
1780595614.688548,22.91048679999949,23069,0.043457,-0.007813,1.048584,0.465649,2.381679,-1.221374,1.049513,2.716796,2441,3934,1493,2441,0,104.317,6,normal
1780595614.7209933,22.942932000005385,23099,0.050781,-0.061523,1.051025,0.992366,2.160305,-0.992366,1.054048,2.576141,2443,3938,1495,2443,0,104.317,1,normal
1780595614.7516694,22.97360789999948,23130,0.058594,-0.013428,1.05835,2.648855,3.755725,-0.442748,1.060055,4.617134,2447,3944,1497,2447,0,104.317,6,normal
1780595614.782453,23.00439170000027,23162,0.048096,-0.007324,1.057129,0.633588,2.916031,-1.305344,1.058248,3.257083,2451,3950,1499,2451,0,104.317,0,normal
1780595614.814254,23.036192700004904,23193,0.049561,-0.044678,1.050293,2.374046,2.954198,-0.473282,1.05241,3.819343,2453,3955,1502,2453,1,104.317,13,normal
1780595614.8461695,23.06810810000752,23225,0.028564,-0.002197,1.051025,2.045802,2.763359,-0.366412,1.051416,3.457704,2459,3962,1503,2459,0,117.438,0,normal
1780595614.8767195,23.098658100003377,23256,0.042969,-0.007813,1.06543,0.564886,2.80916,-1.10687,1.066324,3.071748,2461,3966,1505,2461,0,117.438,1,normal
1780595614.908322,23.130260699996143,23287,0.058594,-0.038086,1.055664,2.580153,2.778626,-0.473282,1.057975,3.82125,2463,3971,1508,2463,1,117.438,13,normal
1780595614.9384592,23.16039780000574,23318,0.056641,0.002441,1.050293,1.076336,3.068702,-0.694656,1.051822,3.325354,2468,3978,1510,2468,0,117.438,0,normal
1780595614.97199,23.19392859999789,23349,0.037842,-0.055176,1.060547,0.748092,2.854962,-0.916031,1.062655,3.090236,2470,3982,1512,2470,0,117.438,1,normal
1780595615.0016499,23.223588499997277,23380,0.059082,-0.021484,1.057617,3.061069,3.687023,-0.290076,1.059484,4.800878,2474,3988,1514,2474,0,117.438,6,normal
1780595615.033367,23.255305500002578,23412,0.050293,-0.005859,1.058838,0.732824,3.358779,-1.442748,1.060048,3.728263,2477,3992,1515,2477,0,117.438,5,normal
1780595615.0644267,23.28636519999418,23443,0.045166,-0.046143,1.059326,2.305344,2.984733,-0.641221,1.061292,3.825494,2479,3997,1518,2479,1,117.438,13,normal
1780595615.0945895,23.316528099996503,23474,0.044678,-0.027588,1.056641,1.931298,2.419847,-0.961832,1.057944,3.24202,2483,4003,1520,2483,0,117.438,3,normal
1780595615.1266565,23.348595200004638,23505,0.05249,-0.007324,1.060547,0.992366,3.717557,-1.015267,1.06187,3.979421,2486,4008,1522,2486,0,96.429,1,normal
1780595615.1569524,23.378891100001056,23536,0.027588,-0.050049,1.037598,2.442748,2.664122,-0.564886,1.03917,3.658368,2488,4013,1525,2488,1,96.429,13,normal
1780595615.1877897,23.409728400001768,23567,0.038818,-0.003906,1.045654,1.320611,2.183206,-0.534351,1.046382,2.606901,2493,4020,1527,2493,0,96.429,0,normal
1780595615.2200546,23.44199330000265,23598,0.02002,-0.050293,1.046387,0.862595,2.709924,-0.89313,1.047786,2.980845,2495,4024,1529,2495,0,96.429,1,normal
1780595615.2513204,23.473259000005783,23629,0.044189,-0.020752,1.049316,2.679389,3.335878,-0.145038,1.050452,4.28115,2498,4029,1531,2498,1,96.429,14,normal
1780595615.281981,23.50391959999979,23660,0.039307,-0.010498,1.044922,0.816794,2.603053,-1.183206,1.045714,2.973721,2503,4036,1533,2503,0,96.429,0,normal
1780595615.3130107,23.53494939999655,23691,0.021484,-0.028809,1.059814,1.992366,2.587786,-0.885496,1.060424,3.383824,2505,4040,1535,2505,0,96.429,1,normal
1780595615.3439922,23.565930800003116,23722,0.04541,-0.026123,1.056641,2.183206,3.633588,-0.229008,1.057938,4.245208,2509,4046,1537,2509,0,96.429,6,normal
1780595615.374577,23.59651560000202,23753,0.03418,-0.013672,1.050049,0.541985,2.847328,-1.08397,1.050694,3.094514,2513,4052,1539,2513,0,96.429,1,normal
1780595615.4065082,23.628446899994742,23784,0.054199,-0.041748,1.049316,2.374046,3.099237,-0.312977,1.051544,3.916544,2515,4057,1542,2515,1,103.943,13,normal
1780595615.4377437,23.659682199999224,23816,0.026611,-0.023438,1.044434,1.900763,2.778626,-0.610687,1.045035,3.421491,2520,4064,1544,2520,0,103.943,0,normal
1780595615.468531,23.6904693999968,23847,0.048096,-0.021484,1.057373,0.679389,2.427481,-1.068702,1.058684,2.737948,2522,4068,1546,2522,0,103.943,1,normal
1780595615.4993484,23.721286900006817,23878,0.058594,-0.023438,1.045654,3.068702,3.236641,-0.862595,1.047557,4.54278,2524,4073,1549,2524,1,103.943,14,normal
1780595615.5308602,23.7527989000082,23909,0.047363,0.003174,1.049316,0.763359,2.885496,-1.038168,1.05039,3.160158,2528,4078,1550,2528,0,103.943,5,normal
1780595615.5624068,23.7843453999958,23940,0.054443,-0.06543,1.054443,1.358779,2.473282,-0.832061,1.057873,2.942062,2530,4082,1552,2530,0,103.943,1,normal
1780595615.592377,23.814315600000555,23971,0.049316,-0.014893,1.056885,3.015267,3.549618,-0.648855,1.058139,4.702408,2534,4088,1554,2534,0,103.943,6,normal
1780595615.6249475,23.84688620000088,24003,0.041504,-0.027344,1.05249,0.320611,3.656489,-1.061069,1.053663,3.820807,2538,4094,1556,2538,0,103.943,1,normal
1780595615.6554308,23.877369399997406,24034,0.044434,-0.042969,1.04248,2.381679,2.89313,-0.427481,1.044311,3.771649,2540,4099,1559,2540,1,100.0,14,normal
1780595615.6871426,23.90908130000753,24066,0.050781,0.002441,1.057373,1.51145,2.137405,-0.648855,1.058595,2.697034,2546,4106,1560,2546,0,100.0,1,normal
1780595615.718451,23.940389600000344,24097,0.058594,-0.017334,1.06665,0.641221,2.816794,-1.061069,1.068399,3.077558,2548,4110,1562,2548,0,100.0,1,normal
1780595615.749777,23.971715799998492,24128,0.049072,-0.023193,1.054932,2.816794,2.694656,-0.473282,1.056327,3.926767,2550,4115,1565,2550,1,100.0,14,normal
1780595615.7795687,24.001507399996626,24159,0.056885,0.001709,1.059082,1.236641,2.832061,-0.671756,1.06061,3.162453,2553,4120,1567,2553,0,100.0,1,normal
1780595615.8100147,24.03195330000017,24189,0.022705,-0.051025,1.053223,0.618321,2.633588,-0.740458,1.054702,2.804707,2555,4124,1569,2555,0,100.0,0,normal
1780595615.8410597,24.06299819999549,24220,0.036377,-0.014648,1.045898,2.931298,3.19084,-0.435114,1.046633,4.354686,2558,4129,1571,2558,1,100.0,14,normal
1780595615.8716266,24.09356530000514,24251,0.043945,-0.001465,1.03833,0.648855,3.221374,-1.358779,1.039261,3.555916,2563,4136,1573,2563,0,100.0,1,normal
1780595615.9032013,24.125139900002978,24281,0.027588,-0.039551,1.058838,1.358779,2.343511,-1.045802,1.059935,2.903795,2565,4140,1575,2565,0,100.0,0,normal
1780595615.9332309,24.155169499994372,24312,0.046143,-0.016357,1.053223,2.923664,3.366412,-0.267176,1.05436,4.466758,2569,4146,1577,2569,0,104.317,5,normal
1780595615.9646077,24.186546400000225,24343,0.032471,-0.011719,1.049316,0.21374,2.664122,-1.099237,1.049884,2.889906,2573,4152,1579,2573,0,104.317,1,normal
1780595615.9949143,24.216852900004596,24374,0.047852,-0.044189,1.068359,2.183206,2.816794,-0.572519,1.070343,3.609501,2575,4156,1581,2575,0,104.317,0,normal
1780595616.026264,24.248202600007062,24405,0.035645,-0.023438,1.047363,2.343511,3.045802,-0.534351,1.048232,3.880011,2580,4162,1582,2580,0,104.317,5,normal
1780595616.0563195,24.278258100006497,24436,0.027344,-0.004639,1.062012,0.847328,3.221374,-0.938931,1.062374,3.460752,2582,4166,1584,2582,0,104.317,0,normal
1780595616.090909,24.31284759999835,24467,0.031494,-0.04541,1.057129,2.374046,2.89313,-0.412214,1.058572,3.765132,2584,4171,1587,2584,1,104.317,14,normal
1780595616.1257856,24.347724100007326,24499,0.043701,-0.007568,1.043701,1.625954,2.496183,-0.51145,1.044643,3.022621,2589,4178,1589,2589,0,104.317,1,normal
1780595616.1513548,24.373293399999966,24530,0.039551,-0.057373,1.046631,1.175572,2.320611,-0.961832,1.048948,2.773504,2591,4182,1591,2591,0,104.317,0,normal
1780595616.182341,24.40427970000019,24561,0.057373,-0.02417,1.054443,2.656489,3.564885,-0.274809,1.05628,4.454308,2594,4187,1593,2594,1,104.317,14,normal
1780595616.2133694,24.435307899999316,24592,0.053467,-0.007324,1.045898,0.648855,3.229008,-1.152672,1.04729,3.489435,2599,4194,1595,2599,0,107.143,0,normal
