host_epoch_s,host_elapsed_s,time_ms,ax,ay,az,gx,gy,gz,acc_mag,gyro_mag,pulse_count,edge_count,rise_count,fall_count,state,pulse_rate_hz,last_edge_dt_ms,label
1780605404.434807,0.005382699993788265,157,0.064697,-0.054443,1.061035,1.290076,2.923664,-0.40458,1.064399,3.221148,10,16,6,10,0,0.0,5,damping
1780605404.4653091,0.03588479998870753,188,0.060791,-0.030518,1.042725,1.770992,2.534351,-1.122137,1.044941,3.289155,11,19,8,11,1,0.0,18,damping
1780605404.4965348,0.06711049999285024,219,0.065918,-0.016602,1.045898,1.80916,3.137405,-0.648855,1.048105,3.679318,15,24,9,15,0,0.0,5,damping
1780605404.527138,0.09771380000165664,250,0.040527,-0.030029,1.058838,1.961832,2.816794,-0.839695,1.060039,3.533865,16,26,10,16,0,64.0,5,damping
1780605404.5575273,0.12810289999470115,281,0.009277,-0.032471,1.04541,2.221374,2.847328,-1.045802,1.045955,3.759718,19,30,11,19,0,64.0,5,damping
1780605404.5893037,0.15987949998816475,312,0.047363,-0.030518,1.062988,1.465649,2.541985,-0.778626,1.06448,3.035798,20,32,12,20,0,64.0,5,damping
1780605404.6202548,0.19083049999608193,343,0.043945,-0.025879,1.04126,1.900763,2.465649,-0.870229,1.042508,3.232588,21,34,13,21,0,64.0,5,damping
1780605404.6539748,0.22455040000204463,374,0.048584,-0.028809,1.053223,1.854962,1.717557,-0.793893,1.054736,2.649746,24,38,14,24,0,64.0,5,damping
1780605404.682357,0.2529327999945963,405,0.01416,-0.013916,1.052002,2.061069,2.076336,-0.717557,1.052189,3.012319,27,42,15,27,0,64.0,5,damping
1780605404.7133899,0.2839657000004081,436,0.040527,-0.020752,1.05127,1.854962,3.229008,-1.10687,1.052255,3.884911,28,45,17,28,1,64.0,17,damping
1780605404.7444382,0.3150139999925159,467,0.046631,0.000977,1.046875,0.839695,3.648855,-0.534351,1.047913,3.782163,30,48,18,30,0,64.0,5,damping
1780605404.7755668,0.34614259999943897,498,0.026123,-0.030029,1.056152,1.778626,3.007634,-0.793893,1.056902,3.583244,31,50,19,31,0,64.0,5,damping
1780605404.8069155,0.3774911999935284,529,0.058594,-0.040527,1.052734,1.526718,2.748092,-0.114504,1.055142,3.145788,34,54,20,34,0,64.516,5,damping
1780605404.8383722,0.4089479999965988,561,0.025391,-0.025879,1.062012,1.427481,2.900763,-0.580153,1.06263,3.284617,35,56,21,35,0,64.516,4,damping
1780605404.8696833,0.44025889999466017,592,0.033447,-0.031738,1.045166,2.099237,2.48855,-1.030534,1.046182,3.41492,36,61,25,36,1,64.516,18,damping
1780605404.9014852,0.47206099999311846,623,0.067139,-0.024658,1.064209,1.458015,3.076336,-0.48855,1.06661,3.439234,38,64,26,38,0,64.516,5,damping
1780605404.93169,0.5022657999943476,654,0.014893,-0.026123,1.049316,1.961832,2.832061,-0.877863,1.049747,3.555277,39,66,27,39,0,64.516,5,damping
1780605404.9622495,0.5328251999890199,685,0.062744,-0.048096,1.060547,2.099237,3.061069,-0.534351,1.063489,3.749996,41,69,28,41,1,64.516,16,damping
1780605404.9939733,0.5645489000016823,716,0.04126,-0.030029,1.055908,1.167939,2.694656,-0.572519,1.057141,2.992162,43,72,29,43,0,64.516,5,damping
1780605405.024598,0.5951735999988159,747,0.060791,-0.036865,1.053223,1.503817,2.916031,-0.381679,1.05562,3.303086,45,76,31,45,0,64.516,0,damping
1780605405.0564697,0.627045499990345,778,0.013916,-0.018555,1.051514,1.534351,2.099237,-0.496183,1.051769,2.647117,48,80,32,48,0,64.516,5,damping
1780605405.086804,0.6573796000011498,810,0.056641,-0.029297,1.059082,1.366412,2.59542,-0.885496,1.061,3.063885,49,82,33,49,0,53.381,5,damping
1780605405.1177714,0.6883469999884255,840,0.017334,-0.016602,1.05127,1.984733,2.923664,-0.770992,1.051544,3.616822,50,85,35,50,1,53.381,18,damping
1780605405.1487746,0.719350300001679,871,0.061768,-0.016602,1.052002,1.961832,3.419847,-0.816794,1.053944,4.026325,52,88,36,52,0,53.381,5,damping
1780605405.180055,0.750630499998806,902,0.068359,-0.045898,1.064941,1.603053,3.290076,-0.725191,1.06812,3.73099,53,90,37,53,0,53.381,5,damping
1780605405.2113705,0.7819462999905227,933,0.052979,-0.034424,1.056641,1.938931,2.977099,-0.366412,1.058528,3.571671,57,96,39,57,0,53.381,5,damping
1780605405.2412913,0.8118668999959482,964,0.053711,-0.0271,1.051758,1.175572,2.801527,-0.40458,1.053477,3.064997,58,98,40,58,0,53.381,5,damping
1780605405.2726114,0.8431871999928262,995,0.025635,-0.018311,1.039062,1.961832,2.717557,0.167939,1.03954,3.355906,59,100,41,59,0,53.381,5,damping
1780605405.3037157,0.8742914999893401,1026,0.026611,-0.032959,1.05127,1.282443,2.824427,-0.709924,1.052123,3.182144,62,104,42,62,0,53.381,5,damping
1780605405.335032,0.905607599997893,1057,0.046631,-0.032471,1.046387,1.458015,2.572519,-0.541985,1.047928,3.006229,63,106,43,63,0,53.381,5,damping
1780605405.3673027,0.9378784000000451,1089,0.058838,-0.014648,1.060059,1.641221,3.656489,-1.19084,1.061791,4.181102,64,109,45,64,1,53.763,17,damping
1780605405.3979676,0.9685431999969296,1120,0.039307,-0.031982,1.042969,1.183206,2.694656,-0.557252,1.044199,2.995276,68,114,46,68,0,53.763,4,damping
1780605405.4286664,0.9992420999915339,1151,0.02832,-0.029785,1.04834,1.045802,3.221374,-0.458015,1.049145,3.417708,69,116,47,69,0,53.763,5,damping
1780605405.4605777,1.0311534999927972,1183,0.030762,-0.018799,1.056396,1.564886,2.145038,-0.389313,1.057011,2.683584,72,120,48,72,0,53.763,5,damping
1780605405.4921534,1.0627290999982506,1214,0.072021,-0.054443,1.064941,1.572519,2.473282,-1.030534,1.068762,3.106758,73,122,49,73,0,53.763,4,damping
1780605405.521881,1.0924566999892704,1245,0.025391,-0.03125,1.055176,1.854962,2.755725,-0.80916,1.055944,3.419012,74,125,51,74,1,53.763,17,damping
1780605405.552172,1.1227475999912713,1275,0.059326,-0.005615,1.060547,1.229008,3.244275,-1.099237,1.06222,3.639244,76,128,52,76,0,53.763,5,damping
1780605405.5830061,1.153581899998244,1306,0.036865,-0.024414,1.060059,1.656489,2.816794,-0.793893,1.06098,3.362818,77,130,53,77,0,53.763,4,damping
1780605405.6141355,1.1847112999967067,1337,0.029053,-0.036377,1.047363,1.763359,3.480916,-0.603053,1.048397,3.948403,79,133,54,79,1,53.763,16,damping
1780605405.6452212,1.21579699999711,1368,0.030518,-0.022461,1.049805,1.152672,2.480916,-0.664122,1.050488,2.815076,81,136,55,81,0,60.932,5,damping
1780605405.676652,1.2472275999898557,1399,0.049561,-0.048828,1.050781,1.48855,3.076336,-0.221374,1.053082,3.424709,82,138,56,82,0,60.932,5,damping
1780605405.7077472,1.2783228999905987,1430,0.037109,-0.02124,1.047363,1.610687,2.114504,-0.473282,1.048236,2.699895,85,142,57,85,0,60.932,5,damping
1780605405.7387366,1.3093124000006355,1461,0.045654,-0.034668,1.062012,1.450382,2.10687,-0.847328,1.063558,2.694527,86,144,58,86,0,60.932,5,damping
1780605405.770878,1.341453899993212,1493,0.041016,-0.018311,1.061523,2.083969,3.221374,-1.198473,1.062473,4.019517,87,147,60,87,1,60.932,18,damping
1780605405.8014503,1.3720259999972768,1524,0.038086,-0.007324,1.05127,1.21374,3.091603,-0.687023,1.051985,3.391633,89,150,61,89,0,60.932,5,damping
1780605405.8322196,1.4027952999895206,1555,0.053467,-0.03125,1.052978,1.801527,3.244275,-0.709924,1.054798,3.778202,91,154,63,91,0,60.932,0,damping
1780605405.8648586,1.4354344000021229,1586,0.061523,-0.023193,1.057617,1.793893,2.526718,0.137405,1.059659,3.101812,94,158,64,94,0,60.932,5,damping
1780605405.8947897,1.465365500000189,1618,0.037354,-0.033203,1.069824,1.29771,2.832061,-0.435114,1.070991,3.145464,95,160,65,95,0,56.0,5,damping
1780605405.9257,1.4962756000022637,1648,0.038086,-0.01709,1.044189,1.396947,2.541985,-0.312977,1.045024,2.917379,96,163,67,96,1,56.0,17,damping
1780605405.9555724,1.5261479999899166,1679,0.036865,-0.002686,1.05542,1.496183,3.053435,-0.862595,1.056067,3.508005,98,166,68,98,0,56.0,5,damping
1780605405.986666,1.5572416999930283,1709,0.017822,-0.018066,1.05957,1.671756,2.580153,-0.908397,1.059874,3.205798,99,168,69,99,0,56.0,5,damping
1780605406.0177999,1.5883755999966525,1740,0.042236,-0.027832,1.052734,2.381679,3.343511,-1.160305,1.053949,4.265885,101,173,72,101,1,56.0,14,damping
1780605406.0487583,1.6193339999881573,1771,0.049072,-0.016113,1.04834,1.465649,3.129771,-0.503817,1.049611,3.492481,104,178,74,104,0,56.0,0,damping
1780605406.080476,1.65105179999955,1802,0.028564,-0.035156,1.047363,1.442748,3.267176,-1.053435,1.048342,3.723666,105,180,75,105,0,56.0,5,damping
1780605406.1114995,1.6820752999919932,1834,0.050293,-0.0271,1.054688,2.007634,2.549618,-0.21374,1.056234,3.252204,108,184,76,108,0,56.0,6,damping
1780605406.1422265,1.7128021999960765,1865,0.046631,-0.018066,1.05127,1.10687,2.89313,-0.740458,1.052458,3.184908,109,186,77,109,0,56.0,5,damping
1780605406.1742995,1.7448752999916906,1896,0.023682,-0.02417,1.057861,1.519084,2.648855,-0.564886,1.058402,3.105341,110,189,79,110,1,53.957,18,damping
1780605406.2042086,1.7747842999960994,1927,0.049316,-0.006592,1.056396,1.549618,2.984733,-0.755725,1.057568,3.446892,114,194,80,114,0,53.957,5,damping
1780605406.2347558,1.8053314999997383,1958,0.039062,-0.022217,1.053955,2.015267,3.0,-0.473282,1.054913,3.6449,115,196,81,115,0,53.957,5,damping
1780605406.2666657,1.8372413999895798,1989,0.05542,-0.055664,1.057129,1.618321,3.183206,-0.59542,1.060043,3.620261,116,199,83,116,1,53.957,18,damping
1780605406.2967584,1.8673340999957873,2020,0.036621,-0.03418,1.057861,1.70229,2.381679,-0.603053,1.059047,2.988956,120,204,84,120,0,53.957,5,damping
1780605406.3285265,1.8991021999972872,2051,0.063965,-0.042725,1.049072,1.145038,3.175573,-0.343511,1.051888,3.393136,121,206,85,121,0,53.957,5,damping
1780605406.3598292,1.9304048999911174,2082,0.044922,-0.027344,1.053955,1.358779,2.664122,-0.305344,1.055266,3.00617,124,210,86,124,0,53.957,5,damping
1780605406.390337,1.960912800001097,2113,0.044678,-0.010498,1.058838,1.007634,2.648855,-0.832061,1.059832,2.953656,125,212,87,125,0,53.957,5,damping
1780605406.421963,1.9925386999966577,2144,0.027344,-0.027588,1.050537,1.816794,2.931298,-1.015267,1.051255,3.594999,126,215,89,126,1,53.957,17,damping
1780605406.4544978,2.025073600001633,2176,0.06543,-0.01709,1.054443,1.389313,3.083969,-0.748092,1.05661,3.464202,128,218,90,128,0,64.286,5,damping
1780605406.4850085,2.0555840999877546,2207,0.025879,-0.032471,1.054443,1.938931,3.206107,-0.770992,1.055261,3.825311,131,222,91,131,0,64.286,5,damping
1780605406.517936,2.088511699999799,2239,0.063721,-0.029297,1.05835,1.427481,2.633588,-0.351145,1.060671,3.016088,134,226,92,134,0,64.286,6,damping
1780605406.5489502,2.1195257999934256,2271,0.03418,-0.049561,1.063965,1.70229,2.580153,-1.198473,1.065667,3.315316,135,228,93,135,0,64.286,5,damping
1780605406.5805066,2.1510822999989614,2302,0.046387,-0.034668,1.055176,2.030534,3.267176,-1.007634,1.056764,3.976535,136,231,95,136,1,64.286,18,damping
1780605406.6114252,2.182000799992238,2334,0.055176,-0.017822,1.048828,1.259542,2.89313,-0.610687,1.05043,3.213967,138,234,96,138,0,64.286,5,damping
1780605406.6436327,2.214208299992606,2365,0.041016,-0.034424,1.06543,1.877863,2.801527,-1.053435,1.066774,3.533362,139,236,97,139,0,64.286,5,damping
1780605406.6912894,2.261865199994645,2397,0.037598,-0.023926,1.05542,1.442748,2.564885,-0.335878,1.05636,2.96192,142,240,98,142,0,64.286,5,damping
1780605406.7073379,2.2779135999880964,2429,0.060059,-0.046143,1.068848,1.51145,2.465649,-1.129771,1.071528,3.104882,143,242,99,143,0,59.289,4,damping
1780605406.7370536,2.307629299990367,2460,0.03833,-0.025146,1.056152,1.70229,2.961832,-1.328244,1.057147,3.665306,144,245,101,144,1,59.289,18,damping
1780605406.7681456,2.3387211999943247,2490,0.05957,-0.01001,1.058838,1.274809,3.022901,-0.969466,1.06056,3.420955,146,248,102,146,0,59.289,5,damping
1780605406.7991173,2.3696930000005523,2521,0.06543,-0.031738,1.05835,2.122137,3.061069,-1.10687,1.060845,3.885714,147,250,103,147,0,59.289,5,damping
1780605406.82962,2.4001957000000402,2552,0.040527,-0.046631,1.052002,1.832061,3.366412,-0.854962,1.053814,3.926848,150,255,105,150,1,59.289,4,damping
1780605406.8604627,2.4310382999974536,2583,0.011963,-0.022705,1.04248,1.274809,2.824427,-0.290076,1.042796,3.112342,152,258,106,152,0,59.289,5,damping
1780605406.8914068,2.4619823999964865,2614,0.037842,-0.032227,1.04541,1.290076,3.145038,-0.48855,1.046591,3.434275,153,260,107,153,0,59.289,5,damping
1780605406.9235063,2.4940818999893963,2645,0.039551,-0.030029,1.050537,1.206107,2.816794,-0.442748,1.05171,3.095973,156,264,108,156,0,59.289,5,damping
1780605406.9552433,2.525819099988439,2676,0.050781,-0.049561,1.069092,0.969466,3.175573,-0.29771,1.071444,3.33358,159,268,109,159,0,59.289,5,damping
1780605406.986038,2.5566136999987066,2707,0.03833,-0.026367,1.04248,1.801527,2.51145,-1.10687,1.043518,3.282993,160,271,111,160,1,61.151,18,damping
1780605407.0178287,2.588404399997671,2739,0.058594,-0.013672,1.063477,1.496183,3.656489,-0.755725,1.065177,4.022386,164,276,112,164,0,61.151,5,damping
1780605407.0485976,2.6191732000006596,2771,0.033447,-0.038818,1.057129,1.580153,3.610687,-0.694656,1.05837,4.002061,165,278,113,165,0,61.151,4,damping
1780605407.0801742,2.650749899999937,2802,0.060791,-0.032715,1.054199,1.656489,2.480916,-0.259542,1.056457,2.994372,169,284,115,169,0,61.151,5,damping
1780605407.1115587,2.6821343999909004,2833,0.067139,-0.023193,1.055908,1.351145,3.320611,-0.236641,1.058295,3.592777,171,288,117,171,0,61.151,1,damping
1780605407.1425133,2.7130888999963645,2864,0.057861,-0.021484,1.043945,1.51145,2.503817,-0.160305,1.045768,2.929041,172,291,119,172,1,61.151,17,damping
1780605407.1721687,2.7427444999921136,2895,0.035156,-0.007813,1.055664,1.687023,2.763359,-0.923664,1.056278,3.366802,174,294,120,174,0,61.151,5,damping
1780605407.204702,2.775277599997935,2926,0.023682,-0.017334,1.049316,1.793893,2.717557,-1.015267,1.049727,3.410856,177,298,121,177,0,61.151,5,damping
1780605407.2358346,2.80641019999166,2958,0.061768,-0.052734,1.059082,2.152672,3.160305,-0.442748,1.062192,3.849357,179,301,122,179,0,75.697,17,damping
1780605407.2682977,2.8388733999890974,2990,0.057373,-0.020508,1.05127,1.412214,3.435115,-0.312977,1.053034,3.72724,183,306,123,183,0,75.697,5,damping
1780605407.2987545,2.8693301000021165,3021,0.038818,-0.022705,1.03833,1.526718,2.740458,-0.007634,1.039303,3.137042,185,310,125,185,0,75.697,1,damping
1780605407.3304827,2.901058399991598,3052,0.033936,-0.031738,1.052734,1.89313,2.793893,-0.954198,1.053759,3.507175,188,314,126,188,0,75.697,5,damping
1780605407.3623402,2.932915999990655,3084,0.045166,-0.027588,1.05835,2.015267,2.549618,-0.916031,1.059672,3.376532,189,316,127,189,0,75.697,5,damping
1780605407.3941967,2.9647723999951268,3115,0.036133,-0.030273,1.050293,2.068702,3.572519,-0.908397,1.05135,4.22701,193,321,128,193,1,75.697,17,damping
1780605407.4241998,2.994775599989225,3147,0.047119,-0.031494,1.054688,1.480916,2.725191,-0.267176,1.056209,3.113063,196,326,130,196,0,75.697,0,damping
1780605407.4576042,3.0281797999923583,3178,0.034668,-0.013672,1.032227,1.251908,2.770992,-0.335878,1.032899,3.059164,197,328,131,197,0,75.697,5,damping
1780605407.4870596,3.057635199991637,3210,0.006348,-0.023926,1.052246,1.671756,2.519084,-1.007634,1.052537,3.186829,202,334,132,202,0,91.27,5,damping
1780605407.5186067,3.089182299998356,3241,0.036865,-0.024658,1.060059,1.450382,2.916031,-0.534351,1.060986,3.30036,203,336,133,203,0,91.27,5,damping
1780605407.550274,3.1208494999882532,3272,0.049316,-0.019775,1.061035,2.206107,2.900763,-1.282443,1.062365,3.863418,205,341,136,205,1,91.27,4,damping
1780605407.5801404,3.1507160999899497,3303,0.064453,-0.008545,1.060303,0.954198,2.931298,-0.534351,1.062294,3.128663,207,344,137,207,0,91.27,5,damping
1780605407.612143,3.1827187999879243,3334,0.053711,-0.023682,1.060547,1.961832,3.274809,-0.900763,1.06217,3.922312,209,348,139,209,0,91.27,0,damping
1780605407.6436033,3.2141790999885416,3365,0.046875,-0.033447,1.052734,1.847328,2.900763,-0.229008,1.054308,3.446664,212,352,140,212,0,91.27,5,damping
1780605407.6744976,3.2450734000012744,3396,0.050781,-0.014648,1.054199,1.549618,3.21374,-0.099237,1.055523,3.569214,213,354,141,213,0,91.27,5,damping
1780605407.7050314,3.2756069999886677,3427,0.030762,-0.015381,1.035156,1.465649,2.80916,-0.114504,1.035727,3.170586,215,359,144,215,1,91.27,3,damping
1780605407.7352386,3.3058141999936197,3458,0.044922,-0.00293,1.047363,1.396947,3.038168,-1.022901,1.04833,3.496892,217,362,145,217,0,91.27,5,damping
1780605407.7831228,3.353698399994755,3489,0.033936,-0.024658,1.056152,1.801527,2.236641,-0.946565,1.056985,3.023912,218,364,146,218,0,57.348,5,damping
1780605407.7975857,3.3681613999942783,3520,0.040771,-0.019287,1.059814,2.160305,3.435115,-1.541985,1.060774,4.341042,219,367,148,219,1,57.348,17,damping
1780605407.8284128,3.3989884999900823,3551,0.050781,-0.002441,1.057617,1.045802,2.755725,-0.832061,1.058838,3.062686,221,370,149,221,0,57.348,5,damping
1780605407.859439,3.430014500001562,3582,0.047852,-0.022949,1.050781,1.480916,3.206107,-0.793893,1.052121,3.619738,222,372,150,222,0,57.348,4,damping
1780605407.890793,3.4613688999961596,3613,0.044922,-0.033691,1.053223,1.80916,2.603053,-0.412214,1.054718,3.196696,226,378,152,226,0,57.348,5,damping
1780605407.9226534,3.4932291000004625,3644,0.04126,-0.012939,1.053955,1.21374,3.068702,-0.175573,1.054842,3.304682,227,380,153,227,0,57.348,5,damping
1780605407.9539332,3.5245088999945438,3675,0.0271,-0.02417,1.03833,1.419847,2.679389,-0.236641,1.038965,3.041561,228,383,155,228,1,57.348,17,damping
1780605407.9825823,3.5531579999951646,3706,0.039551,-0.000732,1.057129,1.824428,2.59542,-1.10687,1.057869,3.360045,230,386,156,230,0,57.348,5,damping
1780605408.0147505,3.5853262999880826,3736,0.023682,-0.016846,1.053223,1.167939,2.709924,-0.549618,1.053624,3.001641,231,388,157,231,0,57.348,5,damping
1780605408.046321,3.616896599996835,3768,0.035889,-0.018555,1.054688,2.145038,3.389313,-1.274809,1.055461,4.208772,232,391,159,232,1,50.179,17,damping
1780605408.076865,3.647440699991421,3799,0.049805,-0.029297,1.050781,1.366412,2.641221,-0.709924,1.052369,3.057307,234,394,160,234,0,50.179,5,damping
1780605408.10876,3.679335799999535,3830,0.043701,-0.035645,1.042236,0.778626,3.732824,-0.335878,1.043761,3.82793,235,396,161,235,0,50.179,5,damping
1780605408.1398778,3.7104533999954583,3862,0.033691,-0.030029,1.054688,1.549618,2.70229,-0.458015,1.055653,3.148566,238,400,162,238,0,50.179,5,damping
1780605408.1728,3.7433756999962498,3893,0.051025,-0.033203,1.060059,1.458015,3.122137,-0.625954,1.061805,3.502195,239,402,163,239,0,50.179,5,damping
1780605408.2026083,3.7731839999905787,3924,0.056152,-0.019043,1.057129,1.946565,2.557252,-1.114504,1.05879,3.401584,240,405,165,240,1,50.179,18,damping
1780605408.2340121,3.8045877999975346,3955,0.056641,-0.02417,1.059326,1.656489,2.694656,-0.992366,1.061115,3.315104,242,408,166,242,0,50.179,5,damping
1780605408.263788,3.834363599991775,3986,0.043945,-0.019775,1.05957,1.381679,2.526718,-0.824427,1.060666,2.9955,245,412,167,245,0,50.179,5,damping
1780605408.2957788,3.8663544000010006,4017,0.043457,-0.029541,1.050049,2.229008,3.633588,0.007634,1.051363,4.262804,248,416,168,248,0,50.179,5,damping
1780605408.3249798,3.895555399998557,4048,0.016357,-0.017822,1.047607,1.312977,3.29771,-0.59542,1.047887,3.599073,249,418,169,249,0,60.714,4,damping
1780605408.3574657,3.9280413999949815,4079,0.044434,-0.037109,1.039795,1.610687,3.083969,0.022901,1.041405,3.479325,250,420,170,250,0,60.714,5,damping
1780605408.3885221,3.9590978999913204,4110,0.043457,-0.032715,1.05249,1.282443,2.656489,-0.748092,1.053895,3.043227,253,424,171,253,0,60.714,5,damping
1780605408.4205358,3.991111600000295,4142,0.031738,-0.017334,1.05249,1.312977,2.763359,-0.587786,1.053111,3.115374,254,426,172,254,0,60.714,5,damping
1780605408.4516284,4.022204099994269,4173,0.04126,-0.01709,1.054932,2.10687,3.053435,-1.40458,1.055876,3.966764,256,431,175,256,1,60.714,18,damping
1780605408.482816,4.053391599998577,4204,0.039551,0.004883,1.05127,1.152672,2.70229,-0.931298,1.052025,3.081938,259,436,177,259,0,60.714,1,damping
1780605408.512197,4.0827728000003844,4234,0.030029,-0.039307,1.059326,1.946565,2.709924,-1.045802,1.06048,3.496641,260,438,178,260,0,60.714,5,damping
1780605408.5433624,4.113938199996483,4265,0.036621,-0.026123,1.048828,2.160305,3.763359,-0.580153,1.049792,4.37794,264,444,180,264,0,60.714,5,damping
1780605408.5740192,4.144594899989897,4296,0.030518,-0.024414,1.051758,1.282443,3.206107,-0.419847,1.052484,3.478513,265,446,181,265,0,60.714,5,damping
1780605408.605599,4.176174699998228,4327,0.056885,-0.04248,1.046387,1.641221,3.129771,-0.068702,1.048792,3.534656,267,450,183,267,0,64.516,0,damping
1780605408.6369152,4.20749089999299,4358,0.032715,-0.037598,1.050781,1.48855,2.854962,-0.229008,1.051962,3.227852,270,454,184,270,0,64.516,5,damping
1780605408.6689625,4.239538099995116,4390,0.051025,-0.026611,1.054932,1.183206,2.78626,-0.793893,1.0565,3.129455,272,458,186,272,0,64.516,0,damping
1780605408.700563,4.271138600000995,4421,0.041016,-0.009277,1.060791,1.877863,3.160305,-1.21374,1.061624,3.871313,273,461,188,273,1,64.516,18,damping
1780605408.7302856,4.300861399999121,4452,0.038086,-0.027832,1.056885,1.061069,2.51145,-0.816794,1.057937,2.84612,277,466,189,277,0,64.516,5,damping
1780605408.762804,4.333379699994111,4484,0.08252,-0.056885,1.055176,1.603053,3.541985,-0.206107,1.059925,3.893317,278,468,190,278,0,64.516,4,damping
1780605408.7926638,4.363239599988447,4515,0.062256,-0.033203,1.053223,1.557252,3.022901,-0.526718,1.055583,3.440987,282,474,192,282,0,64.516,5,damping
1780605408.8232312,4.393807000000379,4546,0.073975,-0.030273,1.064941,1.198473,3.40458,-0.206107,1.067937,3.615244,283,476,193,283,0,64.516,5,damping
1780605408.8539174,4.424493099999381,4576,0.050049,-0.036865,1.048828,1.08397,2.625954,0.0,1.050668,2.840885,285,481,196,285,1,64.516,14,damping
1780605408.8849354,4.4555110999936005,4607,0.052002,-0.010986,1.060303,1.519084,2.824427,-1.053435,1.061634,3.375608,288,486,198,288,0,75.0,0,damping
1780605408.9154663,4.4860420999903,4638,0.045898,-0.008789,1.060547,1.549618,2.396947,-0.503817,1.061576,2.898362,289,488,199,289,0,75.0,5,damping
1780605408.9455094,4.516085099996417,4668,0.038086,-0.018799,1.05127,1.992366,2.725191,-1.183206,1.052127,3.577173,290,491,201,290,1,75.0,17,damping
1780605408.9764862,4.547061899997061,4699,0.044922,-0.001465,1.065918,0.793893,3.160305,-0.793893,1.066865,3.353813,294,496,202,294,0,75.0,5,damping
1780605409.006231,4.576806799988844,4729,0.040771,-0.025879,1.062988,1.770992,2.961832,-0.740458,1.064085,3.529468,295,498,203,295,0,75.0,4,damping
1780605409.0379224,4.608498199988389,4760,0.029785,-0.019043,1.060303,1.816794,3.129771,-1.21374,1.060892,3.816985,298,503,205,298,1,75.0,13,damping
1780605409.0687144,4.639290199993411,4791,0.047852,-0.020996,1.052246,1.312977,2.29771,-0.51145,1.053543,2.695359,301,508,207,301,0,75.0,0,damping
1780605409.1001542,4.670729799996479,4822,0.060547,-0.061279,1.054688,1.824428,3.061069,-0.396947,1.0582,3.58556,302,510,208,302,0,75.0,5,damping
1780605409.1304476,4.701023299989174,4853,0.052002,-0.0271,1.048584,1.51145,2.671756,-0.198473,1.050222,3.076061,305,514,209,305,0,75.0,5,damping
1780605409.161998,4.732573799992679,4884,0.034912,-0.038086,1.060059,1.541985,2.80916,-0.496183,1.061317,3.24273,306,516,210,306,0,64.982,5,damping
1780605409.1947432,4.765318799996749,4916,0.057129,-0.022217,1.070068,1.969466,2.801527,-1.358779,1.071822,3.68424,307,519,212,307,1,64.982,17,damping
1780605409.2241416,4.7947171999985585,4947,0.054932,-0.007568,1.048584,1.244275,2.709924,-1.122137,1.050049,3.186079,309,522,213,309,0,64.982,5,damping
1780605409.2556825,4.8262582999886945,4978,0.039551,-0.032227,1.054443,1.862595,2.366412,-0.938931,1.055677,3.154483,310,524,214,310,0,64.982,5,damping
1780605409.2872114,4.857787199987797,5009,0.048584,-0.037354,1.065674,2.251908,2.862595,-0.534351,1.067434,3.681178,313,528,215,313,0,64.982,5,damping
1780605409.3184013,4.888977099995827,5040,0.032227,-0.021484,1.059326,1.419847,2.900763,-0.648855,1.060034,3.294148,316,532,216,316,0,64.982,5,damping
1780605409.3494473,4.920022899998003,5071,0.048584,-0.019043,1.043457,1.381679,2.900763,-0.091603,1.044761,3.214321,317,534,217,317,0,64.982,4,damping
1780605409.3806179,4.951193599990802,5102,0.016113,-0.021484,1.049805,1.59542,2.946565,-0.580153,1.050148,3.400616,320,538,218,320,0,64.982,5,damping
1780605409.410774,4.981349699999555,5133,0.044434,-0.009766,1.06543,1.435114,2.847328,-0.549618,1.0664,3.23557,321,540,219,321,0,64.982,5,damping
1780605409.442019,5.012594599989825,5164,0.064209,-0.024414,1.061035,1.847328,2.671756,-1.381679,1.063256,3.529864,322,543,221,322,1,57.143,17,damping
1780605409.4729774,5.043553199997405,5195,0.062012,-0.009521,1.061523,1.412214,2.80916,-0.877863,1.063376,3.26441,324,546,222,324,0,57.143,5,damping
1780605409.503541,5.0741166999941925,5226,0.054443,-0.027832,1.071289,1.717557,2.183206,-1.40458,1.073033,3.112754,327,550,223,327,0,57.143,5,damping
1780605409.5356653,5.106241000001319,5257,0.040283,-0.02124,1.053223,1.78626,3.671756,-0.435114,1.054207,4.106317,330,554,224,330,0,57.143,6,damping
1780605409.567715,5.138290599992615,5289,0.033447,-0.013916,1.061523,1.137405,3.473282,-0.396947,1.062141,3.676268,331,556,225,331,0,57.143,5,damping
1780605409.598876,5.169451699999627,5321,0.027344,-0.03418,1.047119,1.656489,2.229008,-1.08397,1.048034,2.981178,333,561,228,333,1,57.143,14,damping
1780605409.6307437,5.201319399988279,5352,0.061523,-0.011719,1.060791,1.580153,3.007634,-0.603053,1.062638,3.450568,335,564,229,335,0,57.143,5,damping
1780605409.6619065,5.2324822999944445,5383,0.033936,-0.014404,1.063965,1.641221,2.557252,-0.923664,1.064603,3.175894,336,566,230,336,0,57.143,5,damping
1780605409.6940117,5.264587400000892,5415,0.053955,-0.02124,1.053467,1.564886,3.389313,-0.534351,1.055061,3.771186,339,570,231,339,0,67.729,5,damping
1780605409.7292132,5.299788999996963,5447,0.036865,-0.012695,1.056152,1.206107,3.389313,-0.152672,1.056872,3.600756,341,574,233,341,0,67.729,0,damping
1780605409.756768,5.327343799988739,5478,0.021729,-0.037598,1.046387,1.580153,2.519084,-0.557252,1.047287,3.025425,342,577,235,342,1,67.729,18,damping
1780605409.7864099,5.356985499995062,5509,0.054443,-0.002686,1.053711,1.664122,3.022901,-0.763359,1.05512,3.534112,346,582,236,346,0,67.729,5,damping
1780605409.8244557,5.395031399995787,5540,0.02124,-0.020508,1.04834,1.671756,3.099237,-0.694656,1.048756,3.589232,347,584,237,347,0,67.729,5,damping
1780605409.8549573,5.4255331000022124,5577,0.05127,-0.009766,1.057129,1.435114,3.10687,-1.114504,1.058416,3.59921,351,590,239,351,0,67.729,5,damping
1780605409.8858335,5.456409299993538,5608,0.020264,-0.01416,1.059082,1.351145,3.076336,-0.732824,1.05937,3.438963,352,592,240,352,0,67.729,5,damping
1780605409.9160552,5.486630799990962,5639,0.013916,-0.009033,1.056885,1.374046,3.221374,-1.152672,1.057015,3.686992,355,597,242,355,1,67.729,14,damping
1780605409.9473436,5.517919299993082,5669,0.011475,-0.025879,1.049316,1.381679,2.656489,-1.198473,1.049698,3.225261,358,602,244,358,0,74.803,1,damping
1780605409.9775198,5.548095399994054,5700,0.002197,-0.015869,1.058838,2.030534,2.21374,-1.312977,1.058959,3.278357,359,604,245,359,0,74.803,5,damping
1780605410.0088632,5.579438899992965,5731,0.048096,-0.014404,1.056152,2.083969,3.274809,-0.351145,1.057345,3.897513,362,608,246,362,0,74.803,5,damping
1780605410.040122,5.610697799987975,5762,0.030273,-0.02124,1.054443,2.099237,2.916031,-0.290076,1.055092,3.604744,363,610,247,363,0,74.803,4,damping
1780605410.07232,5.642895699988003,5793,0.041504,-0.028564,1.046875,1.526718,3.19084,0.122137,1.048087,3.539385,364,613,249,364,1,74.803,18,damping
1780605410.1042097,5.674785299997893,5825,0.048584,-0.017578,1.05249,1.412214,3.015267,-0.633588,1.053758,3.389339,368,618,250,368,0,74.803,5,damping
1780605410.1349702,5.705545999997412,5857,0.048096,-0.023438,1.065918,1.358779,2.572519,-0.984733,1.06726,3.071454,369,620,251,369,0,74.803,5,damping
1780605410.166325,5.736900799995055,5888,0.025146,-0.05249,1.055176,2.053435,3.145038,-0.59542,1.05678,3.802944,372,624,252,372,0,74.803,5,damping
1780605410.198582,5.769157599992468,5920,0.025391,-0.011963,1.052246,1.458015,2.801527,-0.557252,1.05262,3.207006,375,628,253,375,0,67.729,5,damping
1780605410.2294538,5.800029499994707,5951,0.023438,-0.02002,1.038818,1.038168,2.847328,0.091603,1.039276,3.032072,376,631,255,376,1,67.729,17,damping
1780605410.2606683,5.831244000000879,5982,0.021973,-0.013916,1.050293,1.610687,3.343511,-0.534351,1.050615,3.749522,378,634,256,378,0,67.729,5,damping
1780605410.2907112,5.861286899991683,6013,0.015625,-0.011475,1.054932,1.312977,3.19084,-0.366412,1.05511,3.469816,379,636,257,379,0,67.729,4,damping
1780605410.3216748,5.892250599994441,6044,0.052002,-0.006836,1.053467,2.534351,2.625954,-1.053435,1.054772,3.79846,380,639,259,380,1,67.729,18,damping
1780605410.3525872,5.923162899998715,6075,0.052734,-0.020752,1.05835,1.045802,2.40458,-0.984733,1.059866,2.800965,382,642,260,382,0,67.729,5,damping
1780605410.384758,5.9553336999961175,6106,0.044922,-0.02832,1.05249,1.923664,2.549618,-1.618321,1.053829,3.580502,385,646,261,385,0,67.729,5,damping
1780605410.4169488,5.987524500000291,6137,0.04126,-0.023926,1.059814,2.022901,2.847328,-0.366412,1.060887,3.511932,388,650,262,388,0,67.729,5,damping
1780605410.446682,6.017257799991057,6168,0.048096,-0.014893,1.05542,1.824428,3.167939,-0.587786,1.05662,3.702684,389,652,263,389,0,67.729,5,damping
1780605410.4773555,6.04793129999598,6199,0.040283,-0.016602,1.039795,1.59542,2.793893,-0.496183,1.040707,3.255365,391,657,266,391,1,57.348,14,damping
1780605410.509274,6.079849699992337,6231,0.064209,-0.020264,1.059326,1.221374,3.022901,-0.648855,1.061464,3.324259,393,660,267,393,0,57.348,5,damping
1780605410.539803,6.110378799989121,6262,0.026367,-0.0271,1.051514,1.778626,2.931298,-0.366412,1.052193,3.448228,394,662,268,394,0,57.348,5,damping
1780605410.5707479,6.141323599993484,6293,0.0271,-0.039062,1.058838,1.519084,3.412214,-0.969466,1.059905,3.858845,396,665,269,396,1,57.348,18,damping
1780605410.6020653,6.172640999997384,6324,0.03833,-0.02417,1.0625,1.534351,2.19084,-0.89313,1.063466,2.819875,399,670,271,399,0,57.348,1,damping
1780605410.6331298,6.203705499996431,6355,0.032715,-0.023438,1.041016,1.748092,2.977099,-0.70229,1.041793,3.523089,400,672,272,400,0,57.348,5,damping
1780605410.6642246,6.234800299993367,6386,0.014404,-0.020996,1.052002,1.587786,2.900763,-0.305344,1.05231,3.320953,404,678,274,404,0,57.348,5,damping
1780605410.6957052,6.266280999989249,6417,0.037842,-0.034424,1.063477,1.259542,3.458015,-0.229008,1.064706,3.687378,405,680,275,405,0,57.348,5,damping
1780605410.7254431,6.296018799999729,6448,0.000732,-0.018555,1.038086,1.305344,3.351145,-0.465649,1.038252,3.62642,407,685,278,407,1,57.348,4,damping
1780605410.7572303,6.327806100001908,6479,0.070068,-0.036377,1.060791,1.870229,3.412214,-0.557252,1.063725,3.930838,409,688,279,409,0,64.286,5,damping
1780605410.789143,6.3597188999992795,6511,0.035889,-0.036133,1.055664,2.290076,2.534351,-0.625954,1.056892,3.472636,411,692,281,411,0,64.286,0,damping
1780605410.8212996,6.391875199988135,6542,0.042236,-0.031006,1.060303,2.061069,3.48855,-0.51145,1.061596,4.084062,414,696,282,414,0,64.286,5,damping
1780605410.8526542,6.423230000000331,6574,0.071533,-0.017822,1.055908,1.175572,2.89313,-0.526718,1.058478,3.166955,417,700,283,417,0,64.286,5,damping
1780605410.8845613,6.4551368999964325,6606,0.010254,-0.025879,1.044922,1.419847,3.007634,-0.633588,1.045293,3.385744,418,703,285,418,1,64.286,18,damping
1780605410.916088,6.486663799994858,6638,0.066406,-0.017822,1.053955,1.038168,3.129771,-0.618321,1.056195,3.354934,420,706,286,420,0,64.286,5,damping
1780605410.946894,6.517469599988544,6669,0.052734,-0.029785,1.06665,1.625954,3.167939,-0.748092,1.068368,3.638572,421,708,287,421,0,64.286,5,damping
1780605410.9775205,6.5480962000001455,6700,0.053955,-0.025635,1.059326,2.0,3.091603,-0.679389,1.061009,3.744273,425,714,289,425,0,64.286,5,damping
1780605411.0094721,6.580047899988131,6731,0.031738,-0.033691,1.053711,1.412214,2.885496,-0.267176,1.054727,3.223634,426,716,290,426,0,67.46,5,damping
1780605411.0398188,6.610394399991492,6762,0.051758,-0.032715,1.043213,2.068702,3.0,-0.40458,1.045008,3.666499,427,718,291,427,0,67.46,4,damping
1780605411.0717928,6.642368499989971,6793,0.030518,-0.020508,1.049805,1.633588,2.572519,-0.419847,1.050448,3.076156,431,724,293,431,0,67.46,5,damping
1780605411.1015878,6.672163399998681,6824,0.051758,-0.04126,1.062256,1.519084,2.900763,-0.305344,1.064316,3.288659,432,726,294,432,0,67.46,4,damping
1780605411.133177,6.703752699992037,6855,0.040039,-0.029541,1.061279,1.763359,3.229008,-0.801527,1.062445,3.765418,433,729,296,433,1,67.46,18,damping
1780605411.1645806,6.73515629999747,6886,0.052979,-0.024658,1.049561,1.358779,3.267176,-0.770992,1.051186,3.621484,435,732,297,435,0,67.46,5,damping
1780605411.195086,6.765661799989175,6917,0.056152,-0.030762,1.061523,1.725191,2.694656,-1.099237,1.063453,3.383161,436,734,298,436,0,67.46,5,damping
1780605411.2270136,6.797589199995855,6948,0.05957,-0.043945,1.062744,2.122137,2.938931,-0.648855,1.065319,3.682634,439,738,299,439,0,67.46,5,damping
1780605411.2572935,6.827869200002169,6980,0.036865,-0.004639,1.053711,1.633588,2.389313,-0.587786,1.054366,2.953459,442,742,300,442,0,67.46,4,damping
1780605411.2891054,6.859681099987938,7011,0.033691,-0.005859,1.037354,1.59542,2.465649,-0.59542,1.037917,2.99655,443,745,302,443,1,60.714,18,damping
1780605411.3202534,6.890828999996302,7042,0.046875,-0.019287,1.061523,1.725191,3.541985,-0.458015,1.062733,3.966323,447,750,303,447,0,60.714,5,damping
1780605411.3519351,6.922510899996269,7074,0.044434,-0.016602,1.054199,1.862595,2.687023,-0.343511,1.055266,3.287454,449,754,305,449,0,60.714,0,damping
1780605411.3832762,6.953851999991457,7105,0.052734,-0.01416,1.059082,1.709924,3.725191,-0.78626,1.060489,4.173618,451,757,306,451,1,60.714,17,damping
1780605411.4140162,6.984591999993427,7136,0.041504,-0.024658,1.056396,1.221374,2.618321,-0.564886,1.057499,2.943884,453,760,307,453,0,60.714,5,damping
1780605411.4450507,7.01562649999687,7167,0.020264,-0.035156,1.059814,0.694656,3.137405,-0.732824,1.060591,3.29589,456,764,308,456,0,60.714,5,damping
1780605411.4770837,7.047659499992733,7198,0.013916,-0.019775,1.047363,1.236641,2.48855,-0.282443,1.047642,2.793194,459,768,309,459,0,60.714,5,damping
1780605411.5087206,7.079296299998532,7230,0.057129,-0.046875,1.056152,1.328244,3.015267,-0.40458,1.058734,3.319601,462,772,310,462,0,60.714,5,damping
1780605411.539257,7.109832699992694,7261,0.037109,-0.034912,1.044434,1.80916,3.083969,-0.862595,1.045676,3.678043,464,777,313,464,1,84.0,14,damping
1780605411.569479,7.140054699993925,7292,0.047852,-0.014648,1.050049,1.427481,3.442748,-0.557252,1.051241,3.768388,466,780,314,466,0,84.0,5,damping
1780605411.6021762,7.172751799997059,7323,0.043945,-0.016357,1.063721,1.458015,2.770992,-0.610687,1.064754,3.190164,467,782,315,467,0,84.0,5,damping
1780605411.6329236,7.203499399998691,7354,0.053711,-0.027588,1.055908,1.977099,3.053435,-0.473282,1.057633,3.668294,470,786,316,470,0,84.0,5,damping
1780605411.6638718,7.2344473999983165,7386,0.048096,-0.004639,1.062256,1.381679,2.48855,-0.877863,1.063354,2.978684,472,790,318,472,0,84.0,0,damping
1780605411.6961217,7.266697400002158,7417,0.063232,-0.017334,1.046143,1.458015,2.824427,0.129771,1.048195,3.181201,473,793,320,473,1,84.0,18,damping
1780605411.7257345,7.296310299992911,7448,0.055908,-0.030029,1.050537,1.59542,2.51145,-0.755725,1.052452,3.069832,475,796,321,475,0,84.0,4,damping
1780605411.7574608,7.328036599996267,7479,0.027832,-0.031494,1.051025,1.48855,3.068702,-0.396947,1.051865,3.433698,476,798,322,476,0,84.0,5,damping
1780605411.7893672,7.3599429999885615,7511,0.048584,-0.024414,1.063232,1.900763,3.152672,-0.801527,1.064622,3.767584,477,803,326,477,1,52.0,17,damping
1780605411.8198714,7.39044709999871,7542,0.045654,-0.026123,1.050049,0.992366,2.694656,-0.847328,1.051365,2.993982,479,806,327,479,0,52.0,5,damping
1780605411.8509908,7.421566499993787,7573,0.051514,-0.032715,1.061279,1.335878,2.961832,-1.045802,1.063032,3.413315,480,808,328,480,0,52.0,5,damping
1780605411.882519,7.4530947000021115,7604,0.016357,-0.02002,1.058106,1.862595,1.641221,-0.801527,1.058421,2.6087,483,812,329,483,0,52.0,6,damping
1780605411.9135,7.484075699991081,7635,0.038086,-0.014893,1.060059,1.671756,2.778626,-0.770992,1.060847,3.33316,484,814,330,484,0,52.0,5,damping
1780605411.9444356,7.51501129999815,7666,0.045898,-0.030762,1.044189,1.564886,2.29771,-0.198473,1.04565,2.787064,486,819,333,486,1,52.0,3,damping
1780605411.972327,7.542902699991828,7696,0.03125,-0.032227,1.054199,1.541985,2.312977,-1.0,1.055155,2.954248,488,822,334,488,0,52.0,5,damping
1780605412.004319,7.574894599994877,7726,0.054199,-0.043945,1.049316,1.183206,3.221374,-0.480916,1.051634,3.46533,490,826,336,490,0,52.0,0,damping
1780605412.0353858,7.6059614999976475,7757,0.035889,-0.02002,1.044922,1.954198,2.40458,-1.022901,1.04573,3.263008,491,829,338,491,1,52.0,18,damping
1780605412.0661924,7.636768199998187,7788,0.070068,-0.022705,1.055908,1.778626,3.374046,-0.633588,1.058474,3.86641,495,834,339,495,0,64.982,5,damping
1780605412.0974686,7.668044299993198,7819,0.04126,-0.028076,1.05835,1.564886,3.10687,-0.671756,1.059526,3.542988,496,836,340,496,0,64.982,5,damping
1780605412.1279895,7.698565200000303,7850,0.043945,-0.0354,1.049805,1.709924,3.114504,-0.526718,1.05132,3.591852,499,841,342,499,1,64.982,4,damping
1780605412.159239,7.729814699996496,7881,0.035889,-0.025146,1.059326,1.389313,2.10687,-1.129771,1.060232,2.765045,501,844,343,501,0,64.982,5,damping
1780605412.189941,7.7605165999993915,7912,0.05957,-0.023438,1.064941,1.541985,2.618321,-1.030534,1.066864,3.208632,503,848,345,503,0,64.982,0,damping
1780605412.221765,7.792340799991507,7943,0.009033,-0.016113,1.055176,1.51145,2.282443,-0.70229,1.055337,2.82617,506,852,346,506,0,64.982,5,damping
1780605412.251997,7.822572799996124,7974,0.033691,-0.031006,1.065918,1.251908,2.80916,-0.557252,1.066901,3.12557,509,856,347,509,0,64.982,6,damping
1780605412.282588,7.85316359999706,8005,0.045166,-0.023926,1.048828,2.022901,3.29771,-0.374046,1.050073,3.886763,510,859,349,510,1,64.982,18,damping
1780605412.3141763,7.884751999998116,8036,0.022949,-0.006104,1.05542,1.244275,4.175572,-0.557252,1.055687,4.392512,514,864,350,514,0,64.982,5,damping
1780605412.345182,7.915757599999779,8067,0.056396,-0.029297,1.057373,1.969466,3.229008,-0.648855,1.059281,3.837486,515,866,351,515,0,71.685,5,damping
1780605412.3760724,7.94664819999889,8098,0.068115,-0.028564,1.064941,1.59542,4.007634,-0.816794,1.0675,4.390176,518,871,353,518,1,71.685,14,damping
1780605412.4073496,7.977925300001516,8129,0.047119,-0.0354,1.058106,1.312977,2.305344,-0.358779,1.059746,2.67717,520,874,354,520,0,71.685,5,damping
1780605412.438611,8.00918670000101,8160,0.048584,-0.054199,1.058838,1.526718,2.641221,-0.641221,1.061337,3.117384,521,876,355,521,0,71.685,5,damping
1780605412.470147,8.040722699995968,8192,0.029053,-0.029541,1.052002,1.519084,2.366412,-0.839695,1.052818,2.934725,525,882,357,525,0,71.685,5,damping
1780605412.5019503,8.07252589998825,8223,0.029053,-0.036865,1.056396,1.59542,2.458015,-0.839695,1.057439,3.048326,526,884,358,526,0,71.685,5,damping
1780605412.5327952,8.103370799988625,8254,0.029785,-0.022949,1.04834,1.496183,2.923664,-1.381679,1.049014,3.563062,527,887,360,527,1,71.685,18,damping
1780605412.563032,8.133607600000687,8285,0.048096,-0.020752,1.054199,1.419847,3.908397,-0.648855,1.0555,4.208628,529,890,361,529,0,71.685,5,damping
1780605412.5945768,8.165152499990654,8316,0.058594,-0.031738,1.05542,1.80916,2.916031,-0.877863,1.057521,3.542166,530,892,362,530,0,71.685,5,damping
1780605412.627135,8.197710799999186,8348,0.042725,-0.015137,1.054688,1.312977,3.206107,-0.21374,1.055661,3.471126,533,896,363,533,0,64.057,5,damping
1780605412.6584775,8.229053199989721,8380,0.04834,-0.012207,1.058106,1.381679,2.977099,-0.900763,1.059279,3.403459,536,900,364,536,0,64.057,5,damping
1780605412.6902168,8.260792599990964,8411,0.056641,-0.020264,1.056152,1.755725,2.740458,-0.412214,1.057864,3.28064,537,903,366,537,1,64.057,18,damping
1780605412.7228165,8.293392299994593,8443,0.052734,-0.024902,1.048096,1.274809,3.503817,-0.305344,1.049717,3.741003,539,906,367,539,0,64.057,5,damping
1780605412.7594478,8.330023599992273,8475,0.056152,-0.037109,1.0625,1.580153,3.358779,-0.725191,1.06463,3.782087,541,910,369,541,0,64.057,1,damping
1780605412.7855449,8.356120700002066,8506,0.041016,-0.029541,1.055176,1.870229,2.770992,-0.587786,1.056386,3.394355,544,914,370,544,0,64.057,5,damping
1780605412.8170612,8.387636999992537,8538,0.048584,-0.024902,1.066406,1.267176,3.007634,-0.458015,1.067803,3.29566,545,916,371,545,0,64.057,5,damping
1780605412.84816,8.418735799990827,8569,0.041992,-0.029541,1.050537,2.061069,3.030534,-0.839695,1.051791,3.759951,546,921,375,546,1,64.057,18,damping
1780605412.8782418,8.448817500000587,8601,0.05542,-0.03125,1.055176,1.519084,3.29771,-0.847328,1.057092,3.728334,549,926,377,549,0,63.241,0,damping
1780605412.9102912,8.48086689999036,8631,0.05249,-0.032715,1.049072,1.977099,3.10687,-0.763359,1.050894,3.760888,550,928,378,550,0,63.241,5,damping
1780605412.94178,8.512355899991235,8663,0.028076,-0.034912,1.049805,2.045802,3.358779,-0.236641,1.05076,3.939885,554,934,380,554,0,63.241,5,damping
1780605412.973334,8.543909799991525,8695,0.049805,-0.025146,1.057861,1.435114,2.671756,-0.748092,1.059332,3.123695,555,936,381,555,0,63.241,5,damping
1780605413.004416,8.574991699992097,8726,0.037109,-0.031006,1.040283,1.48855,2.274809,-0.160305,1.041406,2.723276,557,940,383,557,1,63.241,0,damping
1780605413.0352712,8.605846899998141,8757,0.029053,-0.007324,1.048096,1.900763,1.908397,-1.038168,1.048524,2.886637,560,944,384,560,0,63.241,5,damping
1780605413.0663972,8.636972799999057,8788,0.038086,-0.023682,1.066894,1.435114,2.961832,-0.564886,1.067837,3.339326,562,948,386,562,0,63.241,0,damping
1780605413.097361,8.667936899990309,8819,0.029785,-0.020996,1.051025,1.625954,2.931298,-0.801527,1.051657,3.446546,563,951,388,563,1,63.241,18,damping
1780605413.1274855,8.698061299990513,8850,0.046631,-0.009521,1.05542,0.954198,3.763359,-0.732824,1.056492,3.950999,565,954,389,565,0,63.241,5,damping
1780605413.159499,8.730074599996442,8881,0.030762,-0.030518,1.05127,1.70229,3.343511,-0.656489,1.052162,3.808916,568,958,390,568,0,67.857,0,damping
1780605413.191188,8.761763899994548,8912,0.040283,-0.028809,1.053467,2.320611,3.259542,-0.587786,1.05463,4.044174,571,962,391,571,0,67.857,5,damping
1780605413.2216527,8.792228499994962,8943,0.029785,-0.020996,1.05957,1.625954,2.572519,-0.656489,1.060197,3.113288,572,964,392,572,0,67.857,5,damping
1780605413.2535212,8.824096999989706,8974,0.054443,-0.015137,1.044434,2.114504,2.839695,-0.366412,1.045961,3.559389,573,966,393,573,0,67.857,4,damping
1780605413.2837327,8.854308399997535,9005,0.033691,-0.035645,1.053955,1.603053,2.21374,-0.961832,1.055096,2.897507,576,970,394,576,0,67.857,5,damping
1780605413.3143845,8.884960099996533,9036,0.017578,-0.007324,1.048828,1.251908,2.564885,-0.923664,1.049001,2.999844,577,972,395,577,0,67.857,5,damping
1780605413.3461454,8.916721199988388,9067,0.045898,-0.027588,1.053467,2.152672,3.40458,-1.175572,1.054827,4.196086,579,977,398,579,1,67.857,3,damping
1780605413.3770843,8.94765999999072,9098,0.04541,-0.010986,1.051758,0.923664,3.656489,-0.557252,1.052795,3.812295,581,980,399,581,0,67.857,5,damping
1780605413.4097834,8.980358999993769,9130,0.037598,-0.022705,1.059814,1.648855,3.358779,-0.977099,1.060724,3.867149,583,984,401,583,0,67.857,0,damping
1780605413.4384856,9.009061299992027,9161,0.054443,-0.032227,1.054199,1.70229,2.847328,-0.198473,1.056096,3.323321,586,988,402,586,0,64.286,5,damping
1780605413.4710624,9.041638199996669,9192,0.047363,-0.010742,1.067871,1.496183,2.755725,-0.755725,1.068975,3.225478,589,992,403,589,0,64.286,5,damping
1780605413.5031142,9.073689999990165,9224,0.020996,-0.019775,1.037354,1.641221,2.78626,-1.198473,1.037754,3.44865,590,995,405,590,1,64.286,18,damping
1780605413.5348966,9.105472299997928,9256,0.055908,-0.014404,1.052978,1.59542,3.183206,-0.793893,1.05456,3.648072,592,998,406,592,0,64.286,5,damping
1780605413.5651436,9.135719400001108,9287,0.057129,-0.023193,1.067139,1.801527,3.0,-0.854962,1.068918,3.602285,593,1000,407,593,0,64.286,5,damping
1780605413.5959113,9.166486999994959,9317,0.057373,-0.039551,1.060547,1.778626,3.129771,-0.877863,1.062834,3.70535,596,1005,409,596,1,64.286,14,damping
1780605413.6261163,9.196692099998472,9348,0.053467,-0.029785,1.062256,1.145038,3.541985,-0.48855,1.064018,3.754391,599,1010,411,599,0,64.286,0,damping
1780605413.6747649,9.245340499997837,9379,0.061035,-0.05542,1.051514,1.358779,3.534351,-0.038168,1.054741,3.786737,600,1012,412,600,0,64.286,5,damping
1780605413.6891768,9.259752500001923,9411,0.011719,-0.02832,1.054932,1.519084,2.473282,-0.931298,1.055377,3.048288,603,1016,413,603,0,68.0,5,damping
1780605413.7205956,9.291171199991368,9442,0.026123,-0.034912,1.062988,1.320611,2.778626,-0.625954,1.063882,3.139521,604,1018,414,604,0,68.0,5,damping
1780605413.7517655,9.322341199993389,9473,0.022461,-0.021973,1.055176,1.801527,3.007634,-0.916031,1.055644,3.623599,605,1021,416,605,1,68.0,18,damping
1780605413.783198,9.353773800001363,9504,0.058838,-0.016357,1.052978,1.664122,3.717557,-0.519084,1.054748,4.105969,607,1024,417,607,0,68.0,5,damping
1780605413.813537,9.384112499988987,9535,0.063965,-0.030762,1.062256,1.625954,3.137405,-0.877863,1.064624,3.64111,608,1026,418,608,0,68.0,5,damping
1780605413.8453434,9.415918999991845,9567,0.044678,-0.025146,1.049805,1.816794,3.015267,-0.221374,1.051056,3.527263,611,1030,419,611,0,68.0,5,damping
1780605413.8759286,9.446504299994558,9598,0.025635,-0.035645,1.05957,1.519084,2.839695,-0.496183,1.06048,3.258478,612,1032,420,612,0,68.0,5,damping
1780605413.9070175,9.477593199990224,9629,0.049316,-0.035156,1.054688,1.305344,3.099237,0.10687,1.056425,3.364612,613,1034,421,613,0,68.0,4,damping
1780605413.9372156,9.507791199997882,9660,0.019531,-0.0271,1.052002,1.496183,2.236641,-0.78626,1.052532,2.80345,616,1038,422,616,0,68.0,5,damping
1780605413.9689212,9.539496799989138,9690,0.037842,-0.028076,1.061279,1.320611,2.679389,-0.618321,1.062325,3.050485,618,1042,424,618,0,53.763,1,damping
1780605413.9998207,9.570396499999333,9721,0.034424,-0.019775,1.062744,1.335878,2.938931,-1.206107,1.063485,3.446241,619,1045,426,619,1,53.763,17,damping
1780605414.0315986,9.602174200001173,9753,0.070068,-0.017334,1.052002,1.236641,3.557252,-0.618321,1.054475,3.816496,621,1048,427,621,0,53.763,5,damping
1780605414.0629737,9.63354939999408,9784,0.053711,-0.047852,1.05542,1.78626,3.10687,-0.664122,1.057868,3.64478,624,1052,428,624,0,53.763,5,damping
1780605414.095043,9.665618599989102,9816,0.04834,-0.02417,1.057617,1.725191,3.045802,-0.167939,1.058997,3.504482,627,1056,429,627,0,53.763,5,damping
1780605414.1254818,9.69605749999755,9847,0.053711,-0.012451,1.062012,1.206107,3.007634,-0.526718,1.063442,3.282984,630,1060,430,630,0,53.763,5,damping
1780605414.1582274,9.728803099991637,9879,0.034912,-0.029541,1.053223,1.694656,2.206107,-0.900763,1.054215,2.924063,632,1065,433,632,1,53.763,14,damping
1780605414.1888661,9.75944179999351,9911,0.032227,-0.008301,1.04834,1.198473,3.717557,-0.328244,1.048868,3.919734,634,1068,434,634,0,53.763,5,damping
1780605414.2206213,9.791197099999408,9942,0.029785,-0.010254,1.050293,1.80916,3.259542,-0.717557,1.050765,3.796388,635,1070,435,635,0,67.46,5,damping
1780605414.2511995,9.821775199990952,9973,0.061035,-0.040039,1.05249,1.877863,3.312977,-0.015267,1.055019,3.808204,638,1074,436,638,0,67.46,5,damping
1780605414.2826033,9.853178999997908,10004,0.053223,-0.019043,1.056641,1.167939,2.824427,-0.221374,1.058152,3.064388,639,1076,437,639,0,67.46,5,damping
1780605414.3154373,9.88601309999649,10036,0.016846,-0.026367,1.053955,1.427481,2.419847,-0.664122,1.054419,2.88694,640,1079,439,640,1,67.46,17,damping
1780605414.3467705,9.91734619998897,10068,0.063232,-0.022217,1.062256,1.343511,2.664122,-1.007634,1.064368,3.149269,642,1082,440,642,0,67.46,5,damping
1780605414.3777623,9.948338099988177,10099,0.054199,-0.022705,1.057129,1.862595,2.992366,-0.618321,1.058761,3.578524,643,1084,441,643,0,67.46,5,damping
1780605414.4089699,9.979545599999256,10130,0.056396,-0.015869,1.060791,1.931298,2.931298,-0.824427,1.062408,3.605842,647,1089,442,647,1,67.46,17,damping
1780605414.4394095,10.009985199998482,10161,0.040527,-0.022217,1.061279,1.122137,2.961832,-0.259542,1.062285,3.177893,649,1092,443,649,0,67.46,5,damping
1780605414.47048,10.0410555999988,10192,0.04126,-0.047363,1.04541,1.473282,3.381679,-0.381679,1.047296,3.708368,650,1094,444,650,0,60.0,5,damping
1780605414.5022955,10.072871299998951,10224,0.017334,-0.015381,1.050049,1.40458,2.21374,-0.954198,1.050304,2.78998,653,1100,447,653,0,60.0,5,damping
1780605414.5332174,10.103793199989013,10255,0.038086,-0.033203,1.063477,1.557252,2.694656,-0.793893,1.064676,3.211927,654,1102,448,654,0,60.0,5,damping
1780605414.563705,10.134280799989938,10286,0.009766,-0.015137,1.039551,1.900763,2.48855,-1.152672,1.039707,3.33683,656,1107,451,656,1,60.0,3,damping
1780605414.5938685,10.164444099995308,10316,0.028076,-0.001709,1.057617,1.51145,3.083969,-0.778626,1.057991,3.521592,658,1110,452,658,0,60.0,5,damping
1780605414.6252537,10.195829399992363,10347,0.012207,-0.019287,1.058106,1.503817,2.89313,-0.763359,1.058352,3.348788,660,1114,454,660,0,60.0,1,damping
1780605414.6566002,10.227175899999565,10378,0.042236,-0.017822,1.05835,2.534351,3.305344,-1.419847,1.059342,4.400477,661,1117,456,661,1,60.0,17,damping
1780605414.6871765,10.257752199991955,10409,0.063477,-0.0354,1.051025,1.007634,2.984733,-0.351145,1.053535,3.169741,665,1122,457,665,0,60.0,5,damping
1780605414.7190711,10.289646899997024,10440,0.050049,-0.025146,1.062744,1.732824,3.381679,-1.061069,1.064219,3.945162,666,1124,458,666,0,60.0,5,damping
1780605414.7495344,10.320110000000568,10471,0.066162,-0.026367,1.065186,1.351145,2.755725,-0.251908,1.067564,3.07946,669,1128,459,669,0,68.1,5,damping
1780605414.7816968,10.352272499992978,10503,0.057373,-0.015625,1.060547,1.236641,3.145038,-0.396947,1.062212,3.402663,670,1130,460,670,0,68.1,5,damping
1780605414.812871,10.383446799998637,10534,0.015869,-0.026611,1.046875,2.061069,2.381679,-0.732824,1.047333,3.233795,671,1133,462,671,1,68.1,18,damping
1780605414.8425233,10.413098999997601,10565,0.02417,-0.000977,1.044678,1.366412,2.725191,-1.259542,1.044958,3.298514,673,1136,463,673,0,68.1,5,damping
1780605414.8739023,10.444478099991102,10595,0.040283,-0.022217,1.064941,1.290076,2.854962,-0.557252,1.065935,3.18208,674,1138,464,674,0,68.1,5,damping
1780605414.9038627,10.474438499993994,10626,0.049072,-0.020508,1.059326,2.351145,2.458015,-1.335878,1.06066,3.654352,676,1143,467,676,1,68.1,3,damping
1780605414.935419,10.505994899998768,10657,0.034424,-0.002441,1.044922,1.08397,3.51145,-0.465649,1.045492,3.704336,678,1146,468,678,0,68.1,5,damping
1780605414.967602,10.538177800000994,10688,0.043701,-0.033691,1.041504,1.40458,3.061069,-0.824427,1.042965,3.467372,679,1148,469,679,0,68.1,5,damping
1780605414.9984481,10.569023799995193,10719,0.059326,-0.029053,1.059326,1.969466,3.290076,-0.083969,1.061384,3.83542,682,1152,470,682,0,68.1,5,damping
1780605415.0300667,10.600642499994137,10751,0.053223,-0.007568,1.065918,1.480916,3.045802,-0.519084,1.067273,3.426291,685,1156,471,685,0,57.143,5,damping
1780605415.0608215,10.631397199991625,10782,0.03418,-0.016113,1.036621,1.305344,2.343511,-0.633588,1.03731,2.756338,686,1159,473,686,1,57.143,17,damping
1780605415.092643,10.663218699992285,10814,0.022461,-0.00293,1.058838,1.312977,2.70229,-0.916031,1.05908,3.140922,690,1164,474,690,0,57.143,5,damping
1780605415.1219664,10.692542099990533,10844,0.03833,-0.020752,1.068359,1.656489,2.251908,-1.0,1.069248,2.969014,691,1166,475,691,0,57.143,6,damping
1780605415.1523862,10.722961899999063,10874,0.056641,-0.028564,1.0625,1.908397,2.381679,-1.19084,1.064392,3.276046,693,1171,478,693,1,57.143,14,damping
1780605415.183193,10.753768599999603,10905,0.048096,-0.018311,1.052246,1.221374,2.946565,-0.900763,1.053504,3.314419,696,1176,480,696,0,57.143,0,damping
1780605415.2146602,10.785235999996075,10936,0.031982,-0.037109,1.052002,1.885496,3.167939,-0.541985,1.053142,3.726215,697,1178,481,697,0,57.143,5,damping
1780605415.2459927,10.816568299997016,10967,0.042725,-0.04126,1.056885,2.206107,3.19084,-0.656489,1.058552,3.93438,700,1183,483,700,1,57.143,3,damping
1780605415.277133,10.847708599991165,10998,0.029785,-0.022949,1.051758,1.305344,3.19084,-0.801527,1.05243,3.539467,702,1186,484,702,0,57.143,5,damping
1780605415.307508,10.87808359999326,11029,0.037842,-0.045654,1.046143,1.366412,3.251908,-0.480916,1.047822,3.559954,703,1188,485,703,0,64.748,4,damping
1780605415.338256,10.9088316999987,11060,0.02417,-0.017822,1.057129,1.70229,2.473282,-0.221374,1.057555,3.010635,706,1192,486,706,0,64.748,5,damping
1780605415.3695989,10.940174599993043,11091,0.043701,-0.047607,1.071777,1.068702,3.076336,-0.366412,1.073724,3.277228,707,1194,487,707,0,64.748,5,damping
1780605415.4015107,10.972086499998113,11122,0.016113,-0.015869,1.043701,1.984733,2.725191,-1.458015,1.043946,3.673097,708,1197,489,708,1,64.748,18,damping
1780605415.4324076,11.002983300000778,11154,0.051025,-0.022705,1.062256,1.59542,3.343511,-0.755725,1.063723,3.780946,712,1202,490,712,0,64.748,5,damping
1780605415.46507,11.035645799987833,11185,0.04126,-0.041748,1.044189,1.816794,2.969466,-0.984733,1.045838,3.617757,713,1204,491,713,0,64.748,5,damping
1780605415.5016582,11.07223389999126,11217,0.046387,-0.023438,1.057373,1.641221,3.526718,-0.29771,1.05865,3.901279,717,1210,493,717,0,64.748,5,damping
1780605415.5325408,11.103116599988425,11254,0.050781,-0.02417,1.060059,1.519084,2.847328,-1.145038,1.061549,3.424326,719,1214,495,719,0,64.748,0,damping
1780605415.5651157,11.135691399991629,11285,0.041016,-0.033447,1.050293,1.923664,2.755725,-0.396947,1.051626,3.384091,722,1218,496,722,0,74.219,5,damping
1780605415.5958104,11.16638619999867,11317,0.041748,-0.041504,1.071777,1.335878,3.198473,-0.152672,1.073393,3.469598,723,1220,497,723,0,74.219,5,damping
1780605415.6265447,11.197120500000892,11348,0.019287,-0.015381,1.042725,2.030534,2.633588,-0.885496,1.043016,3.44136,724,1223,499,724,1,74.219,18,damping
1780605415.6583922,11.228967899995041,11380,0.05127,-0.029053,1.048096,1.458015,3.679389,-0.427481,1.049751,3.98076,726,1226,500,726,0,74.219,5,damping
1780605415.6894083,11.259984099990106,11411,0.035889,-0.036377,1.054688,1.694656,2.832061,-0.78626,1.055925,3.392733,727,1228,501,727,0,74.219,5,damping
1780605415.7204869,11.291062599993893,11442,0.047852,-0.033936,1.05127,2.259542,3.465649,-0.610687,1.052905,4.182008,729,1231,502,729,0,74.219,16,damping
1780605415.7526538,11.323229599991464,11473,0.028564,-0.0271,1.050293,1.259542,3.259542,-0.320611,1.051031,3.50911,731,1234,503,731,0,74.219,5,damping
1780605415.7834604,11.35403599998972,11504,0.04541,-0.044922,1.037354,1.08397,3.267176,-0.053435,1.039318,3.442714,732,1238,506,732,0,74.219,4,damping
1780605415.8148553,11.385431099988637,11536,0.032471,-0.018555,1.052734,1.396947,2.954198,-0.687023,1.053398,3.339274,735,1242,507,735,0,51.793,6,damping
1780605415.8467908,11.417366399997263,11567,0.057129,-0.022461,1.059814,1.381679,2.274809,-0.778626,1.061591,2.773094,736,1244,508,736,0,51.793,5,damping
1780605415.877634,11.448209700000007,11599,0.025146,-0.007324,1.048828,1.870229,3.580153,-1.206107,1.049155,4.215441,738,1249,511,738,1,51.793,14,damping
1780605415.9095304,11.480106099988916,11630,0.048096,-0.041016,1.057373,1.175572,2.755725,-0.824427,1.059261,3.107358,740,1252,512,740,0,51.793,5,damping
1780605415.9413364,11.511912099987967,11662,0.043945,-0.057129,1.04126,1.366412,3.496183,-0.160305,1.043751,3.757137,743,1256,513,743,0,51.793,0,damping
1780605415.973654,11.544229699997231,11694,0.018066,-0.022705,1.049072,1.274809,2.748092,-0.381679,1.049473,3.05333,746,1260,514,746,0,51.793,5,damping
1780605416.0033195,11.573895299996366,11725,0.042236,-0.038574,1.059814,1.519084,2.763359,-0.473282,1.061357,3.188693,748,1264,516,748,0,51.793,0,damping
1780605416.035836,11.60641169999144,11756,0.01123,-0.016357,1.056641,1.137405,2.832061,-1.328244,1.056827,3.328437,749,1267,518,749,1,51.793,17,damping
1780605416.0669763,11.637552000000142,11787,0.056396,-0.017578,1.054932,1.59542,2.954198,-0.854962,1.056584,3.464623,753,1272,519,753,0,71.713,5,damping
1780605416.0968235,11.667399199999636,11818,0.051025,-0.032715,1.052734,1.847328,2.748092,-0.954198,1.054478,3.44603,754,1274,520,754,0,71.713,5,damping
1780605416.127714,11.698289599997224,11849,0.044922,-0.029785,1.05542,2.328244,2.778626,-0.725191,1.056795,3.696942,757,1278,521,757,0,71.713,5,damping
1780605416.159477,11.730052599988994,11881,0.032471,-0.008057,1.057129,1.694656,3.267176,-0.274809,1.057658,3.690775,758,1280,522,758,0,71.713,5,damping
1780605416.1905303,11.76110589999007,11912,0.049561,-0.008545,1.044189,1.206107,3.053435,-0.21374,1.0454,3.289961,759,1283,524,759,1,71.713,18,damping
1780605416.221509,11.79208459999063,11943,0.01123,-0.026611,1.047119,1.473282,2.603053,-0.748092,1.047517,3.083194,761,1286,525,761,0,71.713,5,damping
1780605416.2515807,11.822156399997766,11974,0.036865,-0.027344,1.059326,1.732824,2.664122,-1.061069,1.06032,3.350536,762,1288,526,762,0,71.713,5,damping
1780605416.2825704,11.853146099994774,12004,0.022949,-0.015625,1.052246,1.625954,2.465649,-0.824427,1.052612,3.066404,764,1293,529,764,1,71.713,3,damping
1780605416.3142972,11.884872800001176,12036,0.063965,-0.008057,1.056396,1.061069,2.732824,-0.961832,1.058362,3.085339,766,1296,530,766,0,71.713,5,damping
1780605416.3463137,11.916889399988577,12067,0.054932,-0.03833,1.052978,1.679389,2.954198,-0.977099,1.055107,3.535868,768,1300,532,768,0,53.571,0,damping
1780605416.3777661,11.9483418000018,12098,0.058105,-0.023193,1.05542,2.045802,3.251908,-0.816794,1.057273,3.927768,771,1304,533,771,0,53.571,5,damping
1780605416.4080894,11.978665199989337,12130,0.029053,-0.008301,1.049805,1.244275,3.610687,-0.526718,1.050239,3.855219,774,1308,534,774,0,53.571,5,damping
1780605416.4402404,12.010816099995282,12161,0.046631,-0.018066,1.044189,1.580153,2.732824,-0.068702,1.045386,3.15752,775,1311,536,775,1,53.571,18,damping
1780605416.4718776,12.042453399990336,12193,0.0354,-0.019043,1.054932,1.312977,2.328244,-0.870229,1.055697,2.811037,779,1316,537,779,0,53.571,5,damping
1780605416.5024395,12.07301509998797,12224,0.02124,-0.015869,1.056152,1.870229,2.19084,-0.755725,1.056485,2.978029,780,1318,538,780,0,53.571,5,damping
1780605416.5335376,12.104113299996243,12255,0.034912,-0.019043,1.057129,1.59542,2.793893,-1.08397,1.057877,3.395025,783,1323,540,783,1,53.571,14,damping
1780605416.5647688,12.135344399997848,12286,0.032471,-0.031982,1.052002,1.160305,3.122137,-0.664122,1.052989,3.396338,786,1328,542,786,0,53.571,0,damping
1780605416.5964878,12.167063399989274,12317,0.048584,-0.041748,1.054199,1.465649,3.709924,-0.51145,1.056144,4.021597,787,1330,543,787,0,76.0,5,damping
1780605416.6281614,12.198737200000323,12349,0.046631,-0.032227,1.05249,1.412214,2.664122,-0.679389,1.054015,3.090868,791,1336,545,791,0,76.0,5,damping
1780605416.6590328,12.229608599998755,12380,0.030518,-0.022461,1.051514,1.587786,2.679389,-0.435114,1.052196,3.14476,792,1338,546,792,0,76.0,5,damping
1780605416.6903727,12.260948399998597,12412,0.034668,-0.016846,1.063721,1.91603,2.793893,-1.442748,1.064419,3.682191,793,1341,548,793,1,76.0,17,damping
1780605416.7210371,12.291612799992436,12443,0.026611,0.006836,1.049805,1.236641,2.885496,-0.824427,1.050164,3.245774,795,1344,549,795,0,76.0,5,damping
1780605416.751688,12.322263599999133,12473,0.035645,-0.013672,1.058594,2.076336,2.778626,-0.458015,1.059282,3.498816,796,1346,550,796,0,76.0,5,damping
1780605416.7826848,12.353260499992757,12504,0.031738,-0.010742,1.054688,2.022901,2.725191,-0.89313,1.05522,3.509483,797,1349,552,797,1,76.0,18,damping
1780605416.8135731,12.384148799988907,12535,0.046143,-0.022705,1.052734,1.40458,2.847328,-0.80916,1.05399,3.27641,801,1354,553,801,0,76.0,5,damping
1780605416.843567,12.414142699999502,12565,0.042725,-0.022461,1.064453,1.778626,2.740458,-0.725191,1.065547,3.346568,802,1356,554,802,0,76.0,5,damping
1780605416.875585,12.446160799998324,12596,0.065186,-0.023926,1.053467,2.282443,3.450382,-0.030534,1.055753,4.137102,806,1362,556,806,0,68.1,5,damping
1780605416.9063866,12.476962299988372,12628,0.03833,-0.007324,1.050537,1.389313,3.450382,0.091603,1.051262,3.720714,808,1366,558,808,0,68.1,0,damping
1780605416.937958,12.508533699990949,12659,0.043701,-0.020264,1.032715,1.610687,3.068702,-0.129771,1.033838,3.468153,809,1369,560,809,1,68.1,18,damping
1780605416.9684112,12.538986899991869,12690,0.044434,-0.002441,1.060791,1.732824,2.641221,-1.122137,1.061724,3.352301,811,1372,561,811,0,68.1,5,damping
1780605416.9991899,12.56976549999672,12721,0.033691,-0.01709,1.05542,1.328244,2.740458,-0.70229,1.056096,3.125309,812,1374,562,812,0,68.1,5,damping
1780605417.03106,12.601635799990618,12752,0.054199,-0.020752,1.058838,1.610687,2.89313,-1.114504,1.060427,3.493799,813,1377,564,813,1,68.1,18,damping
1780605417.0609295,12.631505199999083,12783,0.037598,-0.00415,1.050049,0.78626,2.755725,-0.740458,1.05073,2.959814,815,1380,565,815,0,68.1,5,damping
1780605417.0926175,12.663193299988052,12813,0.037109,-0.0271,1.061523,1.519084,3.038168,-0.78626,1.062518,3.486586,816,1382,566,816,0,68.1,5,damping
1780605417.1229389,12.693514699989464,12844,0.033447,-0.040771,1.056885,1.931298,2.954198,-1.045802,1.0582,3.681155,818,1385,567,818,1,68.1,17,damping
1780605417.1539745,12.724550200000522,12875,0.036133,-0.029297,1.056641,1.633588,2.51145,-0.992366,1.057664,3.156071,822,1390,568,822,0,57.348,5,damping
1780605417.1850772,12.755652899999404,12906,0.07251,-0.04834,1.046875,1.08397,3.435115,-0.656489,1.050496,3.661418,823,1392,569,823,0,57.348,5,damping
1780605417.2158606,12.78643639999791,12937,0.05957,-0.031006,1.060303,1.870229,2.816794,-0.343511,1.062427,3.398542,826,1396,570,826,0,57.348,5,damping
1780605417.2462707,12.816846299989265,12968,0.064209,-0.016113,1.068604,1.328244,2.793893,-0.534351,1.070652,3.139363,828,1400,572,828,0,57.348,1,damping
1780605417.2777636,12.848339299991494,12999,0.030273,-0.022461,1.051514,1.770992,2.931298,-0.740458,1.052189,3.503883,829,1403,574,829,1,57.348,18,damping
1780605417.3084748,12.879050499992445,13031,0.034424,-0.009033,1.03833,1.427481,3.0,-0.732824,1.03894,3.402166,831,1406,575,831,0,57.348,5,damping
1780605417.3394709,12.91004659999453,13061,0.028564,-0.010498,1.052734,1.801527,2.465649,-0.709924,1.053174,3.13511,834,1410,576,834,0,57.348,5,damping
1780605417.3713818,12.941957399991225,13092,0.046875,-0.012695,1.055908,2.053435,2.969466,-1.114504,1.057024,3.778418,835,1413,578,835,1,57.348,18,damping
1780605417.4015987,12.9721744999988,13123,0.025146,-0.029053,1.050293,1.167939,2.916031,-0.389313,1.050996,3.165262,839,1418,579,839,0,57.348,5,damping
1780605417.433157,13.003732600001968,13154,0.063477,-0.062744,1.054932,1.366412,3.59542,-0.687023,1.0587,3.907189,840,1420,580,840,0,64.516,5,damping
1780605417.4639654,13.034541100001661,13185,0.044434,-0.025146,1.050537,1.648855,3.160305,0.40458,1.051777,3.58747,843,1424,581,843,0,64.516,6,damping
1780605417.4955647,13.066140399998403,13216,0.029297,-0.023193,1.05127,1.229008,3.587786,-0.122137,1.051933,3.794415,845,1428,583,845,0,64.516,5,damping
1780605417.5255768,13.096152500002063,13247,0.037842,-0.032959,1.046875,1.175572,2.778626,-0.068702,1.048077,3.017856,846,1431,585,846,1,64.516,17,damping
1780605417.5573716,13.127947299988591,13278,0.026855,-0.021484,1.049316,1.320611,3.198473,-0.351145,1.04988,3.478153,848,1434,586,848,0,64.516,5,damping
1780605417.5878406,13.158416199992644,13309,0.037842,-0.020752,1.065674,1.450382,3.091603,-0.618321,1.066547,3.470438,850,1438,588,850,0,64.516,0,damping
1780605417.634718,13.205293699997128,13340,0.055908,-0.01416,1.060059,2.374046,2.480916,-1.137405,1.061626,3.617282,851,1441,590,851,1,64.516,18,damping
1780605417.650204,13.220779600000242,13371,0.055908,-0.010254,1.059814,1.549618,2.984733,-0.984733,1.061338,3.504233,853,1444,591,853,0,64.516,5,damping
1780605417.6820917,13.252667499997187,13402,0.061279,-0.035645,1.06543,1.778626,2.465649,-1.251908,1.067786,3.287888,856,1448,592,856,0,64.516,5,damping
1780605417.7129722,13.283547799990629,13433,0.045898,-0.019043,1.052246,2.274809,3.335878,-0.290076,1.053419,4.048084,859,1452,593,859,0,68.1,5,damping
1780605417.7434165,13.313992199997301,13464,0.027588,-0.026123,1.048584,1.473282,3.053435,-0.618321,1.049272,3.446208,862,1456,594,862,0,68.1,5,damping
1780605417.7739918,13.34456759999739,13495,0.063721,-0.030762,1.041748,1.603053,3.030534,-0.312977,1.044148,3.442655,864,1460,596,864,0,68.1,0,damping
1780605417.804895,13.375470699989819,13526,0.04248,-0.027344,1.053467,1.549618,2.366412,-0.732824,1.054678,2.92203,867,1464,597,867,0,68.1,5,damping
1780605417.8355517,13.406127399997786,13557,0.054443,-0.050293,1.061279,1.396947,3.007634,-0.534351,1.063864,3.358996,868,1466,598,868,0,68.1,5,damping
1780605417.8680058,13.43858149999869,13588,0.045898,-0.025879,1.054443,1.847328,3.083969,-0.80916,1.055759,3.684865,869,1469,600,869,1,68.1,18,damping
1780605417.898113,13.468688699998893,13619,0.032227,-0.018066,1.048096,1.022901,3.259542,-0.801527,1.048747,3.509043,871,1472,601,871,0,68.1,5,damping
1780605417.929148,13.49972359999083,13650,0.061035,-0.033936,1.05957,1.618321,2.557252,-1.160305,1.061869,3.241112,872,1474,602,872,0,68.1,5,damping
1780605417.9611216,13.531697300000815,13681,0.047852,-0.042969,1.062988,1.977099,2.923664,-0.679389,1.064932,3.594204,875,1478,603,875,0,68.1,5,damping
1780605417.990965,13.561540700000478,13712,0.041992,-0.021484,1.064697,1.656489,2.801527,-0.351145,1.065742,3.273501,876,1480,604,876,0,60.932,5,damping
1780605418.0232084,13.593784199998481,13744,0.06958,-0.034424,1.043457,1.70229,3.129771,-0.282443,1.046341,3.573938,877,1485,608,877,1,60.932,18,damping
1780605418.0548165,13.625392299989471,13775,0.025391,-0.019775,1.054443,1.312977,2.305344,-0.473282,1.054934,2.694905,879,1488,609,879,0,60.932,5,damping
1780605418.0857964,13.656371999997646,13806,0.043701,-0.025146,1.056152,1.366412,2.908397,-0.480916,1.057355,3.249174,882,1492,610,882,0,60.932,5,damping
1780605418.1164732,13.687048899999354,13838,0.054932,-0.015625,1.058594,2.076336,3.274809,-0.694656,1.060133,3.939301,884,1497,613,884,1,60.932,14,damping
1780605418.1483498,13.718925499997567,13869,0.037842,-0.036865,1.052002,1.21374,2.625954,-0.48855,1.053328,2.933851,886,1500,614,886,0,60.932,5,damping
1780605418.181368,13.751943899987964,13901,0.024902,-0.058105,1.043457,1.091603,3.526718,-0.526718,1.04537,3.729178,888,1504,616,888,0,60.932,0,damping
1780605418.2126093,13.783184899992193,13933,0.037354,-0.029785,1.054199,1.496183,2.603053,-0.610687,1.055281,3.063884,891,1508,617,891,0,60.932,5,damping
1780605418.2441657,13.814741399997729,13965,0.037109,-0.013184,1.056641,1.366412,2.618321,-0.885496,1.057374,3.083308,893,1512,619,893,0,67.194,0,damping
1780605418.274593,13.845168899992132,13996,0.045654,-0.01001,1.050537,2.282443,3.519084,-0.916031,1.051576,4.293322,894,1515,621,894,1,67.194,18,damping
1780605418.305158,13.875733599998057,14027,0.037354,-0.009033,1.05249,1.152672,2.89313,-0.374046,1.053192,3.13668,896,1518,622,896,0,67.194,4,damping
1780605418.336591,13.907166699995287,14058,0.043457,-0.034424,1.0625,1.854962,2.679389,-1.183206,1.063945,3.466985,899,1522,623,899,0,67.194,0,damping
1780605418.3687472,13.939322899997933,14089,0.030029,-0.029541,1.051025,2.152672,3.259542,-0.557252,1.051869,3.945775,902,1526,624,902,0,67.194,5,damping
1780605418.4002142,13.970789999992121,14120,0.05835,-0.028809,1.062256,1.450382,3.183206,-0.419847,1.064247,3.523163,903,1528,625,903,0,67.194,5,damping
1780605418.4297724,14.000348199988366,14151,0.078125,-0.038086,1.049072,1.801527,2.877863,-0.374046,1.052666,3.415773,904,1530,626,904,0,67.194,5,damping
1780605418.461439,14.032014600001276,14182,0.040283,-0.030762,1.054688,1.671756,2.633588,-0.694656,1.055905,3.195794,909,1536,627,909,0,67.194,5,damping
1780605418.4923701,14.062945799989393,14213,0.061279,-0.045654,1.070068,1.656489,3.152672,-0.335878,1.072793,3.577165,910,1538,628,910,0,67.194,6,damping
1780605418.5228646,14.09344019999844,14244,0.057617,-0.035156,1.061035,1.725191,2.832061,-0.832061,1.06318,3.418944,912,1543,631,912,1,68.1,4,damping
1780605418.5536983,14.124274099987815,14275,0.065674,-0.032715,1.051025,1.687023,3.29771,-0.763359,1.053583,3.782017,914,1546,632,914,0,68.1,5,damping
1780605418.5850906,14.155666299993754,14306,0.043701,-0.01709,1.056885,1.534351,3.038168,-0.305344,1.057926,3.417299,916,1550,634,916,0,68.1,1,damping
1780605418.6163583,14.186933899996802,14337,0.029541,-0.039062,1.048096,1.816794,3.183206,-0.824427,1.049239,3.756757,918,1553,635,918,1,68.1,16,damping
1780605418.6469748,14.217550499990466,14368,0.015137,-0.022461,1.05957,1.206107,3.022901,-0.709924,1.059916,3.331158,922,1558,636,922,0,68.1,5,damping
1780605418.6775596,14.248135399990133,14399,0.016602,-0.030273,1.049072,1.519084,3.694656,-0.503817,1.04964,4.026404,924,1562,638,924,0,68.1,0,damping
1780605418.7082536,14.278829399991082,14430,0.043457,-0.024658,1.053711,1.954198,2.816794,-0.541985,1.054895,3.470874,927,1566,639,927,0,68.1,5,damping
1780605418.7399445,14.31052020000061,14461,0.049561,-0.049805,1.056885,1.145038,3.648855,-0.664122,1.059218,3.881535,928,1568,640,928,0,68.1,5,damping
1780605418.7711184,14.341694099988672,14492,0.028564,-0.025635,1.042725,1.870229,3.114504,-0.465649,1.043431,3.662611,929,1571,642,929,1,68.1,18,damping
1780605418.8024907,14.373066399988602,14523,0.028564,-0.010742,1.051758,1.442748,3.335878,-0.954198,1.0522,3.757672,931,1574,643,931,0,68.1,5,damping
1780605418.8330705,14.40364619999309,14554,0.051758,-0.028809,1.058838,1.70229,2.977099,-0.625954,1.060494,3.486076,932,1576,644,932,0,68.1,5,damping
1780605418.863132,14.433707699994557,14585,0.047363,-0.002686,1.054199,1.984733,2.961832,-0.877863,1.055266,3.671819,934,1581,647,934,1,68.1,3,damping
1780605418.8938773,14.464453099993989,14615,0.044434,-0.012695,1.044922,1.221374,3.519084,-0.641221,1.045943,3.779798,936,1584,648,936,0,68.1,5,damping
1780605418.926034,14.49660959999892,14646,0.025146,-0.019531,1.056885,1.572519,3.427481,-0.358779,1.057364,3.788029,938,1588,650,938,0,68.1,0,damping
1780605418.9562194,14.526795099998708,14677,0.05127,-0.02417,1.052246,2.160305,2.671756,-0.656489,1.053772,3.498024,941,1592,651,941,0,68.1,5,damping
1780605418.987972,14.558547699998599,14709,0.048828,-0.004883,1.052002,1.450382,2.938931,-0.732824,1.053146,3.358267,944,1596,652,944,0,68.1,5,damping
1780605419.0185783,14.589154100001906,14740,0.018555,-0.023193,1.036133,1.29771,2.427481,-0.351145,1.036558,2.77489,945,1599,654,945,1,68.1,18,damping
1780605419.0492213,14.619797099992866,14771,0.051514,-0.03125,1.059082,1.435114,2.908397,-0.816794,1.060794,3.34447,947,1602,655,947,0,68.1,5,damping
1780605419.0802665,14.65084209998895,14801,0.058105,-0.047852,1.059814,1.236641,2.977099,-0.458015,1.062484,3.256099,948,1604,656,948,0,61.151,5,damping
1780605419.1118793,14.682455099988147,14833,0.041016,-0.0354,1.050537,2.068702,3.015267,-0.984733,1.051933,3.78696,949,1607,658,949,1,61.151,17,damping
1780605419.143132,14.713707699993392,14864,0.045898,-0.018555,1.051514,1.458015,3.396947,-0.335878,1.052678,3.711855,951,1610,659,951,0,61.151,5,damping
1780605419.174165,14.744740699999966,14895,0.036377,-0.033203,1.057129,1.633588,3.10687,-0.862595,1.058276,3.614598,952,1612,660,952,0,61.151,5,damping
1780605419.205368,14.775943799992092,14926,0.038818,-0.028564,1.049805,2.007634,3.007634,-0.763359,1.05091,3.695832,956,1618,662,956,0,61.151,5,damping
1780605419.2373478,14.807923599990318,14958,0.044922,-0.026367,1.062744,1.549618,2.938931,-0.610687,1.06402,3.378102,957,1620,663,957,0,61.151,5,damping
1780605419.268266,14.8388416999951,14989,0.051025,-0.039551,1.045898,1.755725,3.091603,-0.282443,1.047889,3.56656,959,1624,665,959,1,61.151,1,damping
1780605419.2993088,14.869884599989746,15020,0.033691,-0.016846,1.054443,1.671756,2.709924,-0.992366,1.055116,3.335153,962,1629,667,962,1,61.151,3,damping
1780605419.3294675,14.900043199988431,15051,0.043457,-0.037598,1.061523,1.343511,3.0,-0.862595,1.063078,3.398396,964,1632,668,964,0,64.0,5,damping
1780605419.3609257,14.931501499988372,15082,0.028076,-0.027344,1.059082,1.870229,3.045802,-1.015267,1.059807,3.715566,965,1635,670,965,1,64.0,17,damping
1780605419.39066,14.961235700000543,15113,0.039795,-0.000488,1.045654,1.473282,3.221374,-1.0,1.046411,3.680735,967,1638,671,967,0,64.0,5,damping
1780605419.422086,14.992661600001156,15143,0.045654,-0.017578,1.056152,1.526718,2.671756,-0.618321,1.057285,3.138704,968,1640,672,968,0,64.0,5,damping
1780605419.453365,15.023940799990669,15174,0.058105,-0.004883,1.061035,1.89313,3.564885,-0.854962,1.062636,4.125931,970,1643,673,970,1,64.0,17,damping
1780605419.4841402,15.054715799997211,15205,0.055176,-0.02124,1.056152,1.175572,2.641221,-0.572519,1.057806,2.947168,972,1646,674,972,0,64.0,5,damping
1780605419.5163157,15.08689140000206,15236,0.054932,-0.030762,1.063477,1.59542,2.549618,-1.320611,1.065338,3.284803,973,1648,675,973,0,64.0,5,damping
1780605419.5460143,15.1165900999913,15267,0.026123,-0.024658,1.049561,1.793893,2.274809,-0.267176,1.050175,2.909328,977,1654,677,977,0,64.0,5,damping
1780605419.576754,15.147329899991746,15298,0.05249,-0.026123,1.063721,1.221374,3.633588,-0.969466,1.065335,3.954058,978,1656,678,978,0,64.0,5,damping
1780605419.608169,15.178744799995911,15329,0.046143,-0.012207,1.038818,1.557252,3.236641,0.007634,1.039914,3.591788,980,1661,681,980,1,57.554,14,damping
1780605419.6396413,15.21021699999983,15361,0.034668,-0.015625,1.054932,1.740458,3.221374,-0.854962,1.055617,3.759974,983,1666,683,983,0,57.554,0,damping
1780605419.6714468,15.242022499995073,15392,0.047363,-0.026611,1.069092,1.51145,3.007634,-0.70229,1.070471,3.43854,984,1668,684,984,0,57.554,5,damping
1780605419.7031722,15.273747999992338,15423,0.064209,-0.016113,1.06543,1.755725,3.503817,-0.778626,1.067484,3.995693,986,1671,685,986,1,57.554,17,damping
1780605419.7322552,15.302830999993603,15454,0.046631,-0.006592,1.057373,1.007634,2.755725,-0.465649,1.058421,2.970888,990,1676,686,990,0,57.554,5,damping
1780605419.7646399,15.33521559998917,15485,0.038574,-0.025879,1.05542,1.450382,2.656489,-1.21374,1.056442,3.260936,991,1678,687,991,0,57.554,5,damping
1780605419.795594,15.366169599990826,15516,0.036621,-0.027588,1.052002,1.793893,1.961832,-0.770992,1.053001,2.767899,995,1684,689,995,0,57.554,5,damping
1780605419.8267455,15.39732119999826,15547,0.033447,-0.019775,1.048096,1.381679,2.847328,-0.458015,1.048816,3.197826,996,1686,690,996,0,57.554,5,damping
1780605419.8593566,15.429932400002144,15579,0.054199,-0.026123,1.056885,1.671756,3.221374,-0.862595,1.058596,3.730428,997,1689,692,997,1,68.0,18,damping
1780605419.8904514,15.46102719999908,15610,0.06958,-0.031006,1.058106,1.343511,3.908397,-0.412214,1.060844,4.153373,1001,1694,693,1001,0,68.0,5,damping
1780605419.9207253,15.49130100000184,15641,0.057373,-0.029297,1.064941,2.160305,2.763359,-0.625954,1.066888,3.562989,1002,1696,694,1002,0,68.0,5,damping
1780605419.9521656,15.522741299995687,15672,0.036133,-0.040771,1.056885,1.870229,2.89313,-0.78626,1.058288,3.533576,1004,1699,695,1004,1,68.0,17,damping
1780605419.9822152,15.55279079999309,15703,0.03833,-0.033691,1.067139,0.839695,3.10687,-0.816794,1.068358,3.320374,1007,1704,697,1007,0,68.0,0,damping
1780605420.0136695,15.584245099991676,15734,0.052002,-0.029053,1.057373,0.938931,2.671756,-0.862595,1.05905,2.960396,1008,1706,698,1008,0,68.0,5,damping
1780605420.0451992,15.615774899997632,15766,0.043213,-0.031982,1.05249,1.519084,2.091603,-0.755725,1.053862,2.69324,1011,1710,699,1011,0,68.0,5,damping
1780605420.076855,15.647430699988035,15797,0.064209,-0.052002,1.064697,1.381679,3.480916,-0.335878,1.067898,3.760137,1012,1712,700,1012,0,68.0,5,damping
1780605420.108085,15.678660599995055,15828,0.045898,-0.026611,1.051758,1.396947,2.725191,-0.992366,1.053095,3.219148,1013,1715,702,1013,1,68.0,17,damping
1780605420.1401522,15.710727999990922,15859,0.060547,-0.020264,1.058838,1.374046,3.435115,-0.687023,1.060761,3.76298,1017,1720,703,1017,0,71.429,5,damping
1780605420.1712468,15.741822600000887,15891,0.050049,-0.019531,1.064209,1.931298,2.679389,-0.687023,1.065564,3.373579,1018,1722,704,1018,0,71.429,5,damping
1780605420.2022104,15.772786100002122,15922,0.033203,-0.020264,1.044678,1.725191,3.290076,-0.282443,1.045402,3.725676,1021,1726,705,1021,0,71.429,5,damping
1780605420.2335606,15.804136299993843,15954,0.040527,-0.015869,1.054932,1.480916,2.679389,-0.274809,1.055829,3.073721,1024,1730,706,1024,0,71.429,5,damping
1780605420.264782,15.835357599993586,15985,0.031006,-0.022461,1.026856,1.793893,2.656489,-0.083969,1.027569,3.206561,1025,1732,707,1025,1,71.429,4,damping
1780605420.2950406,15.865616299997782,16016,0.036621,-0.021484,1.038574,1.854962,2.625954,-0.78626,1.039442,3.309792,1028,1736,708,1028,0,71.429,4,damping
1780605420.3270407,15.89761629998975,16047,0.048584,-0.021729,1.041504,1.290076,2.648855,-0.251908,1.042863,2.957057,1030,1740,710,1030,0,71.429,1,damping
1780605420.357685,15.928260899992893,16078,0.046631,-0.040527,1.062012,2.236641,2.618321,-1.251908,1.063807,3.664075,1031,1743,712,1031,1,71.429,17,damping
1780605420.3877814,15.958357199997408,16109,0.02832,-0.01416,1.039795,1.29771,3.343511,-0.778626,1.040277,3.670065,1033,1746,713,1033,0,64.0,5,damping
1780605420.4198027,15.99037829998997,16140,0.026123,-0.027344,1.065186,1.801527,2.70229,-1.045802,1.065857,3.411974,1034,1748,714,1034,0,64.0,5,damping
1780605420.4508898,16.021465500001796,16171,0.036377,-0.0354,1.081787,2.267176,3.557252,-0.274809,1.082977,4.22725,1037,1752,715,1037,0,64.0,5,damping
1780605420.4811876,16.051763199997367,16202,0.037109,-0.021484,1.045166,0.977099,2.839695,-0.770992,1.046045,3.100487,1040,1756,716,1040,0,64.0,5,damping
1780605420.5123682,16.08294379999279,16233,0.020264,-0.005371,1.034668,1.587786,2.770992,-0.694656,1.03488,3.268335,1041,1758,717,1041,0,64.0,5,damping
1780605420.5434184,16.113994100000127,16264,0.019775,-0.036865,1.055908,1.91603,2.221374,-0.778626,1.056737,3.035117,1044,1762,718,1044,0,64.0,5,damping
1780605420.5747755,16.145351200000732,16295,0.047852,-0.043945,1.080811,1.549618,2.877863,-0.694656,1.082761,3.34155,1047,1766,719,1047,0,64.0,5,damping
1780605420.6059208,16.176496499989298,16326,0.044189,-0.026611,1.067627,1.832061,2.824427,-0.59542,1.068872,3.418825,1048,1769,721,1048,1,64.0,17,damping
1780605420.6364255,16.2070010999887,16357,0.069336,-0.03418,1.065186,1.312977,3.587786,-0.396947,1.067987,3.841052,1050,1772,722,1050,0,64.0,5,damping
1780605420.667801,16.238376599998446,16388,0.053955,-0.048096,1.039062,2.114504,3.259542,-0.274809,1.041573,3.89503,1052,1776,724,1052,0,68.1,0,damping
1780605420.698012,16.268587899990962,16419,0.049561,-0.009033,1.057861,1.374046,3.961832,-0.671756,1.05906,4.246807,1054,1779,725,1054,1,68.1,17,damping
1780605420.7287085,16.299284199994872,16450,0.036133,-0.021973,1.049072,1.229008,3.015267,-0.603053,1.049924,3.31149,1056,1782,726,1056,0,68.1,5,damping
1780605420.7608788,16.331454400002258,16481,0.032227,-0.031982,1.058838,1.80916,3.267176,-0.374046,1.059811,3.75332,1057,1784,727,1057,0,68.1,5,damping
1780605420.7922366,16.362812299994403,16512,0.052246,-0.028564,1.059326,1.305344,2.442748,-0.259542,1.060998,2.78178,1060,1788,728,1060,0,68.1,5,damping
1780605420.8230443,16.393619999988005,16543,0.049805,-0.009766,1.054688,0.961832,2.946565,-0.70229,1.055908,3.178141,1063,1792,729,1063,0,68.1,5,damping
1780605420.8548512,16.42542699999467,16574,0.016357,-0.021729,1.048096,1.045802,3.083969,-0.251908,1.048448,3.266194,1065,1797,732,1065,1,68.1,14,damping
1780605420.8851306,16.455706399996416,16606,0.046387,-0.027832,1.055664,1.503817,3.923664,-0.770992,1.057049,4.272123,1067,1800,733,1067,0,68.1,5,damping
1780605420.916501,16.48707679999643,16637,0.044189,-0.024414,1.046387,2.122137,2.671756,-0.450382,1.047604,3.441597,1068,1802,734,1068,0,68.1,5,damping
1780605420.9475136,16.518089199991664,16668,0.060303,-0.050049,1.053223,2.290076,3.29771,-1.091603,1.056134,4.160642,1070,1805,735,1070,1,64.286,17,damping
1780605420.9790928,16.54966859999695,16699,0.035156,0.000732,1.049561,1.114504,3.160305,-0.435114,1.050149,3.379197,1072,1808,736,1072,0,64.286,5,damping
1780605421.0094879,16.580063699992024,16730,0.054443,-0.02417,1.058594,1.870229,3.534351,-0.977099,1.060268,4.116324,1073,1810,737,1073,0,64.286,5,damping
1780605421.039371,16.609946700002183,16761,0.071533,-0.022949,1.0625,1.351145,2.664122,-0.160305,1.065152,2.991461,1076,1814,738,1076,0,64.286,5,damping
1780605421.071459,16.6420347999956,16792,0.04541,-0.023438,1.064697,1.053435,3.366412,-0.038168,1.065923,3.527593,1077,1816,739,1077,0,64.286,5,damping
1780605421.109202,16.679777699988335,16823,0.046143,-0.036621,1.044434,1.351145,2.900763,0.198473,1.046094,3.206152,1078,1821,743,1078,1,64.286,18,damping
1780605421.1401901,16.710765899988473,16860,0.032227,-0.011475,1.051514,1.885496,3.122137,-0.480916,1.05207,3.678874,1081,1826,745,1081,0,64.286,0,damping
1780605421.1714754,16.74205109999457,16891,0.025879,-0.013184,1.034424,1.770992,2.671756,-0.366412,1.034831,3.22629,1082,1829,747,1082,1,64.286,18,damping
1780605421.2026699,16.77324559999397,16923,0.061035,-0.035645,1.052246,1.282443,2.755725,-1.068702,1.054617,3.221926,1086,1834,748,1086,0,62.745,5,damping
1780605421.2349007,16.805476399997133,16955,0.039062,-0.029053,1.052002,1.40458,3.038168,-0.732824,1.053128,3.426418,1087,1836,749,1087,0,62.745,5,damping
1780605421.2658982,16.836473999996088,16986,0.031494,-0.03833,1.048096,1.335878,3.526718,-0.503817,1.049269,3.804752,1089,1839,750,1089,1,62.745,16,damping
1780605421.2961454,16.866721099999268,17017,0.022949,-0.028076,1.044678,0.526718,3.358779,-0.183206,1.045307,3.40476,1091,1842,751,1091,0,62.745,5,damping
1780605421.328117,16.898692699993262,17048,0.042725,-0.053467,1.047852,0.656489,2.916031,-0.389313,1.050084,3.014262,1092,1844,752,1092,0,62.745,5,damping
1780605421.3585877,16.92916339999647,17079,0.037598,-0.026611,1.056152,1.564886,2.755725,-0.519084,1.057156,3.211282,1095,1848,753,1095,0,62.745,5,damping
1780605421.390492,16.961067600001115,17110,0.070312,-0.046875,1.063232,2.091603,2.625954,-0.641221,1.066585,3.417836,1096,1850,754,1096,0,62.745,5,damping
1780605421.421023,16.991598699998576,17142,0.047852,-0.030762,1.054443,2.770992,2.641221,-1.419847,1.055977,4.082942,1098,1855,757,1098,1,62.745,4,damping
1780605421.4521084,17.022684099996695,17173,0.054199,-0.008057,1.049072,1.969466,3.274809,-0.618321,1.050502,3.87111,1102,1860,758,1102,0,64.0,5,damping
1780605421.4830892,17.053664899998694,17204,0.043213,-0.027588,1.052246,1.923664,3.099237,-0.854962,1.053494,3.74656,1104,1864,760,1104,0,64.0,1,damping
1780605421.5147758,17.08535139999003,17234,0.037598,-0.040039,1.048096,1.709924,3.580153,-0.801527,1.049534,4.047688,1106,1867,761,1106,1,64.0,17,damping
1780605421.5452316,17.115807199996198,17266,0.039795,-0.023193,1.067139,1.519084,3.244275,-0.603053,1.068132,3.632714,1110,1872,762,1110,0,64.0,5,damping
1780605421.5754018,17.14597749999666,17297,0.036133,-0.047119,1.05249,1.519084,3.229008,-0.770992,1.054164,3.650827,1111,1874,763,1111,0,64.0,6,damping
1780605421.6079419,17.178517499996815,17328,0.042725,-0.017822,1.054199,1.969466,2.824427,-0.854962,1.055215,3.547836,1114,1878,764,1114,0,64.0,5,damping
1780605421.638312,17.208887799992226,17359,0.025635,-0.01416,1.062744,1.312977,3.48855,-0.679389,1.063148,3.78886,1115,1880,765,1115,0,64.0,5,damping
1780605421.669582,17.240157699998235,17390,0.04541,-0.0271,1.056885,1.91603,2.633588,-1.145038,1.058207,3.452256,1116,1883,767,1116,1,64.0,18,damping
1780605421.7019582,17.27253399998881,17422,0.053711,-0.011475,1.053711,1.435114,3.160305,-0.885496,1.055141,3.582065,1118,1886,768,1118,0,64.0,5,damping
1780605421.7315805,17.30215619999217,17453,0.043945,-0.029297,1.058594,1.816794,2.824427,-1.091603,1.05991,3.53125,1119,1888,769,1119,0,60.714,5,damping
1780605421.7641764,17.334751999995206,17484,0.048828,-0.029785,1.056396,1.877863,3.48855,-0.320611,1.057944,3.974813,1123,1895,772,1123,1,60.714,3,damping
1780605421.7948904,17.365465999988373,17515,0.030518,-0.023438,1.059326,1.068702,2.687023,-0.603053,1.060025,2.953962,1125,1898,773,1125,0,60.714,5,damping
1780605421.8244772,17.395052899999428,17546,0.038086,-0.057861,1.048584,1.10687,3.687023,-0.229008,1.05087,3.85639,1127,1902,775,1127,0,60.714,0,damping
1780605421.856236,17.42681169998832,17576,0.056885,-0.030518,1.058838,1.641221,3.351145,-0.305344,1.060804,3.74393,1130,1906,776,1130,0,60.714,5,damping
1780605421.8875518,17.45812759999535,17608,0.063965,-0.052979,1.065918,1.625954,3.244275,-0.625954,1.069149,3.682508,1133,1910,777,1133,0,60.714,5,damping
1780605421.9190867,17.489662399995723,17639,0.028809,-0.021484,1.050537,1.717557,3.030534,-0.80916,1.051152,3.576155,1134,1913,779,1134,1,60.714,17,damping
1780605421.950716,17.52129169998807,17671,0.050293,-0.02124,1.056396,1.59542,3.343511,-0.946565,1.057806,3.823666,1136,1916,780,1136,0,60.714,5,damping
1780605421.9815896,17.5521652999887,17702,0.047852,-0.026367,1.061279,2.198473,2.816794,-1.061069,1.062685,3.727396,1137,1918,781,1137,0,60.714,5,damping
1780605422.012711,17.58328679999977,17733,0.044678,-0.039551,1.051514,2.175573,3.007634,-0.679389,1.053205,3.773665,1140,1923,783,1140,1,75.0,14,damping
1780605422.043981,17.61455689999275,17764,0.024658,-0.022949,1.050293,1.015267,3.351145,-0.473282,1.050833,3.533403,1142,1926,784,1142,0,75.0,5,damping
1780605422.07407,17.644645599997602,17795,0.047119,-0.049805,1.046631,0.793893,3.740458,-0.114504,1.048874,3.825494,1143,1928,785,1143,0,75.0,5,damping
1780605422.1049907,17.675566499994602,17826,0.045654,-0.028076,1.058594,1.687023,3.251908,-0.328244,1.05995,3.678138,1147,1934,787,1147,0,75.0,5,damping
1780605422.1376479,17.708223599998746,17857,0.043213,-0.037598,1.05957,1.175572,2.725191,-0.618321,1.061117,3.031659,1148,1936,788,1148,0,75.0,5,damping
1780605422.16858,17.739155699993717,17889,0.051025,-0.023926,1.062744,2.038168,2.59542,-1.160305,1.064237,3.498091,1149,1939,790,1149,1,75.0,17,damping
1780605422.199814,17.7703896999883,17920,0.049072,-0.02417,1.055176,1.755725,2.80916,-0.816794,1.056593,3.411906,1152,1944,792,1152,0,75.0,1,damping
1780605422.2309353,17.801511099998606,17951,0.030518,-0.034668,1.055664,2.022901,2.755725,-0.862595,1.056674,3.525652,1153,1946,793,1153,0,75.0,5,damping
1780605422.2621944,17.83277019999514,17982,0.043945,-0.038574,1.054932,2.129771,3.152672,-0.427481,1.056551,3.828577,1156,1950,794,1156,0,75.0,5,damping
1780605422.2926807,17.863256500000716,18013,0.015381,-0.027832,1.049316,1.312977,3.221374,-0.526718,1.049798,3.518322,1159,1954,795,1159,0,67.857,5,damping
1780605422.323722,17.894297599996207,18044,0.060547,-0.032471,1.055664,1.251908,3.412214,-0.343511,1.057897,3.650819,1160,1956,796,1160,0,67.857,5,damping
1780605422.3543253,17.92490089999046,18075,0.033936,-0.012939,1.058106,1.427481,3.259542,-0.145038,1.058729,3.56137,1165,1962,797,1165,0,67.857,5,damping
1780605422.386645,17.957220700001926,18106,0.025391,-0.042236,1.054199,1.274809,2.938931,-0.580153,1.05535,3.255616,1166,1964,798,1166,0,67.857,5,damping
1780605422.4178758,17.988451500001247,18138,0.054443,-0.030762,1.070801,1.900763,2.221374,-1.221374,1.072625,3.168463,1167,1967,800,1167,1,67.857,17,damping
1780605422.448584,18.019159699993907,18169,0.056885,-0.026611,1.05835,1.572519,3.137405,-0.78626,1.060211,3.596433,1171,1972,801,1171,0,67.857,5,damping
1780605422.4807782,18.051353999995627,18200,0.035889,-0.043945,1.050293,1.854962,2.549618,-0.931298,1.051824,3.287666,1172,1974,802,1172,0,67.857,5,damping
1780605422.5116398,18.082215499991435,18231,0.055664,-0.041992,1.061035,2.450382,3.175573,-0.351145,1.063324,4.026405,1175,1978,803,1175,0,67.857,5,damping
1780605422.5430248,18.113600500000757,18263,0.050537,-0.03418,1.061035,1.587786,2.954198,-0.526718,1.062788,3.394965,1176,1980,804,1176,0,68.0,5,damping
1780605422.573357,18.143932899998617,18294,0.050781,-0.029053,1.040039,1.450382,3.19084,-0.129771,1.041683,3.507408,1177,1983,806,1177,1,68.0,18,damping
1780605422.6044023,18.174977999995463,18325,0.046143,-0.024902,1.067139,1.19084,2.89313,-0.267176,1.068426,3.140013,1179,1986,807,1179,0,68.0,5,damping
1780605422.639508,18.21008379998966,18356,0.051025,-0.031494,1.067383,1.412214,2.679389,-0.549618,1.069066,3.078239,1180,1988,808,1180,0,68.0,5,damping
1780605422.666224,18.23679969999648,18387,0.043213,-0.016113,1.059326,1.740458,2.381679,-1.259542,1.06033,3.207497,1181,1991,810,1181,1,68.0,17,damping
1780605422.6974845,18.268060299989884,18418,0.049805,-0.000488,1.057861,1.40458,2.358779,-1.305344,1.059033,3.039836,1185,1996,811,1185,0,68.0,5,damping
1780605422.7290049,18.2995804999955,18449,0.039795,-0.034424,1.065186,1.755725,2.274809,-0.862595,1.066484,3.000233,1187,2000,813,1187,0,68.0,0,damping
1780605422.7591057,18.329681299990625,18480,0.054932,-0.036377,1.058838,2.0,2.725191,-0.396947,1.060886,3.403562,1190,2004,814,1190,0,68.0,5,damping
1780605422.7888346,18.359410399993067,18510,0.034912,-0.033203,1.061279,1.229008,3.198473,-0.694656,1.062372,3.496175,1191,2006,815,1191,0,68.0,5,damping
1780605422.8199313,18.390507099989918,18541,0.069092,-0.039551,1.056396,1.374046,2.816794,-0.687023,1.059392,3.208478,1192,2008,816,1192,0,57.554,5,damping
1780605422.8516867,18.422262499996577,18572,0.064453,-0.04248,1.057861,1.748092,2.992366,-0.045802,1.060674,3.465859,1195,2012,817,1195,0,57.554,6,damping
1780605422.8829439,18.45351949999167,18603,0.072266,-0.01416,1.061768,1.160305,2.992366,-0.129771,1.064318,3.212072,1196,2014,818,1196,0,57.554,5,damping
1780605422.9142003,18.48477609999827,18634,0.03418,-0.02002,1.056641,1.572519,2.671756,-0.053435,1.057383,3.100637,1197,2017,820,1197,1,57.554,18,damping
1780605422.9438815,18.514457299999776,18665,0.025879,-0.005859,1.051514,1.076336,2.839695,-0.938931,1.051848,3.178672,1199,2020,821,1199,0,57.554,5,damping
1780605422.9759963,18.54657189999125,18696,0.030273,-0.012451,1.058594,1.763359,2.580153,-0.885496,1.0591,3.248188,1200,2022,822,1200,0,57.554,5,damping
1780605423.006502,18.57707769999979,18727,0.020752,-0.024902,1.049072,2.21374,3.030534,-1.381679,1.049573,3.999228,1201,2025,824,1201,1,57.554,18,damping
1780605423.038366,18.608941899990896,18758,0.039307,-0.013428,1.049072,0.916031,2.580153,-0.862595,1.049894,2.870604,1205,2030,825,1205,0,57.554,5,damping
1780605423.070887,18.64146279999113,18790,0.069092,-0.035645,1.060303,1.374046,3.625954,-0.549618,1.063149,3.916328,1207,2034,827,1207,0,57.554,0,damping
1780605423.1006231,18.671198799987906,18821,0.077637,-0.0354,1.057373,1.740458,2.847328,0.10687,1.06081,3.338846,1210,2038,828,1210,0,64.286,5,damping
1780605423.1309028,18.701478599992697,18852,0.079834,-0.025146,1.063721,1.450382,3.519084,-0.198473,1.067009,3.811424,1211,2040,829,1211,0,64.286,5,damping
1780605423.1627746,18.733350299997255,18883,0.040771,-0.026855,1.043701,1.290076,3.076336,-0.076336,1.044842,3.33676,1212,2045,833,1212,1,64.286,18,damping
1780605423.1931355,18.76371119999385,18914,0.040527,-0.011963,1.052734,1.519084,2.656489,-0.740458,1.053582,3.148464,1215,2050,835,1215,0,64.286,0,damping
1780605423.223658,18.794233699998586,18945,0.057129,-0.023193,1.059814,1.274809,2.832061,-0.847328,1.061606,3.219266,1216,2052,836,1216,0,64.286,5,damping
1780605423.255563,18.826138799995533,18976,0.038086,-0.014893,1.057129,2.244275,2.755725,-1.10687,1.05792,3.722358,1217,2055,838,1217,1,64.286,17,damping
1780605423.2867754,18.857350999998744,19007,0.030273,-0.008545,1.044922,0.908397,2.854962,-0.89313,1.045395,3.126288,1219,2058,839,1219,0,64.286,5,damping
1780605423.317576,18.88815159999649,19038,0.028564,-0.033203,1.051514,1.656489,3.061069,-0.992366,1.052425,3.619238,1222,2062,840,1222,0,64.286,5,damping
1780605423.349283,18.919858699999168,19070,0.040527,-0.029541,1.051025,1.381679,2.656489,-0.160305,1.052221,2.998611,1225,2066,841,1225,0,64.286,6,damping
1780605423.381953,18.952528800000437,19102,0.04834,-0.041016,1.060791,0.854962,3.763359,-0.572519,1.062684,3.901488,1226,2068,842,1226,0,56.94,5,damping
1780605423.4133587,18.983934499992756,19133,0.022705,-0.024658,1.045166,1.725191,2.916031,-0.648855,1.045703,3.449715,1228,2073,845,1228,1,56.94,14,damping
1780605423.4432328,19.01380839999183,19164,0.03125,-0.016602,1.057861,1.290076,2.862595,-0.450382,1.058453,3.172001,1230,2076,846,1230,0,56.94,5,damping
1780605423.472186,19.04276189999655,19194,0.009277,-0.007324,1.053467,1.312977,2.114504,-1.045802,1.053533,2.699766,1231,2078,847,1231,0,56.94,5,damping
1780605423.50441,19.074985799990827,19224,0.057129,-0.03418,1.062012,2.122137,2.48855,-0.954198,1.064096,3.406881,1232,2083,851,1232,1,56.94,18,damping
1780605423.534287,19.104862799998955,19255,0.047852,-0.023682,1.055664,1.839695,2.419847,-0.900763,1.057013,3.170412,1235,2088,853,1235,0,56.94,1,damping
1780605423.5656712,19.136246900001424,19286,0.039307,-0.018311,1.058594,2.229008,2.091603,-1.198473,1.059482,3.283233,1236,2090,854,1236,0,56.94,5,damping
1780605423.596006,19.166581699988456,19317,0.037354,-0.034668,1.053711,2.099237,2.618321,-0.770992,1.054943,3.443374,1238,2093,855,1238,1,56.94,16,damping
1780605423.6274354,19.19801120000193,19348,0.038574,-0.031494,1.054199,1.312977,2.229008,-0.793893,1.055375,2.70604,1240,2096,856,1240,0,56.94,5,damping
1780605423.6735916,19.24416729999939,19379,0.049805,-0.037598,1.056396,1.19084,3.290076,-0.664122,1.058238,3.561427,1241,2100,859,1241,0,54.152,4,damping
1780605423.6890547,19.259630499989726,19410,0.023926,-0.015381,1.050293,1.534351,2.648855,0.015267,1.050678,3.061192,1244,2104,860,1244,0,54.152,5,damping
1780605423.7202368,19.29081249999581,19441,0.033447,-0.038574,1.069092,1.312977,3.396947,-0.374046,1.07031,3.66102,1245,2106,861,1245,0,54.152,5,damping
1780605423.7518766,19.32245239999611,19472,0.025146,-0.019775,1.043945,1.778626,3.183206,-0.305344,1.044435,3.659173,1247,2111,864,1247,1,54.152,14,damping
1780605423.7839344,19.354510099990875,19503,0.054688,-0.026123,1.062256,1.274809,2.839695,-0.633588,1.063983,3.176545,1249,2114,865,1249,0,54.152,5,damping
1780605423.8156798,19.38625559999491,19535,0.047119,-0.030518,1.055908,1.832061,2.458015,-1.08397,1.0574,3.251658,1251,2117,866,1251,0,54.152,14,damping
1780605423.847848,19.418423600000096,19567,0.044922,-0.022705,1.054932,1.656489,3.221374,-0.419847,1.056132,3.64657,1255,2122,867,1255,0,54.152,6,damping
1780605423.8795958,19.450171499993303,19599,0.05127,-0.021484,1.059814,1.763359,3.091603,-0.412214,1.061271,3.582927,1257,2126,869,1257,0,54.152,0,damping
1780605423.9098775,19.48045319999801,19630,0.0354,-0.026611,1.056641,1.610687,2.48855,-0.137405,1.057568,2.967502,1258,2129,871,1258,1,67.729,17,damping
1780605423.942061,19.51263659998949,19661,0.053711,-0.013672,1.053467,1.709924,3.351145,-0.862595,1.054924,3.859804,1260,2132,872,1260,0,67.729,5,damping
1780605423.9723601,19.542935899997246,19693,0.022217,-0.017578,1.048584,2.015267,2.564885,-0.946565,1.048966,3.396458,1261,2134,873,1261,0,67.729,4,damping
1780605424.0032964,19.573872099994333,19724,0.022217,-0.00293,1.052734,1.938931,3.221374,-1.068702,1.052973,3.908814,1263,2137,874,1263,1,67.729,18,damping
1780605424.0345793,19.605154899996705,19754,0.052979,-0.011719,1.060791,1.419847,2.610687,-0.679389,1.062178,3.048479,1265,2140,875,1265,0,67.729,5,damping
1780605424.0659308,19.636506599999848,19785,0.033691,-0.012695,1.054199,1.40458,2.656489,-1.183206,1.054814,3.229513,1266,2142,876,1266,0,67.729,5,damping
1780605424.0971363,19.667711899994174,19817,0.056641,-0.037842,1.050049,1.59542,2.687023,-0.221374,1.052256,3.132804,1270,2148,878,1270,0,67.729,6,damping
1780605424.1275916,19.698167399998056,19848,0.033203,-0.008301,1.061035,1.175572,3.717557,-0.038168,1.061587,3.899187,1271,2150,879,1271,0,67.729,5,damping
1780605424.1582277,19.728803499994683,19879,0.048096,-0.023926,1.053223,1.221374,2.847328,-0.099237,1.054592,3.09982,1273,2155,882,1273,1,67.729,3,damping
1780605424.1889687,19.759544299988193,19910,0.058838,-0.016846,1.061768,1.740458,3.29771,-0.564886,1.06353,3.771363,1275,2158,883,1275,0,60.714,5,damping
1780605424.220705,19.791280699995696,19940,0.038574,-0.044434,1.052002,1.709924,2.969466,-0.51145,1.053646,3.464556,1277,2162,885,1277,0,60.714,0,damping
1780605424.251422,19.821997699997155,19971,0.010254,-0.035889,1.046631,2.129771,2.801527,-0.801527,1.047296,3.609283,1278,2165,887,1278,1,60.714,18,damping
1780605424.28123,19.85180579998996,20002,0.055664,-0.013916,1.062012,1.717557,3.0,-0.770992,1.06356,3.541812,1282,2170,888,1282,0,60.714,4,damping
1780605424.3118734,19.882449099997757,20032,0.01709,-0.019287,1.053955,1.671756,2.580153,-0.778626,1.05427,3.171469,1283,2172,889,1283,0,60.714,5,damping
1780605424.3410168,19.911592599994037,20063,0.025146,-0.009521,1.05127,2.59542,2.480916,-1.40458,1.051613,3.855385,1284,2175,891,1284,1,60.714,17,damping
1780605424.3720949,19.942670499993255,20093,0.012451,-0.002441,1.040772,1.29771,2.679389,-0.832061,1.040849,3.091198,1286,2178,892,1286,0,60.714,5,damping
1780605424.4029634,19.97353909999947,20123,0.040527,-0.020752,1.066406,1.877863,2.374046,-0.839695,1.067378,3.141265,1287,2180,893,1287,0,60.714,5,damping
1780605424.4336858,20.004261499998393,20154,0.034424,-0.013916,1.054443,2.053435,2.877863,-1.206107,1.055097,3.735423,1289,2183,894,1289,1,60.714,17,damping
1780605424.4644136,20.03498939999554,20185,0.033936,-0.029785,1.048096,0.969466,2.442748,-0.847328,1.049068,2.761312,1291,2186,895,1291,0,58.182,4,damping
1780605424.4960103,20.066585900000064,20216,0.026367,-0.037598,1.057373,1.206107,3.534351,-0.358779,1.05837,3.751674,1294,2190,896,1294,0,58.182,0,damping
1780605424.528217,20.098792799995863,20248,0.028809,-0.018311,1.048096,1.450382,3.206107,-0.664122,1.048651,3.581032,1297,2194,897,1297,0,58.182,5,damping
1780605424.5594616,20.130037199996877,20279,0.042236,-0.043213,1.063232,1.618321,3.236641,-0.244275,1.064948,3.62691,1299,2198,899,1299,0,58.182,1,damping
1780605424.590091,20.160666600000695,20310,0.055664,-0.032471,1.060547,1.633588,3.114504,-0.633588,1.062503,3.573538,1300,2201,901,1300,1,58.182,17,damping
1780605424.621981,20.19255659999908,20342,0.025146,-0.007324,1.057373,1.282443,3.030534,-0.839695,1.057697,3.396157,1304,2206,902,1304,0,58.182,5,damping
1780605424.6533203,20.223896099996637,20373,0.049561,-0.022217,1.071533,1.832061,2.51145,-0.816794,1.072909,3.214184,1305,2208,903,1305,0,58.182,4,damping
1780605424.693667,20.26424269999552,20404,0.061279,-0.021729,1.053711,2.251908,3.137405,-0.351145,1.055715,3.877848,1308,2212,904,1308,0,58.182,5,damping
1780605424.7162933,20.286868999988656,20436,0.056885,-0.029785,1.064941,1.687023,2.946565,-0.320611,1.066875,3.410437,1309,2214,905,1309,0,71.713,5,damping
1780605424.7461083,20.316683999990346,20467,0.080566,-0.020752,1.050537,1.465649,3.29771,0.21374,1.053826,3.615066,1310,2217,907,1310,1,71.713,18,damping
1780605424.778081,20.348656599991955,20498,0.034668,-0.030762,1.051025,1.633588,2.763359,-0.435114,1.052047,3.239458,1312,2220,908,1312,0,71.713,5,damping
1780605424.8100128,20.380588499989244,20530,0.026367,-0.017578,1.055176,1.694656,2.801527,-0.580153,1.055652,3.325205,1313,2222,909,1313,0,71.713,5,damping
1780605424.8410745,20.411650099995313,20561,0.015381,-0.006836,1.054199,2.206107,2.480916,-1.183206,1.054334,3.524462,1315,2225,910,1315,1,71.713,17,damping
1780605424.8709164,20.441491999998107,20592,0.015869,-0.025879,1.039307,0.801527,3.137405,-0.557252,1.03975,3.28577,1317,2228,911,1317,0,71.713,5,damping
1780605424.9035635,20.474139199999627,20623,0.013672,-0.012695,1.054443,1.687023,2.778626,-1.167939,1.054608,3.454112,1319,2232,913,1319,0,71.713,0,damping
1780605424.9333687,20.503944500000216,20654,0.060303,-0.03125,1.060059,1.633588,3.083969,-0.389313,1.062232,3.511558,1322,2236,914,1322,0,71.713,5,damping
1780605424.9646118,20.535187599991332,20685,0.05249,-0.019043,1.054443,1.694656,3.137405,-0.251908,1.055921,3.57472,1325,2240,915,1325,0,71.713,5,damping
1780605424.996178,20.566753599996446,20716,0.072021,-0.020264,1.045166,1.419847,2.977099,0.374046,1.04784,3.319487,1326,2243,917,1326,1,60.714,18,damping
1780605425.0265088,20.597084499997436,20747,0.040527,-0.033936,1.054688,1.664122,2.877863,-0.625954,1.056011,3.382782,1330,2248,918,1330,0,60.714,5,damping
1780605425.0572374,20.62781299999915,20778,0.050781,-0.021973,1.058838,1.70229,2.557252,-0.816794,1.060283,3.178754,1331,2250,919,1331,0,60.714,5,damping
1780605425.088536,20.659111799992388,20808,0.02124,-0.033203,1.040283,1.778626,3.374046,-0.717557,1.04103,3.881055,1333,2255,922,1333,1,60.714,14,damping
1780605425.1187534,20.68932920000225,20839,0.057129,-0.014648,1.062744,1.251908,3.412214,-0.427481,1.064379,3.659675,1335,2258,923,1335,0,60.714,5,damping
1780605425.1499622,20.72053789999336,20870,0.020508,-0.025391,1.063232,1.89313,2.900763,-0.549618,1.063733,3.5072,1336,2260,924,1336,0,60.714,4,damping
1780605425.1810076,20.75158339999325,20901,0.042725,-0.049316,1.063477,1.954198,3.0,-0.877863,1.065476,3.686398,1339,2265,926,1339,1,60.714,4,damping
1780605425.2122242,20.7827999000001,20932,0.048584,-0.039307,1.059326,1.40458,2.816794,-0.625954,1.061168,3.209204,1341,2268,927,1341,0,60.714,5,damping
1780605425.2433703,20.813945999994758,20963,0.046631,-0.032471,1.04834,1.068702,3.145038,-1.076336,1.049879,3.491688,1342,2270,928,1342,0,60.714,5,damping
1780605425.2748709,20.84544659999665,20994,0.0354,-0.024902,1.05127,1.51145,2.900763,-0.496183,1.05216,3.308339,1345,2274,929,1345,0,68.345,6,damping
1780605425.3068657,20.877441299991915,21026,0.030029,-0.040771,1.061768,1.442748,3.152672,-0.541985,1.062974,3.509218,1348,2278,930,1348,0,68.345,5,damping
1780605425.3372247,20.907800399989355,21058,0.073975,-0.035156,1.060547,2.358779,3.206107,-0.916031,1.063705,4.084369,1349,2281,932,1349,1,68.345,18,damping
1780605425.3675573,20.93813299998874,21089,0.06543,-0.008301,1.052002,1.40458,2.648855,-0.694656,1.054067,3.077633,1353,2286,933,1353,0,68.345,5,damping
1780605425.3995771,20.970152900001267,21120,0.03418,-0.031006,1.057861,1.59542,2.740458,-0.916031,1.058867,3.300695,1354,2288,934,1354,0,68.345,5,damping
1780605425.4306393,21.001215099997353,21151,0.041748,-0.037842,1.044434,2.145038,3.045802,-0.312977,1.045952,3.738456,1358,2294,936,1358,0,68.345,5,damping
1780605425.4615247,21.032100500000524,21183,0.04248,-0.006348,1.055664,1.328244,3.40458,-0.305344,1.056538,3.667238,1359,2296,937,1359,0,68.345,5,damping
1780605425.4921205,21.062696099994355,21213,0.05249,-0.026611,1.041504,1.236641,3.70229,0.19084,1.043165,3.908024,1360,2298,938,1360,0,68.345,5,damping
1780605425.5243106,21.09488639999472,21244,0.025391,-0.036133,1.051514,1.496183,2.992366,-0.412214,1.052441,3.370866,1363,2302,939,1363,0,72.0,5,damping
1780605425.5545347,21.12511039999663,21275,0.047363,-0.049072,1.065186,1.259542,3.419847,-0.503817,1.067367,3.67908,1364,2304,940,1364,0,72.0,5,damping
1780605425.5858839,21.156459499994526,21306,0.011719,-0.027344,1.047119,1.89313,3.282443,-0.839695,1.047542,3.881167,1365,2307,942,1365,1,72.0,18,damping
1780605425.6179132,21.188488999992842,21338,0.060059,-0.025635,1.056641,1.824428,3.221374,-0.610687,1.058656,3.752162,1375,2318,943,1375,0,72.0,1,damping
1780605425.6491537,21.219729399992502,21369,0.052979,-0.026855,1.053711,1.450382,2.969466,-0.992366,1.055384,3.450525,1376,2320,944,1376,0,72.0,5,damping
1780605425.67999,21.250565700000152,21400,0.040283,-0.038818,1.049805,2.465649,2.847328,-0.755725,1.051294,3.841591,1379,2324,945,1379,0,72.0,5,damping
1780605425.7103908,21.280966599995736,21431,0.056152,-0.023438,1.05957,1.51145,2.725191,-0.496183,1.061316,3.155526,1382,2328,946,1382,0,72.0,5,damping
1780605425.7424698,21.31304559999262,21462,0.039795,-0.018799,1.049072,1.908397,3.053435,-0.305344,1.049995,3.61368,1383,2330,947,1383,0,72.0,5,damping
1780605425.7730944,21.343670199988992,21493,0.025635,-0.024902,1.049316,1.427481,2.969466,-0.816794,1.049925,3.394493,1388,2336,948,1388,0,72.0,5,damping
1780605425.8039558,21.37453159999859,21524,0.051025,-0.052734,1.058838,1.122137,3.709924,-0.122137,1.061377,3.87784,1390,2340,950,1390,0,96.429,0,damping
1780605425.8358965,21.406472099988605,21555,0.032471,-0.02832,1.047363,1.816794,3.366412,-0.419847,1.048249,3.848343,1391,2343,952,1391,1,96.429,18,damping
1780605425.8658082,21.436384000000544,21586,0.052734,-0.021973,1.055908,1.167939,3.236641,-0.496183,1.057452,3.47651,1393,2346,953,1393,0,96.429,5,damping
1780605425.8970187,21.46759439999005,21617,0.028076,-0.025391,1.049072,1.671756,3.366412,-0.748092,1.049755,3.83238,1394,2348,954,1394,0,96.429,5,damping
1780605425.9279923,21.49856799999543,21648,0.039062,-0.016602,1.04834,1.91603,2.870229,-0.709924,1.049199,3.523263,1396,2351,955,1396,1,96.429,17,damping
1780605425.9586284,21.529204099992057,21679,0.03125,-0.029297,1.050781,1.351145,2.015267,-0.687023,1.051654,2.521685,1398,2354,956,1398,0,96.429,5,damping
1780605425.9902472,21.560822899991763,21709,0.024414,-0.016846,1.053955,1.564886,3.053435,-0.816794,1.054372,3.526965,1399,2356,957,1399,0,96.429,5,damping
1780605426.022118,21.59269379999023,21741,0.048584,-0.019043,1.048584,1.51145,2.335878,-0.748092,1.049882,2.88105,1402,2360,958,1402,0,96.429,6,damping
1780605426.0514631,21.62203889999364,21772,0.057861,-0.016113,1.0625,1.59542,2.954198,-0.427481,1.064196,3.384582,1403,2362,959,1403,0,96.429,5,damping
1780605426.082572,21.653147799996077,21803,0.046631,-0.03125,1.052002,1.167939,3.007634,-0.549618,1.053498,3.272922,1404,2365,961,1404,1,50.179,18,damping
1780605426.114471,21.68504669998947,21834,0.038818,-0.01001,1.046875,1.80916,3.229008,-0.900763,1.047642,3.809321,1408,2370,962,1408,0,50.179,5,damping
1780605426.1455452,21.71612089998962,21865,0.040039,-0.015869,1.050293,1.427481,2.290076,-0.732824,1.051176,2.79628,1410,2374,964,1410,0,50.179,0,damping
1780605426.1767106,21.74728630000027,21896,0.050537,-0.031494,1.062988,2.236641,3.114504,-0.938931,1.064655,3.947694,1411,2377,966,1411,1,50.179,18,damping
1780605426.2077658,21.778341600002022,21927,0.019775,-0.024902,1.055176,1.08397,2.931298,-0.526718,1.055655,3.169373,1413,2380,967,1413,0,50.179,5,damping
1780605426.2381577,21.808733500001836,21958,0.025146,-0.017578,1.058594,1.549618,2.954198,-0.946565,1.059038,3.467649,1416,2384,968,1416,0,50.179,5,damping
1780605426.2687476,21.839323299995158,21989,0.054688,-0.030762,1.057861,1.458015,3.137405,-0.29771,1.05972,3.472427,1419,2388,969,1419,0,50.179,5,damping
1780605426.299947,21.870522699988214,22021,0.059082,-0.038818,1.066894,1.534351,3.183206,-0.687023,1.069234,3.599866,1422,2392,970,1422,0,50.179,5,damping
1780605426.3322878,21.902863600000273,22052,0.059082,-0.0354,1.060547,1.78626,3.068702,-0.427481,1.062781,3.576366,1423,2395,972,1423,1,50.179,18,damping
1780605426.3645146,21.935090400002082,22084,0.049561,-0.025879,1.055908,1.717557,3.396947,-0.51145,1.057387,3.840681,1425,2398,973,1425,0,74.733,5,damping
1780605426.3954527,21.966028399998322,22115,0.027588,-0.024658,1.055664,1.641221,2.992366,-0.854962,1.056312,3.518355,1426,2400,974,1426,0,74.733,5,damping
1780605426.426911,21.997486799999024,22146,0.037109,-0.044922,1.052978,1.793893,3.366412,-0.70229,1.054589,3.878659,1428,2403,975,1428,1,74.733,17,damping
1780605426.457827,22.028402700001607,22177,0.036621,-0.025635,1.05835,1.374046,2.175573,-0.656489,1.059293,2.655578,1430,2406,976,1430,0,74.733,5,damping
1780605426.4880276,22.058603199999197,22209,0.03418,-0.04248,1.048096,1.572519,2.40458,-0.335878,1.049513,2.892687,1432,2410,978,1432,0,74.733,0,damping
1780605426.5203319,22.090907599995262,22240,0.017334,-0.021484,1.047607,1.099237,2.480916,-0.793893,1.047971,2.827283,1435,2414,979,1435,0,74.733,5,damping
1780605426.551356,22.121931899993797,22271,0.047363,-0.040771,1.053467,1.480916,3.312977,-0.625954,1.055319,3.682492,1436,2416,980,1436,0,74.733,5,damping
1780605426.5819395,22.15251509999507,22302,0.032959,-0.019043,1.050293,1.984733,3.183206,-0.862595,1.050982,3.849161,1437,2419,982,1437,1,74.733,18,damping
1780605426.6262844,22.196859999996377,22333,0.047119,-0.024658,1.051758,1.625954,3.625954,-0.534351,1.053102,4.009589,1441,2424,983,1441,0,74.733,0,damping
1780605426.6449637,22.215539500000887,22365,0.039551,-0.029053,1.062012,1.59542,3.083969,-1.160305,1.063145,3.660948,1442,2426,984,1442,0,60.498,5,damping
1780605426.6761181,22.246693799999775,22396,0.055664,-0.029053,1.056641,2.183206,3.160305,-0.396947,1.058505,3.861539,1445,2430,985,1445,0,60.498,5,damping
1780605426.7071834,22.2777589999896,22427,0.052979,-0.021973,1.054199,1.473282,2.572519,-0.572519,1.055758,3.019304,1446,2432,986,1446,0,60.498,5,damping
1780605426.7431855,22.313761199999135,22464,0.057129,-0.044922,1.053223,1.778626,3.48855,-0.541985,1.055727,3.95313,1448,2438,990,1448,0,60.498,1,damping
1780605426.774573,22.34514869999839,22494,0.0354,-0.020752,1.062988,1.381679,2.427481,-0.694656,1.06378,2.878237,1449,2440,991,1449,0,60.498,5,damping
1780605426.8048136,22.375389399996493,22525,0.051758,-0.029297,1.051758,1.351145,3.091603,-0.908397,1.053438,3.494108,1450,2442,992,1450,0,60.498,5,damping
1780605426.8369782,22.40755399999034,22556,0.049072,-0.026123,1.063477,1.709924,2.458015,-0.694656,1.064928,3.073796,1454,2448,994,1454,0,60.498,6,damping
1780605426.8681784,22.438753999987966,22588,0.045654,-0.044189,1.05542,1.679389,3.045802,-0.427481,1.057331,3.504283,1455,2450,995,1455,0,60.498,5,damping
1780605426.8993003,22.46987599998829,22619,0.046875,-0.022705,1.046875,1.580153,2.938931,-0.977099,1.04817,3.476913,1456,2453,997,1456,1,55.118,19,damping
1780605426.930848,22.501423699999577,22651,0.040283,0.0,1.049561,0.977099,3.053435,-0.70229,1.050333,3.281981,1458,2456,998,1458,0,55.118,5,damping
1780605426.960587,22.53116269999009,22681,0.032227,-0.024902,1.050781,2.007634,2.587786,-0.519084,1.05157,3.316124,1460,2460,1000,1460,0,55.118,1,damping
1780605426.9921765,22.562752300000284,22712,0.037598,-0.036865,1.062256,2.19084,3.045802,-0.80916,1.06356,3.838154,1462,2463,1001,1462,1,55.118,18,damping
1780605427.023722,22.59429769999406,22743,0.044189,-0.027588,1.057373,1.160305,2.458015,-0.70229,1.058656,2.807376,1466,2468,1002,1466,0,55.118,5,damping
1780605427.0545578,22.6251334999979,22774,0.055176,-0.034668,1.053223,1.007634,2.992366,-0.580153,1.055237,3.210321,1467,2470,1003,1467,0,55.118,5,damping
1780605427.085439,22.656014699998195,22805,0.005615,-0.016357,1.05542,1.458015,2.610687,-0.641221,1.055562,3.058212,1470,2474,1004,1470,0,55.118,5,damping
1780605427.1166523,22.68722789999447,22836,0.03833,-0.026855,1.056152,1.580153,3.030534,-0.274809,1.057189,3.428781,1471,2476,1005,1471,0,55.118,5,damping
1780605427.147854,22.71842979999201,22867,0.03833,-0.032715,1.047363,1.450382,2.465649,-0.534351,1.048575,2.91008,1472,2479,1007,1472,1,55.118,18,damping
1780605427.1781373,22.748712999993586,22898,0.025879,0.000732,1.051758,1.778626,2.854962,-1.10687,1.052076,3.541113,1474,2482,1008,1474,0,64.516,5,damping
1780605427.2102828,22.78085850000207,22929,0.038574,-0.019043,1.054199,1.236641,2.80916,-0.419847,1.055077,3.097892,1475,2484,1009,1475,0,64.516,5,damping
1780605427.2401283,22.810703899987857,22960,0.056641,-0.020264,1.056641,1.748092,3.435115,-0.954198,1.058352,3.970684,1477,2489,1012,1477,1,64.516,4,damping
1780605427.2710712,22.841646899993066,22991,0.02002,-0.005859,1.057373,0.709924,3.793893,-0.496183,1.057579,3.891506,1479,2492,1013,1479,0,64.516,5,damping
1780605427.3015058,22.872081399997114,23022,0.02832,-0.031006,1.05835,1.862595,3.129771,-0.946565,1.059182,3.763072,1481,2496,1015,1481,0,64.516,1,damping
1780605427.333664,22.9042397000012,23053,0.067871,-0.033447,1.06665,2.061069,3.122137,-0.366412,1.069331,3.75899,1484,2500,1016,1484,0,64.516,5,damping
1780605427.365278,22.93585379999422,23085,0.04541,-0.002686,1.068604,1.427481,3.114504,-0.740458,1.069571,3.505155,1487,2504,1017,1487,0,64.516,5,damping
1780605427.3964996,22.967075399996247,23116,0.042725,-0.026855,1.045654,1.80916,2.244275,-0.381679,1.046871,2.907836,1488,2507,1019,1488,1,64.516,17,damping
1780605427.4274776,22.998053299990715,23147,0.046631,-0.016846,1.064697,1.709924,2.656489,-0.931298,1.065851,3.293643,1490,2510,1020,1490,0,64.516,5,damping
1780605427.4585643,23.029139999998733,23178,0.015137,-0.017578,1.056885,1.396947,2.641221,-0.755725,1.057139,3.081985,1491,2512,1021,1491,0,60.714,5,damping
1780605427.488964,23.059539800000493,23209,0.049316,-0.026123,1.057373,2.259542,3.793893,-1.114504,1.058845,4.554259,1492,2515,1023,1492,1,60.714,18,damping
1780605427.5189185,23.089494300002116,23240,0.043945,0.00293,1.045898,1.19084,3.259542,-0.480916,1.046825,3.503426,1494,2518,1024,1494,0,60.714,5,damping
1780605427.5510445,23.12162019999232,23270,0.060791,-0.032227,1.047363,2.045802,3.091603,-0.40458,1.049621,3.729209,1495,2520,1025,1495,0,60.714,5,damping
1780605427.5810869,23.15166269999463,23301,0.031494,-0.035156,1.052734,2.129771,3.694656,-0.435114,1.053792,4.286693,1498,2525,1027,1498,1,60.714,3,damping
1780605427.613037,23.183612799999537,23333,0.022461,-0.025879,1.053711,1.671756,2.793893,-0.519084,1.054268,3.296976,1500,2528,1028,1500,0,60.714,5,damping
1780605427.6434486,23.214024299988523,23364,0.038086,-0.039307,1.046631,1.778626,3.152672,-0.030534,1.048061,3.619915,1502,2532,1030,1502,0,60.714,0,damping
1780605427.674544,23.24511979999079,23395,0.045166,-0.022949,1.045898,1.091603,2.160305,-0.648855,1.047125,2.505899,1505,2536,1031,1505,0,60.714,5,damping
1780605427.7062228,23.276798399994732,23426,0.062988,-0.049805,1.059326,1.183206,2.78626,-0.648855,1.062365,3.095841,1508,2540,1032,1508,0,60.714,5,damping
1780605427.737322,23.30789769999683,23457,0.044678,-0.022217,1.060059,1.343511,3.0,-1.129771,1.061232,3.475832,1509,2543,1034,1509,1,64.516,18,damping
1780605427.7681313,23.338706900001853,23488,0.049805,-0.018311,1.055664,1.351145,3.274809,-0.80916,1.056997,3.633828,1511,2546,1035,1511,0,64.516,5,damping
1780605427.7991748,23.369750599988038,23519,0.052734,-0.020752,1.060059,1.496183,2.664122,-0.832061,1.061572,3.166771,1512,2548,1036,1512,0,64.516,5,damping
1780605427.8307025,23.401278199991793,23551,0.042725,-0.020752,1.054443,2.244275,3.229008,-0.160305,1.055513,3.935602,1515,2552,1037,1515,0,64.516,5,damping
1780605427.8620226,23.4325983000017,23582,0.027832,-0.023682,1.057373,1.015267,2.755725,-0.557252,1.058004,2.9892,1516,2554,1038,1516,0,64.516,5,damping
1780605427.8934045,23.46398010000121,23613,0.040039,-0.046143,1.04541,1.618321,3.259542,-0.259542,1.047194,3.648416,1517,2556,1039,1517,0,64.516,5,damping
1780605427.9240866,23.494662199998857,23644,0.030762,-0.032227,1.050049,1.496183,2.389313,-0.70229,1.050993,2.90527,1521,2562,1041,1521,0,64.516,5,damping
1780605427.9558923,23.526467999996385,23675,0.04541,-0.043213,1.060791,1.358779,2.938931,-0.770992,1.062642,3.328367,1522,2564,1042,1522,0,64.516,5,damping
1780605427.9868295,23.557405300001847,23707,0.055664,-0.033203,1.063477,2.099237,2.801527,-1.442748,1.06545,3.786406,1524,2569,1045,1524,1,60.0,14,damping
1780605428.018072,23.58864750000066,23738,0.059326,-0.030518,1.063477,1.396947,3.10687,-0.51145,1.065567,3.44466,1527,2574,1047,1527,0,60.0,1,damping
1780605428.0492435,23.619819100000313,23769,0.043945,-0.040283,1.064697,1.755725,3.137405,-1.236641,1.066365,3.801994,1528,2576,1048,1528,0,60.0,5,damping
1780605428.0804694,23.651044999991427,23800,0.048584,-0.046143,1.054199,1.969466,3.366412,-0.29771,1.056326,3.911542,1531,2580,1049,1531,0,60.0,5,damping
1780605428.110631,23.681206699999166,23831,0.032715,-0.024658,1.052246,1.183206,2.389313,-0.51145,1.053043,2.714844,1532,2582,1050,1532,0,60.0,5,damping
1780605428.1418817,23.712457299989183,23862,0.037598,-0.023682,1.044678,1.526718,3.396947,-0.122137,1.045622,3.726262,1533,2584,1051,1533,0,60.0,5,damping
1780605428.1719568,23.742532399992342,23893,0.012207,-0.015869,1.051758,1.19084,2.70229,-0.137405,1.051948,2.956239,1536,2588,1052,1536,0,60.0,6,damping
1780605428.203077,23.773652699994273,23923,0.061279,-0.002197,1.060059,1.21374,3.167939,-0.282443,1.061831,3.404229,1537,2590,1053,1537,0,60.0,5,damping
1780605428.2344327,23.805008299998008,23954,0.022949,-0.039551,1.048584,1.374046,2.526718,-0.053435,1.04958,2.876658,1538,2593,1055,1538,1,60.0,17,damping
1780605428.2652018,23.83577749998949,23985,0.029541,-0.010254,1.05127,1.21374,3.198473,-1.0,1.051734,3.564182,1542,2598,1056,1542,0,64.748,5,damping
1780605428.296476,23.867051699999138,24016,0.038086,-0.019531,1.047363,1.274809,2.938931,-0.48855,1.048237,3.240546,1543,2600,1057,1543,0,64.748,5,damping
1780605428.3275669,23.89814259999548,24047,0.03833,-0.029541,1.043213,1.89313,2.519084,-1.152672,1.044335,3.35535,1545,2605,1060,1545,1,64.748,14,damping
1780605428.357967,23.928542699999525,24078,0.057129,-0.019775,1.05542,1.648855,3.236641,-0.51145,1.05715,3.668262,1548,2610,1062,1548,0,64.748,0,damping
1780605428.3887331,23.959308799996506,24109,0.030029,-0.033936,1.063232,1.29771,3.137405,-0.351145,1.064198,3.413306,1549,2612,1063,1549,0,64.748,5,damping
1780605428.4196062,23.990181999994093,24140,0.04126,-0.033203,1.047119,2.458015,3.0,-0.167939,1.048458,3.882015,1552,2616,1064,1552,0,64.748,5,damping
1780605428.4510863,24.021661899998435,24171,0.051758,-0.013184,1.063232,1.206107,2.778626,-0.526718,1.064573,3.074555,1553,2618,1065,1553,0,64.748,5,damping
1780605428.4817996,24.052375300001586,24202,0.037842,-0.021973,1.050781,1.694656,2.725191,-0.40458,1.051692,3.234534,1554,2620,1066,1554,0,64.748,5,damping
1780605428.513557,24.08413269999437,24233,0.032715,-0.024902,1.050781,1.51145,2.396947,-0.824427,1.051585,2.951189,1557,2624,1067,1557,0,64.748,5,damping
1780605428.5441916,24.11476739999489,24264,0.036621,-0.048096,1.060791,1.763359,2.267176,-0.687023,1.062512,2.953222,1558,2626,1068,1558,0,57.348,5,damping
1780605428.5746906,24.145266199993785,24295,0.02832,-0.035156,1.061035,1.954198,2.480916,-1.358779,1.061995,3.43804,1559,2629,1070,1559,1,57.348,18,damping
1780605428.6063323,24.176908099994762,24326,0.064697,-0.035889,1.046143,1.045802,3.114504,-0.793893,1.048755,3.379956,1563,2634,1071,1563,0,57.348,5,damping
1780605428.635766,24.206341799988877,24357,0.054688,-0.030029,1.05542,2.083969,2.70229,-0.862595,1.057262,3.519854,1564,2636,1072,1564,0,57.348,4,damping
1780605428.6675165,24.23809230000188,24387,0.049316,-0.01001,1.059082,2.80916,2.732824,-0.80916,1.060277,4.001806,1566,2641,1075,1566,1,57.348,14,damping
1780605428.697443,24.268018699993263,24418,0.060303,-0.009277,1.055176,1.770992,3.541985,-0.396947,1.056938,3.979904,1569,2646,1077,1569,0,57.348,0,damping
1780605428.7298443,24.300419999999576,24449,0.050293,-0.026367,1.063477,1.854962,2.770992,-0.954198,1.064992,3.468397,1570,2648,1078,1570,0,57.348,5,damping
1780605428.761286,24.33186169998953,24480,0.047119,-0.03418,1.050049,2.206107,2.725191,-0.351145,1.051661,3.523759,1573,2652,1079,1573,0,57.348,6,damping
1780605428.7932348,24.36381049999909,24512,0.0354,-0.033203,1.068604,1.183206,3.129771,-0.183206,1.069705,3.350971,1574,2654,1080,1574,0,57.348,5,damping
1780605428.8255649,24.39614050000091,24544,0.048584,-0.020752,1.055176,2.137405,2.564885,-1.10687,1.056497,3.517428,1575,2657,1082,1575,1,60.714,17,damping
1780605428.8568866,24.42746229999466,24576,0.047363,-0.014404,1.047363,1.503817,3.114504,-0.694656,1.048533,3.527626,1579,2662,1083,1579,0,60.714,5,damping
1780605428.888088,24.458663600002183,24607,0.044189,-0.029053,1.059814,1.740458,2.847328,-0.717557,1.061133,3.413409,1580,2664,1084,1580,0,60.714,5,damping
1780605428.9191792,24.48975480000081,24638,0.034424,-0.026367,1.044678,1.900763,3.427481,-0.374046,1.045577,3.93706,1583,2668,1085,1583,0,60.714,5,damping
1780605428.9494548,24.520030599989695,24670,0.046387,-0.007324,1.060059,1.618321,2.854962,-0.51145,1.061098,3.321348,1586,2672,1086,1586,0,60.714,5,damping
1780605428.9807787,24.55135429999791,24701,0.048096,-0.009766,1.045166,1.229008,2.129771,-0.541985,1.046318,2.517962,1587,2675,1088,1587,1,60.714,18,damping
1780605429.012116,24.58269169999403,24732,0.031006,-0.031982,1.04834,1.564886,2.091603,-0.793893,1.049286,2.73019,1589,2678,1089,1589,0,60.714,5,damping
