host_epoch_s,host_elapsed_s,time_ms,ax,ay,az,gx,gy,gz,acc_mag,gyro_mag,pulse_count,edge_count,rise_count,fall_count,state,pulse_rate_hz,last_edge_dt_ms,label
1780598338.049916,0.017340999998850748,282405,0.054688,-0.002686,1.052246,1.221374,2.519084,-0.328244,1.05367,2.818738,6763,11257,4493,6763,0,104.693,1,load
1780598338.0834703,0.05089510000834707,282436,0.032959,-0.050781,1.049072,0.816794,2.21374,-1.007634,1.050818,2.56576,6764,11259,4494,6764,0,104.693,5,load
1780598338.1125867,0.08001150000200141,282467,0.064453,-0.015137,1.053955,3.015267,3.236641,-0.358779,1.056032,4.438063,6767,11264,4496,6767,1,104.693,14,load
1780598338.1446733,0.1120980999985477,282498,0.046143,-0.022217,1.045654,0.374046,2.175573,-1.335878,1.046908,2.580232,6772,11271,4498,6772,0,111.111,0,load
1780598338.1751244,0.1425491999980295,282529,0.026855,-0.025635,1.047607,2.458015,2.610687,-0.656489,1.048265,3.64534,6774,11276,4501,6774,1,111.111,14,load
1780598338.2076957,0.17512070000520907,282561,0.028564,-0.015625,1.045166,1.541985,1.877863,-0.633588,1.045673,2.511079,6779,11283,4503,6779,0,111.111,0,load
1780598338.237764,0.20518869999796152,282592,0.053711,-0.010742,1.074463,0.625954,2.763359,-0.916031,1.075858,2.977765,6781,11287,4505,6781,0,111.111,1,load
1780598338.2683055,0.23573030000261497,282623,0.059814,-0.052734,1.042969,2.89313,3.541985,-0.48855,1.046013,4.599406,6784,11292,4507,6784,1,111.111,14,load
1780598338.2994096,0.2668344999983674,282654,0.030762,-0.012451,1.04834,0.732824,2.061069,-0.78626,1.048865,2.324487,6789,11299,4509,6789,0,111.111,1,load
1780598338.3304887,0.29791360000672285,282685,0.032227,-0.035645,1.060059,1.854962,2.328244,-0.969466,1.061147,3.13073,6791,11303,4511,6791,0,111.111,0,load
1780598338.36182,0.3292449000000488,282717,0.052246,-0.028809,1.048584,1.885496,2.625954,-0.946565,1.05028,3.368489,6795,11310,4514,6795,1,111.111,3,load
1780598338.3917935,0.35921830000006594,282747,0.04834,-0.006104,1.059082,0.618321,3.267176,-0.916031,1.060202,3.449039,6798,11315,4516,6798,0,111.111,0,load
1780598338.424164,0.39158900000620633,282778,0.025879,-0.061523,1.049316,2.061069,2.839695,-0.244275,1.051437,3.51732,6800,11320,4519,6800,1,100.0,13,load
1780598338.4544356,0.4218604000052437,282809,0.033936,-0.005371,1.058838,1.580153,2.358779,-0.610687,1.059395,2.904076,6805,11327,4521,6805,0,100.0,1,load
1780598338.485115,0.45253999999840744,282840,0.001221,-0.04541,1.029297,0.671756,2.610687,-1.076336,1.030299,2.902661,6807,11331,4523,6807,0,100.0,0,load
1780598338.5148692,0.48229410000203643,282871,0.057617,-0.008057,1.053467,3.29771,3.541985,-0.366412,1.055072,4.853329,6811,11337,4525,6811,0,100.0,6,load
1780598338.5473628,0.5147875999973621,282901,0.029785,-0.023682,1.053467,0.244275,2.541985,-1.08397,1.054154,2.774229,6815,11343,4527,6815,0,100.0,0,load
1780598338.575897,0.543321899996954,282932,0.021729,-0.042969,1.053467,1.70229,2.305344,-0.900763,1.054566,3.00396,6817,11347,4529,6817,0,100.0,1,load
1780598338.608113,0.5755380000045989,282962,0.041016,-0.032959,1.054199,2.389313,3.366412,-0.351145,1.055512,4.143048,6821,11353,4531,6821,0,100.0,5,load
1780598338.6394517,0.6068765000090934,282994,0.044922,-0.016602,1.055908,0.877863,3.312977,-0.725191,1.056994,3.503193,6825,11359,4533,6825,0,100.0,0,load
1780598338.670003,0.6374279000010574,283025,0.009521,-0.059814,1.043457,1.946565,2.641221,-0.358779,1.045213,3.300589,6827,11364,4536,6827,1,100.0,14,load
1780598338.7006786,0.6681034000066575,283056,0.031982,-0.013916,1.050781,1.732824,2.48855,-0.450382,1.05136,3.065682,6832,11371,4538,6832,0,115.108,0,load
1780598338.7325625,0.6999875000037719,283087,0.040283,-0.071045,1.043213,0.984733,2.78626,-0.557252,1.046405,3.007236,6834,11375,4540,6834,0,115.108,1,load
1780598338.7628028,0.7302277999988291,283118,0.068848,-0.003662,1.053467,3.099237,4.114504,-0.40458,1.05572,5.16702,6837,11379,4541,6837,0,115.108,5,load
1780598338.7940478,0.7614726000028895,283148,0.035156,-0.021973,1.047607,-0.259542,3.251908,-0.80916,1.048427,3.361102,6841,11385,4543,6841,0,115.108,0,load
1780598338.8255968,0.7930216000095243,283179,0.048584,-0.040039,1.049072,2.717557,2.603053,-0.923664,1.05096,3.874811,6842,11387,4544,6842,0,115.108,4,load
1780598338.8563735,0.8237985000014305,283211,0.0,-0.027344,1.046875,1.778626,1.992366,-0.687023,1.047232,2.757723,6847,11395,4547,6847,0,115.108,1,load
1780598338.8869967,0.8544215000001714,283241,0.061279,-0.016602,1.068604,1.053435,2.557252,-0.984733,1.070488,2.935807,6849,11399,4549,6849,0,115.108,0,load
1780598338.9182923,0.8857170999981463,283272,0.026123,-0.049072,1.050537,2.664122,2.801527,-0.557252,1.052007,3.905974,6851,11404,4552,6851,1,115.108,14,load
1780598338.9485233,0.9159481000097003,283303,0.009033,-0.000244,1.060303,1.816794,2.916031,-0.351145,1.060341,3.453589,6856,11411,4554,6856,0,115.108,0,load
1780598338.9789495,0.9463743000087561,283333,0.031006,-0.03418,1.059814,0.671756,2.587786,-1.19084,1.060819,2.926772,6858,11415,4556,6858,0,93.863,1,load
1780598339.0111523,0.9785771000024397,283365,0.063477,-0.013428,1.050293,2.885496,4.396946,-0.328244,1.052295,5.269438,6861,11419,4557,6861,0,93.863,5,load
1780598339.0412788,1.0087038000056054,283397,0.048096,0.000732,1.0625,0.496183,3.633588,-0.748092,1.063588,3.742833,6865,11425,4559,6865,0,93.863,0,load
1780598339.0735593,1.040984200008097,283427,0.057861,-0.027344,1.062012,2.740458,2.923664,-1.038168,1.063938,4.13953,6867,11430,4562,6867,1,93.863,14,load
1780598339.103681,1.0711060000030557,283458,0.039062,-0.038818,1.046875,1.503817,2.381679,-0.89313,1.048322,2.954918,6872,11437,4564,6872,0,93.863,1,load
1780598339.1349356,1.1023606000089785,283489,0.036133,-0.012695,1.060791,0.931298,3.229008,-0.732824,1.061482,3.439598,6874,11441,4566,6874,0,93.863,0,load
1780598339.1672413,1.1346660999988671,283520,0.038574,-0.042969,1.045654,1.824428,2.870229,-0.70229,1.047247,3.472746,6876,11446,4569,6876,1,93.863,13,load
1780598339.1954064,1.1628313999972306,283551,0.05957,0.001221,1.071533,1.51145,2.40458,-0.763359,1.073188,2.940953,6881,11453,4571,6881,0,93.863,1,load
1780598339.227277,1.1947020000079647,283581,0.02124,-0.044434,1.048096,0.969466,2.389313,-0.89313,1.049252,2.728802,6883,11457,4573,6883,0,93.863,0,load
1780598339.2578528,1.2252777000103379,283612,0.040771,-0.016602,1.043457,2.534351,3.137405,-0.900763,1.044385,4.132508,6887,11463,4575,6887,0,103.943,5,load
1780598339.2881758,1.2556008000101428,283643,0.049072,-0.03418,1.050049,0.633588,2.625954,-1.0,1.05175,2.880463,6891,11469,4577,6891,0,103.943,0,load
1780598339.3185735,1.285998400009703,283673,0.032715,-0.020752,1.050293,1.946565,2.664122,-0.977099,1.051007,3.441131,6893,11473,4579,6893,0,103.943,1,load
1780598339.3619573,1.3293820999970194,283704,0.038086,-0.040771,1.051514,1.992366,2.419847,-0.687023,1.052993,3.208923,6898,11479,4580,6898,0,103.943,5,load
1780598339.3818495,1.3492744000104722,283735,0.056885,-0.02124,1.062744,1.389313,3.503817,-0.427481,1.064477,3.793371,6902,11485,4582,6902,0,103.943,0,load
1780598339.4123144,1.3797392999986187,283766,0.020264,-0.037598,1.035889,1.763359,2.442748,-0.725191,1.036769,3.098766,6904,11490,4585,6904,1,103.943,14,load
1780598339.4430652,1.410490000009304,283797,0.020264,-0.015625,1.056885,1.763359,2.687023,-0.931298,1.057194,3.346168,6909,11497,4587,6909,0,103.943,0,load
1780598339.4742901,1.4417150000081165,283828,0.045166,-0.055176,1.057373,1.21374,2.732824,-0.80916,1.059774,3.097779,6911,11501,4589,6911,0,103.943,1,load
1780598339.5056813,1.4731061000056798,283859,0.058105,-0.019043,1.057861,1.954198,3.122137,-0.725191,1.059627,3.754002,6914,11505,4590,6914,0,103.943,5,load
1780598339.5368433,1.5042681000049924,283891,0.050049,-0.009766,1.047607,0.801527,3.717557,-0.625954,1.048848,3.854153,6918,11511,4592,6918,0,111.111,0,load
1780598339.5680602,1.5354851000010967,283922,0.04541,-0.027832,1.048096,1.78626,2.396947,-0.473282,1.049448,3.026561,6920,11516,4595,6920,1,111.111,14,load
1780598339.6004887,1.5679135999962455,283954,0.030273,-0.012695,1.061768,1.274809,2.916031,-0.312977,1.062275,3.197863,6925,11523,4597,6925,0,111.111,0,load
1780598339.6309652,1.598389999999199,283985,0.036133,-0.046387,1.048584,1.480916,2.389313,-0.709924,1.050231,2.899296,6927,11527,4599,6927,0,111.111,1,load
1780598339.6622164,1.629641300009098,284016,0.036621,-0.016602,1.047852,2.122137,3.732824,-0.725191,1.048623,4.354692,6931,11533,4601,6931,0,111.111,5,load
1780598339.69292,1.6603449000103865,284047,0.02124,-0.014893,1.049561,1.145038,2.801527,-0.51145,1.049881,3.069405,6933,11537,4603,6933,0,111.111,0,load
1780598339.7236214,1.691046300009475,284078,0.062988,-0.019775,1.061279,1.671756,3.152672,-0.40458,1.063331,3.59135,6935,11542,4606,6935,1,111.111,14,load
1780598339.7554743,1.722899200001848,284109,0.033936,-0.041504,1.045654,2.053435,2.099237,-0.938931,1.047028,3.083015,6940,11549,4608,6940,0,111.111,1,load
1780598339.7859356,1.7533604000054765,284141,0.016846,-0.035645,1.048828,1.0,2.259542,-0.21374,1.049569,2.480164,6942,11553,4610,6942,0,96.0,1,load
1780598339.816606,1.784030900002108,284171,0.045898,-0.024658,1.051025,2.19084,3.480916,-0.709924,1.052316,4.173793,6944,11558,4613,6944,1,96.0,14,load
1780598339.846371,1.8137956999999005,284202,0.049805,-0.008789,1.058594,0.832061,3.816794,-0.687023,1.059801,3.966389,6949,11565,4615,6949,0,96.0,0,load
1780598339.8786356,1.8460606000007829,284232,0.042969,-0.048828,1.048096,1.580153,2.068702,-0.946565,1.050112,2.769909,6951,11569,4617,6951,0,96.0,1,load
1780598339.908262,1.875686900006258,284263,0.055664,-0.018066,1.052002,2.564885,3.366412,-0.793893,1.053628,4.306,6955,11575,4619,6955,0,96.0,5,load
1780598339.9402747,1.9076997000083793,284294,0.051514,-0.033691,1.049316,1.061069,3.587786,-0.679389,1.05112,3.802584,6959,11581,4621,6959,0,96.0,0,load
1780598339.971094,1.938518800001475,284325,0.061279,-0.030029,1.052978,2.099237,3.122137,-0.740458,1.055188,3.834425,6961,11586,4624,6961,1,96.0,14,load
1780598340.0020132,1.969438000000082,284356,0.030762,-0.039062,1.054199,1.78626,2.473282,-1.053435,1.055371,3.227626,6966,11593,4626,6966,0,96.0,0,load
1780598340.0324237,1.9998486999975285,284387,0.022949,-0.045166,1.047363,1.648855,1.992366,-0.664122,1.048588,2.670076,6968,11597,4628,6968,0,96.0,1,load
1780598340.063811,2.0312360000098124,284418,0.043457,-0.012695,1.056152,2.045802,2.687023,-0.755725,1.057122,3.46071,6970,11602,4631,6970,1,101.083,14,load
1780598340.1016731,2.0690979000064544,284455,0.063721,-0.041748,1.055176,1.503817,2.21374,-0.78626,1.057922,2.789322,6974,11607,4632,6974,0,101.083,6,load
1780598340.133384,2.1008089000097243,284487,0.053223,-0.018555,1.056152,2.679389,3.48855,-0.80916,1.057655,4.472566,6978,11613,4634,6978,0,101.083,5,load
1780598340.1639633,2.131388200010406,284518,0.03833,-0.035645,1.044434,1.236641,3.40458,-0.618321,1.045744,3.674611,6982,11619,4636,6982,0,101.083,0,load
1780598340.1948082,2.162233000010019,284549,0.065674,-0.032959,1.049072,2.21374,2.916031,-0.70229,1.051643,3.72788,6984,11624,4639,6984,1,101.083,13,load
1780598340.2269435,2.1943682999990415,284581,0.04834,-0.017334,1.060303,1.458015,2.687023,-0.656489,1.061546,3.1268,6990,11631,4640,6990,0,101.083,1,load
1780598340.2748883,2.2423131999967154,284612,0.024658,-0.035645,1.049561,1.267176,2.175573,-0.427481,1.050455,2.55374,6992,11635,4642,6992,0,101.083,0,load
1780598340.28901,2.2564350000029663,284643,0.039795,-0.006836,1.052246,1.854962,3.244275,-0.824427,1.05302,3.826994,6995,11640,4644,6995,1,101.083,14,load
1780598340.3197577,2.287182500003837,284674,0.074463,-0.043213,1.059814,1.015267,2.923664,-0.740458,1.063306,3.182272,7000,11647,4646,7000,0,117.188,0,load
1780598340.3513262,2.318751099999645,284705,0.046875,-0.031982,1.04541,2.061069,3.099237,-1.053435,1.046949,3.868204,7002,11651,4648,7002,0,117.188,1,load
1780598340.3818634,2.3492882999998983,284736,0.024414,-0.02124,1.042969,1.725191,2.763359,-1.068702,1.043471,3.428492,7007,11657,4649,7007,0,117.188,5,load
1780598340.4123597,2.3797845000080997,284767,0.041504,-0.027344,1.060791,1.442748,3.618321,-0.412214,1.061955,3.917102,7010,11661,4650,7010,0,117.188,5,load
1780598340.4446595,2.412084399999003,284798,0.02002,-0.036133,1.041992,1.633588,2.412214,-0.984733,1.042811,3.075237,7012,11666,4653,7012,1,117.188,14,load
1780598340.4747024,2.442127200003597,284829,0.042236,-0.010986,1.055176,1.732824,2.648855,-1.045802,1.056078,3.333589,7017,11673,4655,7017,0,117.188,0,load
1780598340.5055947,2.4730197000026237,284860,0.061768,-0.05127,1.060059,1.351145,2.51145,-0.954198,1.063094,3.007236,7019,11677,4657,7019,0,117.188,1,load
1780598340.537229,2.504653900003177,284891,0.050293,-0.021973,1.055908,1.770992,3.236641,-0.450382,1.057334,3.716868,7023,11683,4659,7023,0,117.188,5,load
1780598340.569041,2.5364659000042593,284923,0.059082,-0.011963,1.064453,1.10687,3.129771,-0.328244,1.066159,3.335922,7027,11689,4661,7027,0,117.188,0,load
1780598340.60025,2.567674799996894,284954,0.044434,-0.045654,1.050781,1.80916,2.931298,-0.801527,1.052711,3.536667,7028,11692,4663,7028,1,100.0,18,load
1780598340.6313918,2.5988167000032263,284986,0.029541,-0.011475,1.057373,1.671756,2.755725,-0.801527,1.057848,3.32133,7033,11699,4665,7033,0,100.0,1,load
1780598340.6606855,2.628110400008154,285017,0.020264,-0.038818,1.050293,1.465649,2.70229,-0.412214,1.051205,3.10168,7035,11703,4667,7035,0,100.0,0,load
1780598340.6927402,2.6601651000091806,285047,0.022949,0.003662,1.046143,2.099237,3.061069,-0.862595,1.046401,3.810644,7037,11708,4670,7037,1,100.0,13,load
1780598340.7238173,2.691242200002307,285078,0.042725,-0.030762,1.044434,0.824427,3.473282,-0.450382,1.04576,3.598085,7042,11715,4672,7042,0,100.0,1,load
1780598340.755944,2.723368799997843,285109,0.036621,-0.020508,1.05249,1.587786,3.343511,-0.29771,1.053327,3.713323,7044,11719,4674,7044,0,100.0,0,load
1780598340.7848697,2.7522945000091568,285140,0.050781,-0.029785,1.055908,2.007634,3.473282,-0.503817,1.057548,4.04328,7047,11723,4675,7047,0,100.0,5,load
1780598340.8165402,2.783965199996601,285171,0.07959,-0.015381,1.07373,1.206107,4.122138,-0.51145,1.076786,4.325308,7051,11729,4677,7051,0,100.0,0,load
1780598340.8475766,2.815001499999198,285202,0.061768,-0.032471,1.05835,1.618321,2.610687,-1.137405,1.060648,3.275414,7053,11734,4680,7053,1,100.0,13,load
1780598340.8791816,2.846606500010239,285233,0.033447,-0.00415,1.050537,1.183206,3.198473,-0.458015,1.051078,3.440928,7058,11741,4682,7058,0,107.527,1,load
1780598340.9101968,2.8776216999976896,285264,0.06543,-0.049561,1.044922,1.671756,3.419847,-0.358779,1.048141,3.82346,7060,11745,4684,7060,0,107.527,0,load
1780598340.941114,2.9085387000086484,285295,0.041504,-0.031494,1.061768,2.343511,2.656489,-0.740458,1.063045,3.619013,7062,11750,4687,7062,1,107.527,14,load
1780598340.971904,2.9393287999992026,285326,0.05835,-0.026855,1.056885,1.259542,3.732824,-0.648855,1.058835,3.992673,7067,11757,4689,7067,0,107.527,1,load
1780598341.0025055,2.9699304000096163,285357,0.062988,-0.039062,1.056641,1.21374,3.030534,-0.618321,1.059237,3.322593,7069,11761,4691,7069,0,107.527,0,load
1780598341.0345566,3.0019814999977825,285388,0.054932,-0.02002,1.069336,2.083969,3.633588,-0.541985,1.070933,4.223699,7073,11767,4693,7073,0,107.527,6,load
1780598341.066144,3.0335689000057755,285420,0.050537,-0.037354,1.050781,1.839695,3.076336,-0.847328,1.052659,3.683244,7077,11773,4695,7077,0,107.527,1,load
1780598341.0973487,3.0647735000093235,285451,0.105225,-0.021973,1.070068,2.061069,4.801526,-0.259542,1.075454,5.231637,7079,11777,4697,7079,0,107.527,0,load
1780598341.1282883,3.095713100003195,285482,0.028076,-0.026123,1.051758,2.282443,3.610687,-0.816794,1.052457,4.348995,7082,11782,4699,7082,1,107.527,14,load
1780598341.1596591,3.127084100007778,285513,0.027832,-0.016602,1.047852,1.526718,2.793893,-0.587786,1.048353,3.237622,7087,11789,4701,7087,0,103.571,1,load
1780598341.1892195,3.1566443000047,285544,0.067139,-0.021729,1.0625,1.610687,2.625954,-1.21374,1.064841,3.311059,7089,11793,4703,7089,0,103.571,0,load
1780598341.2205083,3.1879332000098657,285575,0.02124,-0.043701,1.035644,1.816794,2.419847,-0.763359,1.036784,3.120756,7091,11798,4706,7091,1,103.571,16,load
1780598341.2644024,3.231827199997497,285607,0.056885,-0.049561,1.048096,1.992366,3.259542,-0.656489,1.050808,3.876224,7095,11803,4707,7095,0,103.571,6,load
1780598341.2829921,3.2504169000021648,285638,0.047363,-0.015869,1.067627,1.648855,3.40458,-0.496183,1.068795,3.815244,7099,11809,4709,7099,0,103.571,0,load
1780598341.3137283,3.2811531000043033,285668,0.05957,-0.015625,1.052978,2.083969,2.900763,-1.167939,1.054778,3.75785,7100,11811,4710,7100,0,103.571,6,load
1780598341.344929,3.3123538000072585,285699,0.070557,-0.02832,1.046143,1.580153,3.748092,-0.290076,1.048902,4.077894,7101,11813,4711,7101,0,103.571,3,load
1780598341.375936,3.3433609000057913,285730,0.026367,-0.015869,1.071289,2.022901,2.465649,-1.015267,1.071731,3.346987,7105,11818,4712,7105,1,103.571,15,load
1780598341.4067404,3.374165400004131,285761,0.068604,-0.020752,1.042969,0.977099,4.885496,-0.251908,1.045428,4.988612,7109,11823,4713,7109,0,103.571,6,load
1780598341.4373996,3.404824400000507,285792,0.00708,-0.007568,1.052734,1.473282,2.763359,-1.671756,1.052785,3.549856,7110,11825,4714,7110,0,82.437,6,load
1780598341.4700217,3.437446700001601,285823,0.025391,-0.023193,1.067139,1.984733,2.908397,-0.687023,1.067693,3.58747,7112,11829,4716,7112,0,82.437,0,load
1780598341.501071,3.4684957999998005,285855,0.068604,-0.036621,1.05957,2.320611,3.900763,-0.473282,1.06242,4.563462,7116,11835,4718,7116,0,82.437,6,load
1780598341.5336282,3.5010531000007177,285887,0.060791,-0.033936,1.056885,1.183206,4.419848,-0.427481,1.059175,4.595407,7118,11839,4720,7118,0,82.437,0,load
1780598341.5636876,3.531112500000745,285918,0.036133,-0.027832,1.068848,1.816794,1.954198,-0.656489,1.06982,2.747837,7120,11843,4722,7120,0,82.437,0,load
1780598341.5951805,3.562605300001451,285949,0.011475,-0.016113,1.048584,1.717557,1.992366,-1.206107,1.048771,2.893824,7121,11845,4723,7121,0,82.437,5,load
1780598341.6251707,3.5925955999991857,285980,0.044678,-0.004639,1.066162,1.687023,1.732824,-0.763359,1.067108,2.536029,7123,11848,4724,7123,1,82.437,18,load
1780598341.6569796,3.6244045000057667,286011,0.00708,-0.02417,1.060791,2.030534,1.015267,-1.419847,1.06109,2.677649,7127,11853,4725,7127,0,82.437,6,load
1780598341.6879296,3.655354400005308,286042,0.030029,-0.018066,1.05542,1.061069,3.251908,-0.664122,1.056002,3.484513,7131,11859,4727,7131,0,84.0,0,load
1780598341.7186875,3.686112499999581,286073,0.03418,-0.033691,1.052978,1.946565,2.450382,-0.977099,1.054072,3.278446,7132,11861,4728,7132,0,84.0,6,load
1780598341.7501292,3.7175542000040878,286104,0.05127,-0.026855,1.042725,0.717557,3.885496,0.137405,1.04433,3.953587,7134,11866,4731,7134,1,84.0,16,load
1780598341.7813182,3.7487431000045035,286135,0.031738,-0.033447,1.040283,2.465649,2.625954,-1.038168,1.041304,3.748714,7138,11871,4732,7138,0,84.0,6,load
1780598341.8122137,3.77963859999727,286166,0.038086,-0.012695,1.05542,1.992366,2.778626,-1.061069,1.056183,3.579966,7142,11877,4734,7142,0,84.0,0,load
1780598341.8426843,3.8101090999989538,286197,0.055664,-0.016846,1.065918,1.389313,2.816794,-0.610687,1.067503,3.199603,7144,11881,4736,7144,0,84.0,0,load
1780598341.875005,3.8424298000027193,286228,0.035889,-0.031006,1.047363,1.763359,2.824427,-0.725191,1.048436,3.407745,7146,11885,4738,7146,0,84.0,0,load
1780598341.9056604,3.8730853000015486,286259,0.036621,-0.053223,1.062988,0.916031,3.099237,-0.305344,1.06495,3.246169,7148,11888,4739,7148,1,84.0,19,load
1780598341.9358096,3.9032345000014175,286290,0.052734,-0.017822,1.070312,1.78626,2.748092,-1.312977,1.071759,3.530813,7149,11890,4740,7149,1,84.0,16,load
1780598341.9668455,3.9342705000017304,286321,0.034668,-0.056396,1.060303,2.580153,2.641221,-1.007634,1.062367,3.827344,7151,11893,4741,7151,0,71.685,7,load
1780598341.9983735,3.965798300007009,286352,0.054688,-0.041016,1.056152,1.832061,2.80916,-0.740458,1.058362,3.434546,7152,11895,4742,7152,0,71.685,7,load
1780598342.028757,3.996182000002591,286383,0.040527,-0.080078,1.045898,2.022901,3.061069,-0.854962,1.049742,3.76739,7153,11897,4743,7153,0,71.685,7,load
1780598342.0591445,4.026569399997243,286414,0.038086,-0.067627,1.057129,1.755725,2.465649,-0.992366,1.059974,3.185402,7154,11899,4744,7154,0,71.685,7,load
1780598342.0908675,4.058292400004575,286445,0.053467,-0.064209,1.056641,2.435115,2.725191,-0.862595,1.059939,3.755066,7155,11901,4745,7155,0,71.685,7,load
1780598342.1216257,4.089050499998848,286476,0.019531,0.008057,1.063721,1.541985,2.51145,-0.931298,1.06393,3.090698,7156,11903,4746,7156,0,71.685,7,load
1780598342.153345,4.120770000008633,286507,0.048096,-0.077393,1.045898,2.328244,2.664122,-0.618321,1.04986,3.591739,7157,11905,4747,7157,0,71.685,7,load
1780598342.1843514,4.151776300001075,286538,0.033203,-0.057861,1.054443,2.007634,2.534351,-0.916031,1.056551,3.360452,7158,11907,4748,7158,0,71.685,8,load
1780598342.2154834,4.182908300004783,286569,0.026367,-0.062744,1.057617,1.671756,1.977099,-0.984733,1.059805,2.770088,7159,11909,4749,7159,0,71.685,8,load
1780598342.2455842,4.21300920000067,286600,0.038818,-0.009521,1.072022,1.068702,3.068702,-0.274809,1.072766,3.26107,7160,11911,4750,7160,0,32.258,8,load
1780598342.2768896,4.244314499999746,286631,0.035156,-0.068604,1.053467,1.312977,2.793893,-1.114504,1.056283,3.282052,7160,11912,4751,7160,1,32.258,25,load
1780598342.3080027,4.275427500004298,286662,0.043701,0.098389,1.064453,1.198473,3.045802,-0.389313,1.069884,3.296181,7161,11914,4752,7161,1,32.258,19,load
1780598342.3375983,4.305023300010362,286693,0.042969,-0.129639,1.059814,2.114504,3.40458,-0.89313,1.068578,4.10609,7162,11915,4752,7162,0,32.258,12,load
1780598342.369168,4.3365929999999935,286724,0.05542,-0.001465,1.076416,1.877863,2.877863,-1.59542,1.077843,3.788644,7163,11917,4753,7163,0,32.258,1,load
1780598342.4012213,4.36864620000415,286755,0.036865,-0.088623,1.046143,2.10687,2.885496,-0.129771,1.050537,3.575169,7164,11919,4754,7164,0,32.258,6,load
1780598342.4322007,4.399625500009279,286786,0.050293,-0.076416,1.057617,1.099237,2.572519,-1.763359,1.061566,3.306903,7165,11921,4755,7165,0,32.258,8,load
1780598342.4629107,4.430335600001854,286817,0.001709,-0.103271,1.05127,1.839695,1.80916,-1.862595,1.056331,3.182263,7166,11923,4756,7166,0,32.258,8,load
1780598342.4942915,4.461716400008299,286848,0.006592,0.022705,1.047607,2.099237,2.603053,-1.366412,1.047874,3.612446,7167,11925,4757,7167,0,32.258,8,load
1780598342.525054,4.492478900006972,286879,0.054688,-0.009277,1.052978,2.022901,2.137405,-0.59542,1.054438,3.002524,7168,11927,4758,7168,0,28.674,7,load
1780598342.556062,4.523486799997045,286910,0.045898,-0.049316,1.060303,2.396947,2.961832,-0.618321,1.062441,3.860068,7169,11929,4759,7169,0,28.674,8,load
1780598342.5870929,4.5545177000021795,286941,0.049072,0.00708,1.072022,1.061069,3.381679,-0.916031,1.073167,3.660701,7170,11931,4760,7170,0,28.674,7,load
1780598342.618556,4.585980999996536,286972,0.04541,-0.057373,1.05127,2.419847,3.969466,-1.053435,1.053813,4.766764,7171,11933,4761,7171,0,28.674,6,load
1780598342.64704,4.614464700003737,287003,0.060547,0.001221,1.05835,1.29771,2.679389,-0.916031,1.060081,3.11485,7172,11936,4763,7172,1,28.674,19,load
1780598342.678385,4.645809800000279,287032,0.062744,-0.015137,1.050293,1.89313,3.603053,-0.442748,1.052274,4.094137,7173,11938,4764,7173,1,28.674,17,load
1780598342.7090883,4.676513300000806,287063,0.015381,-0.051758,1.037354,2.656489,1.961832,-1.358779,1.038758,3.570994,7175,11941,4765,7175,0,28.674,7,load
1780598342.7389212,4.706346100007067,287094,0.009766,-0.012695,1.052978,1.900763,2.51145,-1.480916,1.0531,3.480431,7176,11943,4766,7176,0,28.674,7,load
1780598342.7705305,4.737955400007195,287125,0.046631,-0.052979,1.046875,1.419847,3.48855,-0.435114,1.049251,3.791473,7177,11945,4767,7177,0,28.674,7,load
1780598342.802006,4.769430800006376,287156,0.016357,-0.054443,1.056396,1.992366,1.519084,-1.358779,1.057925,2.850161,7178,11947,4768,7178,0,36.101,8,load
1780598342.8349528,4.802377700005309,287187,0.021729,-0.047607,1.053955,1.969466,2.740458,-0.244275,1.055254,3.383574,7179,11949,4769,7179,0,36.101,8,load
1780598342.8637874,4.831212200006121,287218,0.027344,-0.064697,1.034424,2.083969,3.412214,-0.839695,1.036806,4.085489,7180,11951,4770,7180,0,36.101,5,load
1780598342.894376,4.861800800004858,287249,0.050537,-0.020996,1.045654,1.129771,3.396947,-0.221374,1.047085,3.58673,7181,11953,4771,7181,0,36.101,3,load
1780598342.9247367,4.892161700001452,287280,0.071045,-0.007324,1.044434,0.320611,4.549618,0.908397,1.046873,4.650484,7182,11955,4772,7182,0,36.101,1,load
1780598342.9577029,4.925127800001064,287311,0.077393,-0.039062,1.046631,0.877863,4.42748,0.51145,1.050215,4.542556,7184,11958,4773,7184,1,36.101,22,load
1780598342.9897346,4.957159600002342,287343,0.027588,-0.057129,1.059814,1.694656,2.992366,-0.984733,1.061712,3.577124,7185,11960,4774,7185,1,36.101,20,load
1780598343.0211036,4.988528400004725,287375,0.022705,0.033691,1.062256,1.221374,3.129771,-1.328244,1.063032,3.61268,7186,11962,4775,7186,1,36.101,19,load
1780598343.0510888,5.018513700008043,287406,0.022217,0.010498,1.048584,2.0,2.572519,-1.206107,1.048872,3.474557,7187,11964,4776,7187,1,36.0,19,load
1780598343.0817056,5.04913050000323,287436,0.036133,0.048584,1.040039,1.129771,2.465649,-0.931298,1.0418,2.867599,7188,11966,4777,7188,1,36.0,22,load
1780598343.1121347,5.079559500009054,287466,0.012939,0.034668,1.053223,1.10687,1.89313,-1.687023,1.053872,2.766794,7189,11967,4777,7189,0,36.0,9,load
1780598343.1424706,5.109895500005223,287497,0.040771,0.032471,1.050293,1.923664,2.80916,-1.251908,1.051585,3.627553,7190,11969,4778,7190,0,36.0,2,load
1780598343.173517,5.140941899997415,287528,0.028076,-0.072266,1.041748,2.053435,2.969466,-0.679389,1.044629,3.673676,7191,11971,4779,7191,0,36.0,3,load
1780598343.2120159,5.17944069999794,287559,0.017822,0.005615,1.033203,1.496183,2.641221,-0.900763,1.033372,3.166384,7192,11973,4780,7192,0,36.0,6,load
1780598343.2346652,5.202090000006137,287589,0.053711,-0.105713,1.064453,1.450382,3.80916,0.083969,1.071037,4.076808,7193,11975,4781,7193,0,36.0,8,load
1780598343.2652478,5.232672600002843,287620,0.02124,0.076416,1.055176,1.221374,2.534351,-0.984733,1.058152,2.980669,7194,11977,4782,7194,0,36.0,9,load
1780598343.2970135,5.264438500002143,287651,0.045654,0.058594,1.049561,1.580153,3.755725,-0.755725,1.052186,4.144089,7195,11979,4783,7195,0,36.0,9,load
1780598343.327746,5.295170800003689,287682,0.053955,-0.13208,1.0625,2.19084,3.480916,-0.847328,1.072037,4.199348,7196,11981,4784,7196,0,32.609,9,load
1780598343.3583586,5.32578349999676,287712,0.041748,0.072266,1.052002,3.137405,3.40458,-0.763359,1.055307,4.692248,7196,11982,4785,7196,1,32.609,27,load
1780598343.389943,5.357367800010252,287743,0.05249,0.073242,1.063477,0.832061,3.152672,-0.564886,1.067287,3.309193,7197,11984,4786,7197,1,32.609,19,load
1780598343.4217532,5.389178099998389,287775,0.048096,-0.150391,1.049316,2.931298,2.48855,-1.129771,1.061129,4.007714,7198,11985,4786,7198,0,32.609,13,load
1780598343.4524252,5.419850200007204,287807,0.013428,0.115967,1.049316,1.633588,2.374046,-2.328244,1.05579,3.704784,7199,11987,4787,7199,0,32.609,1,load
1780598343.4835322,5.450957100008964,287838,0.029053,0.071533,1.04541,2.664122,2.305344,-1.435114,1.048257,3.80417,7200,11989,4788,7200,0,32.609,5,load
1780598343.51495,5.482374900006107,287868,0.030762,0.050781,1.061035,1.526718,3.083969,-1.564886,1.062695,3.780291,7201,11991,4789,7201,0,32.609,7,load
1780598343.5451844,5.512609199999133,287899,0.038574,-0.033936,1.074951,1.160305,2.656489,-0.061069,1.076178,2.899478,7202,11993,4790,7202,0,32.609,8,load
1780598343.57555,5.542975000003935,287930,0.047119,0.001465,1.052002,0.694656,3.137405,-0.854962,1.053058,3.325179,7203,11995,4791,7203,0,32.609,8,load
1780598343.6058018,5.573226799999247,287961,0.042969,-0.037598,1.05542,1.175572,3.290076,-0.755725,1.056963,3.57459,7204,11997,4792,7204,0,28.674,8,load
1780598343.6372192,5.604644000006374,287992,0.036865,0.006592,1.045654,0.984733,2.931298,-0.19084,1.046325,3.098165,7205,11999,4793,7205,0,28.674,8,load
1780598343.668274,5.635698900005082,288023,0.056641,-0.009766,1.052246,0.961832,2.824427,-0.343511,1.053815,3.003416,7206,12001,4794,7206,0,28.674,8,load
1780598343.7005496,5.667974500000128,288054,0.019287,-0.042236,1.056396,0.526718,2.419847,-1.847328,1.057416,3.089614,7207,12003,4795,7207,0,28.674,9,load
1780598343.730868,5.6982929000078,288085,0.055908,0.029297,1.060547,0.450382,2.770992,-1.29771,1.062424,3.09278,7208,12005,4796,7208,0,28.674,9,load
1780598343.7629824,5.730407199996989,288116,0.035156,0.034668,1.030273,2.244275,2.251908,-2.358779,1.031456,3.95875,7209,12007,4797,7209,0,28.674,9,load
1780598343.792815,5.760239800001727,288147,0.04834,-0.092773,1.050049,2.625954,2.625954,-1.343511,1.055247,3.949214,7210,12009,4798,7210,0,28.674,8,load
1780598343.8233821,5.7908070999983465,288178,0.057129,0.018311,1.064209,2.0,2.656489,-2.412214,1.065899,4.108006,7211,12011,4799,7211,0,28.674,9,load
1780598343.85583,5.823254800008726,288209,0.064697,-0.079834,1.058838,1.961832,3.007634,-1.442748,1.063812,3.869906,7212,12013,4800,7212,0,28.674,8,load
1780598343.8872015,5.854626400003326,288241,0.045654,0.000488,1.06958,0.839695,3.374046,-0.70229,1.070554,3.54718,7213,12015,4801,7213,0,32.143,8,load
1780598343.9180176,5.885442400001921,288272,0.050293,0.01123,1.047119,2.137405,3.435115,-1.221374,1.048386,4.226141,7214,12017,4802,7214,0,32.143,8,load
1780598343.9491813,5.916606200000388,288303,0.031982,0.012695,1.053711,0.671756,2.824427,-0.763359,1.054273,3.001893,7215,12019,4803,7215,0,32.143,8,load
1780598343.981342,5.9487670000089565,288334,0.037598,0.010742,1.052978,0.877863,3.763359,-0.40458,1.053704,3.885511,7216,12021,4804,7216,0,32.143,8,load
1780598344.0107472,5.978172100003576,288365,-0.002197,-0.048828,1.055664,1.435114,1.770992,-1.603053,1.056795,2.786709,7217,12023,4805,7217,0,32.143,7,load
1780598344.0443978,6.011822800006485,288396,0.013672,-0.053467,1.04248,2.236641,2.748092,-1.328244,1.04394,3.78402,7218,12025,4806,7218,0,32.143,6,load
1780598344.0738463,6.041271100009908,288428,0.015381,-0.079346,1.051758,1.931298,2.549618,-1.045802,1.054859,3.36514,7219,12027,4807,7219,0,32.143,3,load
1780598344.1051517,6.072576500009745,288459,0.046387,-0.005859,1.067871,1.221374,2.839695,-1.045802,1.068894,3.26333,7220,12029,4808,7220,0,32.143,1,load
1780598344.1370988,6.10452360000636,288490,0.042236,0.027344,1.056641,0.854962,2.900763,-1.175572,1.057838,3.244589,7221,12031,4809,7221,0,32.143,1,load
1780598344.1672742,6.134699000002001,288521,0.027832,-0.104248,1.063721,1.473282,3.48855,-0.389313,1.069179,3.80685,7222,12033,4810,7222,0,32.143,0,load
1780598344.1978307,6.165255600004457,288552,0.060791,-0.093262,1.05835,2.137405,4.42748,-0.259542,1.064188,4.923256,7223,12035,4811,7223,0,32.143,3,load
1780598344.2293162,6.1967411000077846,288583,0.039795,-0.034912,1.043945,1.419847,3.320611,-0.977099,1.045287,3.741276,7224,12037,4812,7224,0,32.143,5,load
1780598344.2740793,6.241504200006602,288614,0.027588,-0.08252,1.049561,2.374046,2.625954,-0.664122,1.053161,3.601776,7225,12039,4813,7225,0,32.143,6,load
1780598344.2918637,6.259288500004914,288645,0.049316,-0.046875,1.05835,1.351145,4.229008,-0.091603,1.060534,4.44055,7226,12041,4814,7226,0,32.143,7,load
1780598344.322046,6.28947080000944,288676,0.073975,-0.076904,1.058838,1.419847,4.160306,-0.320611,1.064201,4.407596,7227,12043,4815,7227,0,32.143,8,load
1780598344.353916,6.321340700000292,288707,0.074219,-0.057129,1.061523,0.679389,4.366412,-0.045802,1.065647,4.419188,7228,12045,4816,7228,0,32.143,8,load
1780598344.3836198,6.351044600000023,288738,0.053711,0.036621,1.055664,1.122137,3.694656,-0.290076,1.057664,3.872186,7229,12047,4817,7229,0,32.143,8,load
1780598344.414276,6.381700700003421,288769,0.059082,-0.084473,1.070801,2.0,2.748092,-1.022901,1.075751,3.549413,7230,12049,4818,7230,0,32.143,9,load
1780598344.4455454,6.412970400007907,288799,0.050781,-0.019287,1.062256,2.435115,3.122137,-0.946565,1.063644,4.071058,7231,12051,4819,7231,0,32.374,9,load
1780598344.476091,6.44351579999784,288830,0.04126,-0.095459,1.068848,2.610687,2.931298,-0.129771,1.073895,3.927472,7232,12053,4820,7232,0,32.374,9,load
1780598344.507495,6.47491990000708,288861,0.0354,-0.110352,1.052002,1.519084,2.793893,-0.580153,1.058366,3.232651,7233,12055,4821,7233,0,32.374,9,load
1780598344.5392444,6.5066692999971565,288892,0.035156,0.095215,1.058838,1.480916,2.709924,-1.671756,1.063691,3.511633,7233,12056,4822,7233,0,32.374,26,load
1780598344.5700474,6.537472199997865,288923,0.043701,-0.117432,1.067627,2.946565,2.328244,-1.198473,1.074954,3.941992,7234,12058,4823,7234,1,32.374,16,load
1780598344.6004372,6.567862099997001,288954,0.065918,-0.106934,1.078613,0.175573,3.671756,-0.419847,1.085904,3.69985,7235,12060,4824,7235,1,32.374,21,load
1780598344.6330478,6.600472699996317,288986,0.019531,0.105713,1.050781,0.473282,2.931298,-1.343511,1.056266,3.259068,7236,12061,4824,7236,0,32.374,10,load
1780598344.6646657,6.632090600003721,289018,0.034424,-0.110107,1.059814,1.824428,4.206106,0.122137,1.066075,4.58637,7237,12063,4825,7237,0,32.374,3,load
1780598344.6953666,6.662791399998241,289049,0.016357,0.061768,1.023193,2.007634,3.091603,-0.763359,1.025187,3.764481,7238,12065,4826,7238,0,28.0,8,load
1780598344.726442,6.693866900008288,289080,0.058838,-0.094238,1.086426,0.305344,4.007634,-0.030534,1.092091,4.019366,7239,12067,4827,7239,0,28.0,9,load
1780598344.7576303,6.725055300004897,289111,0.056152,-0.131836,1.072022,1.175572,2.664122,-0.503817,1.081556,2.955224,7240,12069,4828,7240,0,28.0,9,load
1780598344.7885625,6.755987399999867,289142,0.015137,-0.12793,1.045166,2.969466,2.419847,-1.045802,1.053075,3.970779,7240,12070,4829,7240,1,28.0,27,load
1780598344.8199966,6.78742140000395,289173,0.026367,0.062012,1.032227,2.068702,3.885496,-0.40458,1.034424,4.42044,7241,12072,4830,7241,1,28.0,19,load
1780598344.8498263,6.817251300002681,289204,0.048096,-0.083008,1.053711,2.160305,2.122137,-1.312977,1.058069,3.300651,7242,12073,4830,7242,0,28.0,12,load
1780598344.8821883,6.849613200000022,289235,0.045898,-0.017578,1.082031,1.366412,2.755725,-1.351145,1.083147,3.359568,7243,12075,4831,7243,0,28.0,1,load
1780598344.912317,6.879742000004626,289266,0.050049,0.066162,1.007568,0.961832,3.89313,-1.450382,1.010978,4.26441,7244,12077,4832,7244,0,28.0,4,load
1780598344.9424725,6.909897400008049,289297,0.0354,0.084229,1.067383,1.564886,2.839695,-1.007634,1.071286,3.3953,7245,12079,4833,7245,0,28.0,8,load
1780598344.974352,6.941776799998479,289328,0.052002,0.023682,1.060059,1.984733,3.557252,-0.534351,1.061598,4.108374,7246,12081,4834,7246,0,28.674,9,load
1780598345.0048234,6.972248200007016,289359,0.051514,-0.137451,1.05542,1.557252,2.419847,-0.114504,1.065579,2.879897,7247,12083,4835,7247,0,28.674,9,load
1780598345.0362287,7.003653599997051,289390,0.017334,-0.054443,1.036133,2.694656,2.549618,-0.778626,1.037707,3.790512,7248,12085,4836,7248,0,28.674,9,load
1780598345.0669951,7.034419999996317,289421,0.044434,0.074219,1.043457,3.083969,2.900763,-0.908397,1.047036,4.330182,7248,12086,4837,7248,1,28.674,28,load
1780598345.0986423,7.066067300009308,289452,0.065674,-0.158691,1.074707,0.603053,3.442748,-0.732824,1.088343,3.571165,7249,12087,4837,7249,0,28.674,14,load
1780598345.1285372,7.095962000006693,289483,0.01709,-0.179443,1.034668,2.083969,3.206107,-0.167939,1.050252,3.827565,7250,12089,4838,7250,0,28.674,4,load
1780598345.1602216,7.127646399996593,289514,0.019775,-0.033203,1.038574,1.610687,2.992366,-0.541985,1.039293,3.441267,7251,12091,4839,7251,0,28.674,10,load
1780598345.1908374,7.158262299999478,289545,0.041748,-0.17334,1.071289,0.419847,3.473282,-0.526718,1.086025,3.537993,7251,12092,4840,7251,1,28.674,32,load
1780598345.2227137,7.190138500009198,289576,0.048584,0.064941,1.052978,0.748092,3.358779,-0.824427,1.056097,3.538462,7252,12093,4840,7252,0,28.674,16,load
1780598345.2559938,7.223418699999456,289607,0.036377,-0.168457,1.050781,2.022901,3.549618,-0.152672,1.06482,4.088426,7253,12095,4841,7253,0,25.09,7,load
1780598345.2845283,7.25195309999981,289638,0.05835,0.040283,1.084228,1.740458,3.198473,-1.21374,1.086544,3.838306,7254,12097,4842,7254,0,25.09,12,load
1780598345.3152049,7.282629699999234,289669,0.030029,-0.139893,1.046875,0.541985,3.328244,-0.648855,1.056607,3.433944,7254,12098,4843,7254,1,25.09,33,load
1780598345.3479657,7.315390600007959,289701,0.045166,0.097656,1.053223,2.679389,3.259542,-0.274809,1.058704,4.228388,7255,12099,4843,7255,0,25.09,12,load
1780598345.3779414,7.345366200010176,289732,0.0625,0.045166,1.071289,1.78626,3.320611,-0.564886,1.074061,3.812647,7256,12101,4844,7256,0,25.09,11,load
1780598345.4092171,7.376642100003664,289763,0.049072,0.047363,1.068115,0.603053,3.229008,-1.10687,1.07029,3.466313,7256,12102,4845,7256,1,25.09,35,load
1780598345.4398892,7.407314099997166,289794,0.059326,-0.091309,1.064209,1.19084,3.51145,-0.839695,1.069765,3.801772,7257,12103,4845,7257,0,25.09,12,load
1780598345.470523,7.437948000006145,289825,0.063965,-0.027344,1.080811,2.541985,3.038168,-1.412214,1.083047,4.205532,7258,12105,4846,7258,0,25.09,12,load
1780598345.5020256,7.469450500007952,289856,0.0896,-0.001221,1.083496,1.251908,3.816794,0.076336,1.087195,4.017588,7258,12106,4847,7258,1,25.09,35,load
1780598345.5329611,7.500386100000469,289887,0.045898,0.068115,1.052734,1.610687,2.40458,-1.038168,1.055934,3.074754,7259,12107,4847,7259,0,21.429,11,load
1780598345.5641658,7.531590800004778,289918,0.049316,0.040039,1.065186,3.687023,2.10687,-1.618321,1.067078,4.544448,7260,12109,4848,7260,0,21.429,12,load
1780598345.595707,7.563131800008705,289949,0.046631,-0.005859,1.04248,1.923664,2.946565,-0.366412,1.043539,3.537936,7260,12110,4849,7260,1,21.429,37,load
1780598345.6264403,7.593865100003313,289980,0.032227,-0.062744,1.069336,1.236641,2.885496,-1.396947,1.07166,3.436107,7261,12111,4849,7261,0,21.429,12,load
1780598345.657231,7.624655999999959,290011,0.057861,0.0625,1.065674,2.122137,3.145038,0.015267,1.069072,3.79407,7262,12113,4850,7262,0,21.429,13,load
1780598345.6945791,7.6620040999987395,290048,0.026367,0.010254,1.060547,2.015267,2.450382,-1.656489,1.060924,3.579054,7262,12113,4850,7262,0,21.429,13,load
1780598345.7251558,7.692580600007204,290079,0.046143,-0.089844,1.060791,0.839695,3.19084,-0.732824,1.065588,3.379878,7263,12115,4851,7263,0,21.429,4,load
1780598345.7548585,7.722283299997798,290110,0.02832,-0.125,1.046387,0.671756,3.022901,-0.900763,1.054207,3.22499,7263,12116,4852,7263,1,21.429,40,load
1780598345.7870557,7.75448060000781,290140,0.036377,0.028809,1.071045,1.656489,3.030534,-1.167939,1.07205,3.645844,7264,12117,4852,7264,0,19.763,16,load
1780598345.8180587,7.7854835000034655,290172,0.042236,0.007813,1.047607,2.427481,2.274809,-0.78626,1.048488,3.418424,7265,12119,4853,7265,0,19.763,14,load
1780598345.8496876,7.817112400007318,290203,0.037109,-0.097168,1.052734,1.358779,3.061069,-1.137405,1.05786,3.536964,7265,12119,4853,7265,0,19.763,14,load
1780598345.8809915,7.848416300010285,290235,0.047119,0.010254,1.048096,3.022901,2.854962,-0.839695,1.049204,4.241913,7266,12121,4854,7266,0,19.763,14,load
1780598345.9129322,7.880357100002584,290266,0.032471,-0.055664,1.068604,0.748092,3.603053,-1.053435,1.070545,3.82771,7266,12121,4854,7266,0,19.763,14,load
1780598345.9444203,7.911845100010396,290298,0.04248,-0.051758,1.040772,2.068702,2.442748,-1.732824,1.042923,3.639949,7267,12123,4855,7267,0,19.763,13,load
1780598345.9747257,7.942150600007153,290329,0.041748,-0.032715,1.046143,1.580153,3.236641,0.572519,1.047486,3.646986,7267,12123,4855,7267,0,19.763,13,load
1780598346.0062048,7.973629600004642,290360,0.046631,0.051758,1.040039,2.816794,2.740458,-1.21374,1.04237,4.113102,7268,12125,4856,7268,0,19.763,12,load
1780598346.0382276,8.005652400010149,290391,0.044189,0.058594,1.049805,2.290076,3.19084,-1.48855,1.052367,4.200201,7268,12125,4856,7268,0,15.936,12,load
1780598346.0704243,8.037849300002563,290423,0.036377,-0.074463,1.051514,1.129771,2.954198,-1.030534,1.054774,3.32651,7269,12127,4857,7269,0,15.936,9,load
1780598346.101927,8.06935180000437,290455,0.031982,0.061279,1.056641,2.022901,2.954198,0.030534,1.058899,3.580551,7269,12128,4858,7269,1,15.936,44,load
1780598346.1341264,8.10155140000279,290487,0.042725,0.025146,1.053467,2.007634,2.694656,-0.122137,1.054633,3.362541,7270,12129,4858,7270,0,15.936,15,load
1780598346.1643755,8.131800500006648,290518,0.039795,0.030273,1.072998,2.290076,2.312977,-1.847328,1.074162,3.742584,7270,12130,4859,7270,1,15.936,38,load
1780598346.1961024,8.16352729999926,290549,0.041504,0.105225,1.066162,0.984733,2.854962,-1.0,1.072146,3.181274,7271,12131,4859,7271,0,15.936,20,load
1780598346.2258801,8.193305100008729,290580,0.075439,-0.097656,1.065674,0.946565,3.114504,-1.122137,1.072795,3.443154,7272,12133,4860,7272,0,15.936,1,load
1780598346.257624,8.225048799999058,290611,0.011963,-0.010498,1.055908,1.19084,2.343511,-1.305344,1.056028,2.934973,7273,12135,4861,7273,0,15.936,2,load
1780598346.2874312,8.254856100000325,290642,0.022461,-0.009277,1.054443,2.068702,1.778626,-0.954198,1.054723,2.890248,7276,12140,4863,7276,1,31.873,16,load
1780598346.3175979,8.285022700001718,290673,0.047363,0.001953,1.061279,2.557252,2.59542,-0.618321,1.062337,3.695682,7278,12143,4864,7278,0,31.873,7,load
1780598346.3509033,8.31832810000924,290703,0.061035,-0.01709,1.060791,1.725191,2.335878,-0.572519,1.062683,2.959795,7279,12145,4865,7279,0,31.873,6,load
1780598346.3789372,8.346361999996589,290734,0.048828,-0.009277,1.051758,1.656489,2.40458,-0.70229,1.052932,3.003193,7281,12150,4868,7281,1,31.873,14,load
1780598346.4101295,8.377554300008342,290764,0.035889,-0.036133,1.060547,1.526718,3.038168,-0.625954,1.061769,3.457333,7286,12157,4870,7286,0,31.873,1,load
1780598346.4406545,8.408079400003771,290795,0.033447,-0.038086,1.068604,0.740458,2.389313,-0.748092,1.069805,2.610888,7288,12161,4872,7288,0,31.873,0,load
1780598346.4734724,8.440897200009204,290826,0.047607,-0.020508,1.052734,2.503817,2.580153,-1.496183,1.05401,3.894207,7290,12166,4875,7290,1,31.873,14,load
1780598346.5028965,8.47032130000298,290857,0.036865,-0.01416,1.050781,1.381679,3.129771,-0.801527,1.051523,3.513822,7295,12173,4877,7295,0,31.873,1,load
1780598346.534877,8.502302000008058,290888,0.058838,-0.059082,1.063477,1.908397,2.931298,-0.931298,1.06674,3.619641,7297,12177,4879,7297,0,31.873,0,load
1780598346.565475,8.532899800004088,290919,0.033691,-0.037842,1.047607,1.755725,2.694656,-0.603053,1.048832,3.272219,7300,12181,4880,7300,0,86.643,5,load
1780598346.596093,8.563517700007651,290950,0.037842,-0.030273,1.0625,1.343511,2.541985,-0.969466,1.063605,3.034234,7304,12187,4882,7304,0,86.643,0,load
1780598346.6272721,8.594696900006966,290980,0.026611,-0.035156,1.04248,1.48855,3.091603,-0.427481,1.043412,3.457821,7306,12192,4885,7306,1,86.643,14,load
1780598346.657531,8.624955899998895,291011,0.031982,-0.017334,1.051514,1.564886,2.328244,-0.80916,1.052143,2.919645,7311,12199,4887,7311,0,86.643,1,load
1780598346.68817,8.655594900003052,291042,0.03125,-0.022949,1.052246,1.137405,2.450382,-0.526718,1.05296,2.752361,7313,12203,4889,7313,0,86.643,0,load
1780598346.718265,8.68568989999767,291072,0.024658,0.020264,1.053955,0.961832,3.419847,-1.076336,1.054438,3.712004,7316,12208,4891,7316,1,86.643,14,load
1780598346.7495508,8.716975700008334,291103,0.033203,-0.034668,1.055664,0.870229,2.740458,-0.51145,1.056755,2.920444,7320,12213,4892,7320,0,86.643,5,load
1780598346.7799153,8.747340300003998,291134,0.041748,-0.011475,1.052978,2.053435,3.282443,-0.80916,1.053868,3.955473,7322,12218,4895,7322,1,86.643,13,load
1780598346.81114,8.778565000000526,291165,0.024658,-0.030273,1.038818,1.541985,2.549618,-0.618321,1.039552,3.043122,7327,12225,4897,7327,0,86.643,0,load
1780598346.8432372,8.810662100004265,291196,0.038818,-0.021484,1.060059,0.80916,2.572519,-1.015267,1.060987,2.881556,7329,12229,4899,7329,0,104.693,0,load
1780598346.8742287,8.841653700001189,291227,0.039551,-0.013184,1.046631,2.358779,2.984733,-0.641221,1.047461,3.857931,7332,12234,4901,7332,1,104.693,13,load
1780598346.9035103,8.87093509999977,291258,0.009277,-0.014893,1.037842,0.580153,2.59542,-1.053435,1.03799,2.860508,7337,12241,4903,7337,0,104.693,0,load
1780598346.9346883,8.90211320000526,291288,0.029053,-0.047363,1.054199,1.198473,2.526718,-1.022901,1.055662,2.977745,7339,12245,4905,7339,0,104.693,0,load
1780598346.9673347,8.934759600000689,291320,0.037109,-0.048584,1.053467,2.374046,2.389313,-0.29771,1.055239,3.381352,7343,12251,4907,7343,0,104.693,0,load
1780598346.9989753,8.96640020000632,291352,0.041504,-0.033447,1.056396,-0.022901,2.648855,-0.89313,1.05774,2.795467,7345,12255,4909,7345,0,104.693,0,load
1780598347.0305195,8.997944300004747,291383,0.067871,-0.022705,1.055664,4.091603,3.458015,-0.763359,1.058087,5.411266,7348,12260,4911,7348,1,104.693,14,load
1780598347.0609624,9.02838740000152,291415,0.021973,-0.004395,1.046143,0.351145,2.473282,-1.175572,1.046383,2.760869,7353,12267,4913,7353,0,104.693,1,load
1780598347.0926874,9.060112300008768,291446,0.061768,-0.053467,1.069336,2.175573,1.984733,-0.664122,1.072452,3.018831,7355,12272,4916,7355,1,104.0,14,load
1780598347.1233535,9.090778400001,291477,0.013428,-0.010254,1.044434,2.030534,2.80916,-0.29771,1.04457,3.478948,7361,12279,4917,7361,0,104.0,0,load
1780598347.1553388,9.122763599996688,291509,0.05542,-0.045166,1.061523,-0.206107,2.618321,-1.274809,1.063928,2.919456,7363,12283,4919,7363,0,104.0,1,load
1780598347.1855001,9.152925100002903,291540,0.039307,-0.010986,1.046387,3.854962,3.977099,-0.236641,1.047182,5.54383,7367,12289,4921,7367,0,104.0,5,load
1780598347.2163532,9.183778100006748,291571,0.023682,0.005371,1.044922,0.374046,2.854962,-1.564886,1.045204,3.277131,7371,12295,4923,7371,0,104.0,1,load
1780598347.2482178,9.215642600000137,291602,0.048096,-0.045166,1.056152,2.687023,2.114504,-0.458015,1.058211,3.449782,7373,12300,4926,7373,1,104.0,14,load
1780598347.278297,9.245721800005413,291633,0.018799,-0.00415,1.050781,1.801527,2.564885,-0.007634,1.050958,3.134357,7379,12307,4927,7379,0,104.0,1,load
1780598347.3095958,9.277020800000173,291663,0.055664,-0.039551,1.054199,-0.068702,2.625954,-0.885496,1.056408,2.772086,7381,12311,4929,7381,0,104.0,1,load
1780598347.3394933,9.306918200003565,291694,0.065918,-0.035156,1.060791,3.335878,3.114504,-0.442748,1.063418,4.58522,7384,12316,4931,7384,1,104.0,13,load
1780598347.3709085,9.338333300009253,291724,0.048096,0.020264,1.05127,0.687023,2.358779,-0.687023,1.052564,2.551047,7389,12323,4933,7389,0,122.302,0,load
1780598347.4012067,9.368631600009394,291755,0.023926,-0.042236,1.05127,1.267176,2.519084,-1.08397,1.05239,3.021011,7391,12327,4935,7391,0,122.302,1,load
1780598347.4329326,9.400357400008943,291786,0.057617,-0.039062,1.057373,3.015267,3.427481,-0.175573,1.059662,4.568402,7395,12333,4937,7395,0,122.302,5,load
1780598347.4637394,9.431164299996453,291817,0.075439,0.010742,1.063721,-0.068702,3.244275,-1.312977,1.066447,3.500564,7399,12339,4939,7399,0,122.302,1,load
1780598347.49514,9.462565000008908,291848,0.041748,-0.051514,1.046387,1.961832,2.916031,-0.328244,1.048485,3.529839,7401,12344,4942,7401,1,122.302,13,load
1780598347.5248253,9.492250099996454,291879,0.019043,-0.000488,1.042969,1.954198,2.320611,-0.587786,1.043143,3.090246,7406,12351,4944,7406,0,122.302,0,load
1780598347.5573194,9.52474429999711,291910,0.020996,-0.040527,1.057861,1.08397,1.870229,-1.122137,1.058846,2.435557,7408,12355,4946,7408,0,122.302,1,load
1780598347.5893812,9.556806000007782,291942,0.033936,-0.022949,1.057861,2.862595,3.21374,-0.900763,1.058654,4.39704,7412,12361,4948,7412,0,122.302,5,load
1780598347.6201115,9.58753630000865,291974,0.052979,-0.000732,1.054932,0.396947,3.053435,-1.045802,1.056261,3.251882,7416,12367,4950,7416,0,108.0,1,load
1780598347.6508758,9.61830070000724,292005,0.049805,-0.082031,1.053223,2.366412,3.061069,-0.671756,1.057586,3.926997,7418,12372,4953,7418,1,108.0,14,load
1780598347.6825566,9.649981399998069,292036,0.028076,0.009277,1.053467,1.564886,2.961832,-0.656489,1.053882,3.413546,7423,12379,4955,7423,0,108.0,1,load
1780598347.7121773,9.679602100004558,292066,0.025146,-0.049072,1.053223,0.816794,2.80916,-1.29771,1.054665,3.200404,7425,12383,4957,7425,0,108.0,0,load
1780598347.741792,9.709216900009778,292096,0.061523,-0.00415,1.051758,2.908397,3.167939,0.022901,1.053564,4.300597,7428,12388,4959,7428,1,108.0,14,load
1780598347.7730865,9.740511500000139,292127,0.034912,-0.010254,1.043213,0.755725,2.290076,-1.0,1.043847,2.610665,7433,12395,4961,7433,0,108.0,0,load
1780598347.8035684,9.770993199999793,292157,0.025391,-0.037598,1.060547,1.358779,2.458015,-0.908397,1.061517,2.95183,7435,12399,4963,7435,0,108.0,0,load
1780598347.837741,9.805165800004033,292189,0.066162,-0.053711,1.057617,2.648855,2.709924,0.099237,1.061045,3.790774,7440,12407,4966,7440,0,108.0,0,load
1780598347.8668995,9.834324399998877,292221,0.026367,-0.026367,1.050781,0.129771,2.946565,-0.969466,1.051443,3.104666,7442,12411,4968,7442,0,108.0,0,load
1780598347.8992639,9.86668869999994,292252,0.045654,-0.023926,1.066406,3.938931,3.465649,0.40458,1.067651,5.26209,7444,12416,4971,7444,1,100.719,13,load
1780598347.9289448,9.896369699999923,292283,0.037109,0.006348,1.039307,0.305344,1.824428,-1.022901,1.039988,2.113787,7449,12423,4973,7449,0,100.719,0,load
1780598347.961784,9.929208800007473,292314,0.036621,-0.042725,1.060303,1.908397,2.793893,-0.427481,1.061795,3.41036,7451,12428,4976,7451,1,100.719,14,load
1780598347.9921145,9.959539300005417,292346,0.012939,-0.002686,1.047119,1.671756,2.435115,-0.137405,1.047202,2.956929,7457,12435,4977,7457,0,100.719,0,load
1780598348.023467,9.990892000001622,292377,0.052979,-0.018066,1.054443,0.053435,3.099237,-1.038168,1.055928,3.268932,7459,12439,4979,7459,0,100.719,0,load
1780598348.055357,10.022781799998484,292408,0.045654,-0.020752,1.041504,3.80916,3.717557,-0.412214,1.042711,5.338526,7462,12444,4981,7462,1,100.719,14,load
1780598348.085645,10.053069800007506,292439,0.05249,-0.008789,1.041992,0.374046,2.068702,-1.603053,1.04335,2.643713,7467,12451,4983,7467,0,100.719,0,load
1780598348.1167552,10.08418000000529,292470,0.046875,-0.033203,1.053467,2.351145,2.480916,-0.870229,1.055032,3.527056,7469,12456,4986,7469,1,100.719,14,load
1780598348.1479602,10.115384999997332,292502,0.029785,-0.004639,1.056152,1.641221,1.89313,-0.435114,1.056582,2.543005,7474,12463,4988,7474,0,120.0,1,load
1780598348.1792905,10.146715299997595,292533,0.043457,-0.038086,1.062012,0.633588,2.89313,-0.954198,1.063583,3.111612,7476,12467,4990,7476,0,120.0,0,load
1780598348.2114148,10.178839600004721,292564,0.058105,-0.012207,1.050537,3.183206,3.587786,-0.503817,1.052214,4.822742,7479,12472,4992,7479,1,120.0,14,load
1780598348.2405715,10.207996400000411,292595,0.02417,-0.006348,1.048828,0.419847,2.396947,-0.778626,1.049126,2.554972,7484,12479,4994,7484,0,120.0,1,load
1780598348.2729995,10.240424300005543,292626,0.064941,-0.035156,1.053223,2.114504,2.847328,-0.603053,1.055808,3.59751,7486,12484,4997,7486,1,120.0,14,load
1780598348.304912,10.272337000002153,292658,0.04834,-0.047607,1.055664,2.374046,2.549618,-0.030534,1.057842,3.483903,7498,12497,4998,7498,0,120.0,0,load
1780598348.3360996,10.30352450000646,292689,0.017334,-0.023682,1.054199,0.274809,2.732824,-0.984733,1.054608,2.917798,7500,12501,5000,7500,0,120.0,0,load
1780598348.3660614,10.333486300005461,292720,0.05127,-0.022461,1.055176,3.51145,3.916031,-0.40458,1.056659,5.275345,7503,12506,5002,7503,1,120.0,14,load
1780598348.3966043,10.364029200005461,292751,0.026855,0.008057,1.041016,0.167939,2.122137,-1.0,1.041393,2.35195,7506,12511,5004,7506,0,120.0,1,load
1780598348.4275477,10.394972599999164,292781,0.0354,-0.040527,1.059326,0.755725,2.129771,-1.0,1.060692,2.471244,7508,12515,5006,7508,0,121.864,0,load
1780598348.457839,10.42526380000345,292812,0.040771,-0.046631,1.058594,3.656489,3.167939,-0.122137,1.060404,4.83949,7512,12521,5008,7512,0,121.864,5,load
1780598348.4898517,10.457276700006332,292843,0.056641,-0.000977,1.057129,0.40458,3.236641,-0.847328,1.058646,3.370088,7516,12527,5010,7516,0,121.864,0,load
1780598348.5211165,10.48854140000185,292874,0.02832,-0.043457,1.047119,2.022901,2.931298,-0.389313,1.048403,3.582764,7518,12532,5013,7518,1,121.864,13,load
1780598348.5513341,10.51875889999792,292905,0.0625,-0.012207,1.057129,1.145038,2.664122,-0.938931,1.059045,3.047991,7523,12539,5015,7523,0,121.864,0,load
1780598348.5820143,10.549439299997175,292935,0.073242,-0.040283,1.056641,1.114504,3.51145,-0.572519,1.059942,3.728295,7525,12543,5017,7525,0,121.864,1,load
1780598348.6135373,10.580962100008037,292966,0.083984,-0.032959,1.046387,2.717557,3.824427,-0.076336,1.050269,4.692248,7528,12548,5019,7528,1,121.864,14,load
1780598348.6436117,10.611036500005866,292997,0.042725,-0.023682,1.058594,1.007634,2.229008,-1.198473,1.05972,2.723993,7533,12555,5021,7533,0,121.864,0,load
1780598348.6744015,10.641826300008688,293028,0.046631,-0.035889,1.046387,1.664122,2.740458,-0.755725,1.04804,3.294015,7535,12559,5023,7535,0,121.864,1,load
1780598348.7053561,10.672780900000362,293059,0.052734,-0.031494,1.048584,2.564885,3.503817,-1.503817,1.050381,4.595306,7538,12563,5024,7538,0,107.914,4,load
1780598348.736144,10.70356900000479,293090,0.063721,-0.020752,1.061279,1.480916,3.519084,-0.70229,1.063393,3.882045,7542,12569,5026,7542,0,107.914,0,load
1780598348.7681062,10.735531099999207,293121,0.054932,-0.031006,1.043213,2.038168,2.778626,-1.320611,1.045118,3.69038,7544,12574,5029,7544,1,107.914,15,load
1780598348.800728,10.768152999997255,293153,0.034912,-0.035889,1.055908,1.824428,2.244275,-1.458015,1.057095,3.238999,7548,12579,5030,7548,0,107.914,5,load
1780598348.8311307,10.798555700006546,293185,0.070801,-0.026367,1.07373,0.793893,2.977099,-0.534351,1.076385,3.127126,7550,12583,5032,7550,0,107.914,0,load
1780598348.8637,10.831124800010002,293216,0.05835,-0.018311,1.053467,2.061069,3.656489,-0.564886,1.05524,4.235211,7551,12586,5034,7551,1,107.914,19,load
1780598348.8955536,10.862978400007705,293248,0.027344,-0.032715,1.052246,2.022901,1.923664,-1.122137,1.05311,3.008622,7555,12591,5035,7555,0,107.914,5,load
1780598348.9264693,10.893894300010288,293280,0.032227,-0.003906,1.06665,0.564886,2.839695,-0.541985,1.067144,2.945626,7558,12595,5036,7558,0,107.914,4,load
1780598348.9573278,10.924752799997805,293311,0.041748,-0.043945,1.053711,1.793893,2.793893,-0.51145,1.055453,3.359386,7559,12597,5037,7559,0,83.333,5,load
1780598348.9894204,10.956845300010173,293342,0.025879,-0.033691,1.049072,2.21374,3.068702,-0.679389,1.049932,3.844366,7562,12601,5038,7562,0,83.333,5,load
1780598349.0202758,10.987700700003188,293374,0.052734,-0.010254,1.057617,1.122137,2.519084,-0.687023,1.058981,2.842002,7563,12603,5039,7563,0,83.333,4,load
1780598349.0525446,11.019969400003902,293405,0.051758,-0.024902,1.041748,1.687023,2.473282,-0.534351,1.04333,3.041168,7564,12605,5040,7564,0,83.333,5,load
1780598349.083026,11.050450900002033,293436,0.053223,-0.020996,1.05249,1.656489,2.183206,-0.549618,1.054044,2.795071,7565,12608,5042,7565,1,83.333,21,load
1780598349.1139421,11.08136700000614,293467,0.073242,-0.011719,1.063232,1.816794,3.145038,-0.725191,1.065816,3.703769,7567,12611,5043,7567,0,83.333,5,load
1780598349.1441615,11.111586300001363,293498,0.040527,-0.010742,1.05127,1.763359,3.442748,-1.458015,1.052105,4.133734,7568,12613,5044,7568,0,83.333,5,load
1780598349.1751509,11.142575699996087,293529,0.04248,-0.037109,1.060303,1.305344,2.938931,-1.900763,1.061802,3.735524,7569,12615,5045,7569,0,83.333,5,load
1780598349.2068698,11.174294800002826,293560,0.037109,-0.018799,1.046631,1.78626,3.465649,-0.396947,1.047457,3.919058,7570,12617,5046,7570,0,83.333,5,load
1780598349.2373545,11.204779400010011,293591,0.023682,-0.011475,1.049072,1.938931,3.671756,-0.580153,1.049402,4.192591,7571,12619,5047,7571,0,42.857,5,load
1780598349.26791,11.23533480000333,293622,0.025146,-0.040283,1.054443,0.40458,2.900763,-0.51145,1.055512,2.973162,7572,12621,5048,7572,0,42.857,6,load
1780598349.2999222,11.267347200002405,293653,0.053223,0.083984,1.064697,1.022901,3.183206,-0.946565,1.06933,3.474926,7573,12623,5049,7573,0,42.857,6,load
1780598349.3487213,11.316146199998911,293684,0.095947,-0.000977,1.072998,1.175572,3.389313,-0.839695,1.07728,3.684359,7574,12625,5050,7574,0,42.857,5,load
1780598349.3611884,11.328613200006657,293715,0.015137,-0.192139,1.040283,2.519084,2.335878,-0.534351,1.057986,3.476728,7574,12626,5051,7574,1,42.857,34,load
1780598349.3921692,11.359594000008656,293746,0.033447,-0.193115,1.052246,0.80916,2.343511,-0.877863,1.070343,2.6301,7575,12627,5051,7575,0,42.857,11,load
1780598349.4229233,11.390348100001574,293777,0.047119,0.102539,1.063965,1.91603,3.175573,-0.221374,1.069933,3.715433,7576,12629,5052,7576,0,42.857,6,load
1780598349.4547932,11.422218000006978,293808,0.033691,-0.057373,1.052978,0.618321,1.610687,-1.587786,1.055078,2.344717,7577,12631,5053,7577,0,42.857,7,load
1780598349.4848144,11.452239300007932,293839,0.055176,0.043213,1.071045,0.541985,3.0,-1.152672,1.073335,3.259202,7577,12631,5053,7577,0,42.857,7,load
1780598349.5148776,11.48230250000779,293869,0.031982,-0.170898,1.051514,1.29771,2.885496,-0.442748,1.065791,3.194709,7578,12633,5054,7578,0,25.18,7,load
1780598349.5452633,11.512688100003288,293899,0.044434,0.059814,1.06543,3.458015,2.618321,-0.694656,1.068032,4.392724,7578,12634,5055,7578,1,25.18,42,load
1780598349.5771656,11.544590400008019,293930,0.055664,0.062988,1.049561,1.908397,2.473282,-1.167939,1.052921,3.335144,7579,12635,5055,7579,0,25.18,12,load
1780598349.6074388,11.57486360000621,293961,0.038086,0.028076,1.055908,2.083969,2.961832,-0.412214,1.056968,3.6449,7580,12637,5056,7580,0,25.18,8,load
1780598349.638702,11.606126700004097,293992,0.032471,0.034912,1.064209,2.679389,2.687023,0.312977,1.065276,3.807515,7580,12637,5056,7580,0,25.18,8,load
1780598349.6705658,11.63799060000747,294023,0.036133,-0.080811,1.052002,0.992366,2.603053,-1.48855,1.05572,3.158553,7581,12639,5057,7581,0,25.18,8,load
1780598349.7001786,11.667603499998222,294054,0.030518,-0.099121,1.062988,-0.076336,2.694656,-0.175573,1.068036,2.701449,7581,12639,5057,7581,0,25.18,8,load
1780598349.7321799,11.699604800000088,294085,0.04248,-0.105225,1.055908,1.648855,2.610687,-1.122137,1.061988,3.285362,7582,12641,5058,7582,0,25.18,8,load
1780598349.7635317,11.730956600003992,294116,0.038574,0.072998,1.067139,1.801527,3.175573,-0.740458,1.070328,3.725324,7582,12641,5058,7582,0,25.18,8,load
1780598349.7942488,11.761673700006213,294147,0.026123,-0.105225,1.045166,1.603053,2.648855,-1.08397,1.050774,3.280427,7583,12643,5059,7583,0,17.986,9,load
1780598349.8240564,11.791481300009764,294178,0.057617,-0.043457,1.06665,1.0,3.083969,-0.984733,1.069089,3.388298,7583,12643,5059,7583,0,17.986,9,load
1780598349.8562727,11.82369760000438,294209,0.050293,-0.039551,1.061035,1.572519,2.938931,-0.442748,1.062962,3.362463,7583,12644,5060,7583,1,17.986,62,load
1780598349.88647,11.853894900006708,294240,0.03418,0.0625,1.057373,3.366412,2.610687,-0.801527,1.05977,4.334842,7584,12645,5060,7584,0,17.986,15,load
1780598349.91688,11.884304799998063,294270,0.047119,-0.066895,1.053467,1.091603,2.938931,0.137405,1.05664,3.13812,7584,12645,5060,7584,0,17.986,15,load
1780598349.9469721,11.914397100001224,294301,0.049805,0.087646,1.055908,1.70229,2.770992,-1.068702,1.060709,3.423202,7585,12647,5061,7585,0,17.986,7,load
1780598349.978025,11.945449799997732,294332,0.038574,-0.095703,1.046143,0.938931,3.061069,-0.282443,1.051219,3.214266,7585,12647,5061,7585,0,17.986,7,load
1780598350.0094228,11.976847600002657,294363,0.044434,-0.025146,1.045166,3.160305,2.480916,-0.503817,1.046412,4.049236,7586,12649,5062,7586,0,17.986,9,load
1780598350.040721,12.008145900006639,294394,0.033203,-0.142578,1.052246,1.648855,2.641221,-0.89313,1.062381,3.239206,7586,12649,5062,7586,0,17.986,9,load
1780598350.0717928,12.039217700003064,294426,0.048828,-0.003906,1.051025,3.091603,2.664122,-0.618321,1.052166,4.127696,7587,12651,5063,7587,0,14.337,9,load
1780598350.104186,12.07161100000667,294457,0.041504,-0.131836,1.050781,1.557252,2.473282,-0.89313,1.059832,3.056115,7587,12651,5063,7587,0,14.337,9,load
1780598350.135282,12.102706899997429,294488,0.045654,-0.027344,1.055176,0.763359,3.198473,-0.328244,1.056517,3.304647,7587,12652,5064,7587,1,14.337,59,load
1780598350.1648378,12.132262600003742,294519,0.049316,-0.006348,1.054443,2.244275,2.450382,-1.480916,1.055615,3.637891,7588,12653,5064,7588,0,14.337,14,load
1780598350.1955256,12.16295060000266,294549,0.050537,-0.027832,1.068359,1.534351,2.801527,-1.061069,1.069916,3.365806,7588,12653,5064,7588,0,14.337,14,load
1780598350.2259994,12.193424299999606,294580,0.038574,-0.018555,1.050049,0.832061,3.083969,-0.656489,1.050921,3.261008,7589,12655,5065,7589,0,14.337,4,load
1780598350.2587578,12.226182700003847,294611,0.043457,-0.04126,1.053223,-0.251908,2.625954,-0.458015,1.054926,2.677475,7589,12655,5065,7589,0,14.337,4,load
1780598350.2896874,12.257112200008123,294643,0.046387,-0.083252,1.056641,1.923664,2.709924,-1.732824,1.06093,3.747913,7590,12657,5066,7590,0,14.337,11,load
1780598350.3204951,12.287920000002487,294674,0.036377,-0.077393,1.05127,1.91603,2.908397,-0.206107,1.054742,3.4889,7590,12657,5066,7590,0,14.337,11,load
1780598350.3527913,12.32021610000811,294706,0.050537,0.089844,1.060791,2.633588,2.969466,-0.954198,1.065788,4.082157,7590,12658,5067,7590,1,10.714,69,load
1780598350.3848486,12.35227339999983,294738,0.033936,0.024902,1.052734,1.625954,3.198473,-0.839695,1.053576,3.684976,7591,12659,5067,7591,0,10.714,12,load
1780598350.4155283,12.382953100008308,294769,0.033203,-0.102783,1.046875,1.969466,2.374046,-0.78626,1.052432,3.183252,7591,12659,5067,7591,0,10.714,12,load
1780598350.4484868,12.41591170000902,294801,0.045898,0.113525,1.056885,2.564885,3.122137,-0.694656,1.063955,4.099869,7592,12661,5068,7592,0,10.714,11,load
1780598350.478878,12.446303000004264,294832,0.049561,-0.091797,1.050049,1.412214,2.847328,-0.229008,1.055218,3.186545,7592,12661,5068,7592,0,10.714,11,load
1780598350.5095923,12.477017199998954,294863,0.043701,-0.061035,1.056885,0.671756,2.778626,-0.396947,1.059547,2.886102,7592,12661,5068,7592,0,10.714,11,load
1780598350.539892,12.507316800008994,294894,0.038086,-0.08667,1.04541,0.793893,3.152672,-0.358779,1.049688,3.27083,7593,12663,5069,7593,0,10.714,1,load
1780598350.5708892,12.538314000004902,294924,0.047852,-0.0271,1.049072,0.961832,2.671756,-0.458015,1.050513,2.876313,7593,12663,5069,7593,0,10.714,1,load
1780598350.6009772,12.568402100005187,294955,0.036377,-0.015137,1.054443,0.778626,2.625954,-0.916031,1.055179,2.88808,7594,12665,5070,7594,0,10.714,10,load
1780598350.6335077,12.600932700006524,294986,0.051514,-0.056152,1.053955,0.70229,3.251908,-0.732824,1.056706,3.406633,7594,12665,5070,7594,0,14.286,10,load
1780598350.664386,12.631810899998527,295017,0.047119,-0.025635,1.058106,2.931298,3.099237,-0.305344,1.059464,4.276799,7594,12666,5071,7594,1,14.286,62,load
1780598350.694953,12.662377800006652,295048,0.05127,-0.081299,1.061768,1.358779,2.80916,-1.122137,1.066109,3.31615,7595,12667,5071,7595,0,14.286,15,load
1780598350.7268581,12.6942829000036,295079,0.054688,-0.036621,1.060791,1.908397,2.725191,-0.900763,1.062831,3.44674,7595,12668,5072,7595,1,14.286,53,load
1780598350.7583807,12.725805599999148,295111,0.039062,-0.01709,1.05542,1.816794,2.709924,-0.473282,1.056281,3.296729,7596,12669,5072,7596,0,14.286,10,load
1780598350.789944,12.757368799997494,295143,0.04834,0.05835,1.047852,3.053435,2.29771,-1.145038,1.050588,3.989242,7596,12670,5073,7596,1,14.286,53,load
1780598350.8207583,12.788183099997696,295174,0.035889,0.088135,1.056396,3.458015,2.015267,-1.076336,1.060674,4.144595,7597,12671,5073,7597,0,14.286,10,load
1780598350.8520114,12.819436400008271,295205,0.022949,-0.236816,1.041016,3.053435,2.503817,-0.343511,1.067859,3.963656,7598,12673,5074,7598,0,14.286,6,load
1780598350.8841023,12.851527300008456,295237,0.054688,-0.072266,1.048828,1.770992,2.916031,-0.114504,1.052736,3.413614,7599,12675,5075,7599,0,19.92,6,load
1780598350.9150097,12.882434500003,295268,0.046631,-0.022217,1.049072,1.587786,2.832061,-0.603053,1.050343,3.302318,7600,12677,5076,7600,0,19.92,5,load
1780598350.9452178,12.912642600000254,295299,0.04834,-0.003174,1.064209,0.870229,2.793893,-0.358779,1.065311,2.948196,7601,12679,5077,7601,0,19.92,5,load
1780598350.9762402,12.943664999998873,295329,0.050049,-0.016846,1.051025,1.419847,2.053435,0.480916,1.052351,2.542409,7602,12681,5078,7602,0,19.92,4,load
1780598351.007455,12.974880000008852,295360,0.044434,-0.051758,1.060303,1.435114,-0.29771,-0.641221,1.062495,1.599797,7605,12686,5080,7605,1,19.92,15,load
1780598351.0375268,13.004951599999913,295391,0.063965,-0.00708,1.034668,2.381679,0.916031,-1.923664,1.036668,3.19562,7610,12693,5082,7610,0,19.92,0,load
1780598351.0671146,13.034539400003268,295421,0.035645,0.001709,1.026123,1.282443,2.618321,-0.152672,1.026743,2.919516,7612,12697,5084,7612,0,19.92,1,load
1780598351.099103,13.066527900009532,295452,0.015625,-0.036133,1.064697,2.198473,1.030534,-2.40458,1.065425,3.417205,7616,12703,5086,7616,0,19.92,5,load
1780598351.1296535,13.097078300008434,295483,0.074463,-0.013672,1.042969,2.083969,1.625954,-2.19084,1.045713,3.433138,7620,12709,5088,7620,0,19.92,0,load
1780598351.1603758,13.127800800008117,295514,0.037598,0.029785,1.074463,0.885496,2.671756,1.381679,1.075533,3.13551,7622,12713,5090,7622,0,83.032,0,load
1780598351.1916275,13.159052400005748,295545,0.02832,-0.071045,1.031006,2.480916,2.40458,-1.709924,1.033839,3.854969,7627,12719,5091,7627,0,83.032,4,load
1780598351.2223082,13.189733000006527,295575,0.052734,0.010986,1.047119,2.152672,3.946565,-0.496183,1.048504,4.522783,7631,12725,5093,7631,0,83.032,0,load
1780598351.2526712,13.220096100005321,295606,0.033447,-0.041504,1.086914,0.801527,2.435115,0.29771,1.08822,2.580864,7633,12730,5096,7633,1,83.032,14,load
1780598351.2904303,13.257855100004235,295642,0.072998,-0.024414,1.049072,2.916031,1.572519,-2.870229,1.051892,4.383408,7638,12737,5098,7638,0,83.032,0,load
1780598351.3213236,13.288748599996325,295674,0.031738,-0.046387,1.079346,1.648855,1.351145,-0.221374,1.080808,2.143204,7639,12740,5100,7639,1,83.032,17,load
1780598351.3509731,13.318398100003833,295705,0.035889,-0.00415,1.029785,2.70229,2.374046,-2.435115,1.030419,4.34376,7644,12747,5102,7644,0,83.032,0,load
1780598351.3821805,13.349605399998836,295735,0.040771,0.017334,1.063721,0.931298,3.78626,1.717557,1.064643,4.260643,7645,12749,5103,7645,0,83.032,5,load
1780598351.413512,13.380936900008237,295766,0.072266,-0.074951,1.061523,2.618321,1.08397,-1.740458,1.066617,3.325626,7649,12755,5105,7649,0,107.143,5,load
1780598351.443259,13.410683900001459,295797,0.055908,-0.004639,1.048584,1.633588,4.305344,-1.801527,1.050084,4.944704,7653,12761,5107,7653,0,107.143,0,load
1780598351.4757636,13.443188400007784,295828,0.019287,-0.030273,1.077148,0.687023,1.557252,-0.183206,1.077746,1.711899,7655,12766,5110,7655,1,107.143,14,load
1780598351.5061023,13.47352710000996,295860,0.049072,-0.006348,1.033203,2.625954,3.053435,-2.366412,1.034387,4.671082,7659,12771,5111,7659,0,107.143,5,load
1780598351.538291,13.505715899998904,295891,0.033203,0.013672,1.056396,1.061069,3.801527,0.717557,1.057007,4.011528,7661,12775,5113,7661,0,107.143,0,load
1780598351.5682168,13.53564170000027,295922,0.035889,-0.066162,1.020752,2.732824,0.78626,-1.625954,1.023523,3.275708,7666,12781,5114,7666,0,107.143,5,load
1780598351.5989184,13.56634320000012,295953,0.059814,0.005859,1.053223,1.496183,4.48855,-1.503817,1.054936,4.964586,7668,12785,5116,7668,0,107.143,1,load
1780598351.630576,13.598000800004229,295984,0.011475,-0.031006,1.078369,0.755725,1.557252,0.854962,1.078876,1.930573,7670,12790,5119,7670,1,107.143,14,load
1780598351.661187,13.628611799998907,296015,0.040283,-0.046143,1.03833,3.038168,2.770992,-3.129771,1.040135,5.167624,7675,12797,5121,7675,0,107.143,0,load
1780598351.6930375,13.66046240000287,296046,0.045166,0.011963,1.077637,0.923664,3.473282,1.312977,1.078649,3.826324,7677,12801,5123,7677,0,100.0,0,load
1780598351.7231936,13.69061839999631,296077,0.049805,-0.068359,1.05249,2.656489,1.145038,-1.51145,1.055883,3.263821,7680,12805,5124,7680,0,100.0,4,load
1780598351.7544277,13.721852600006969,296108,0.030029,-0.007568,1.042969,1.748092,4.030534,-1.374046,1.043428,4.603154,7684,12811,5126,7684,0,100.0,0,load
1780598351.7866437,13.7540685999993,296139,0.025146,-0.049316,1.069824,-0.083969,2.030534,0.534351,1.071255,2.101345,7685,12814,5128,7685,1,100.0,17,load
1780598351.8169265,13.784351399997831,296170,0.03833,-0.062744,1.041504,2.687023,2.770992,-2.061069,1.044096,4.375671,7690,12821,5130,7690,0,100.0,0,load
1780598351.8489363,13.816361200006213,296201,0.04248,0.016602,1.052978,0.541985,4.564886,1.503817,1.053966,4.836672,7692,12825,5132,7692,0,100.0,0,load
1780598351.879657,13.84708180000598,296232,0.073486,-0.075928,1.07373,2.59542,0.938931,-0.839695,1.078917,2.884941,7696,12831,5134,7696,0,100.0,5,load
1780598351.9091341,13.876558999996632,296263,0.059326,-0.00708,1.037598,2.122137,3.625954,-2.320611,1.039316,4.799608,7699,12835,5135,7699,0,100.0,4,load
1780598351.9393475,13.906772400005138,296294,0.044189,-0.029297,1.0625,-0.167939,2.732824,1.0,1.063822,2.914881,7701,12840,5138,7701,1,100.0,14,load
1780598351.9708376,13.938262499999837,296324,0.039795,-0.073975,1.026856,2.59542,1.938931,-2.541985,1.030285,4.11793,7707,12847,5139,7707,0,107.914,0,load
1780598352.0023875,13.969812499999534,296355,0.041992,0.021729,1.047852,1.343511,4.801526,-0.19084,1.048918,4.989599,7709,12851,5141,7709,0,107.914,0,load
1780598352.0335906,14.001015500005451,296386,0.041504,-0.046875,1.075439,1.381679,1.167939,0.129771,1.07726,1.813825,7712,12856,5143,7712,1,107.914,14,load
1780598352.0662422,14.03366709999682,296418,0.028564,-0.013916,1.030762,1.969466,3.519084,-2.038168,1.031251,4.518504,7717,12863,5145,7717,0,107.914,1,load
1780598352.0959754,14.063400200000615,296449,0.033691,0.010254,1.07373,0.351145,3.320611,1.152672,1.074308,3.532479,7719,12867,5147,7719,0,107.914,0,load
1780598352.1267676,14.09419240000716,296480,0.041504,-0.080322,1.02832,2.832061,1.755725,-2.625954,1.032287,4.242496,7725,12875,5149,7725,0,107.914,0,load
1780598352.1591554,14.126580199997989,296512,0.065186,0.011963,1.044189,0.923664,4.251908,0.679389,1.04629,4.4038,7727,12879,5151,7727,0,107.914,1,load
1780598352.189676,14.157101000004332,296543,0.050781,-0.066162,1.066162,2.175573,1.206107,-0.519084,1.069419,2.541114,7731,12885,5153,7731,0,107.914,4,load
1780598352.221628,14.189052900008392,296574,0.02832,-0.024414,1.036621,1.839695,3.473282,-2.229008,1.037295,4.518478,7735,12891,5155,7735,0,112.0,0,load
1780598352.2525966,14.220021500004805,296605,0.056152,-0.012451,1.067383,0.450382,2.541985,1.305344,1.068931,2.892828,7737,12896,5158,7737,1,112.0,15,load
1780598352.283433,14.250857799997902,296636,0.05835,-0.083496,1.037354,2.51145,2.236641,-2.770992,1.042343,4.357562,7742,12903,5160,7742,0,112.0,0,load
1780598352.3144581,14.281883100004052,296668,0.051514,0.01001,1.047363,0.664122,4.0,1.045802,1.048677,4.187453,7744,12907,5162,7744,0,112.0,0,load
1780598352.34485,14.312275000003865,296698,0.03418,-0.075684,1.068848,1.740458,1.29771,-0.229008,1.072069,2.183046,7747,12912,5164,7747,0,112.0,14,load
1780598352.3852727,14.352697599999374,296728,0.019531,-0.020508,1.026856,2.816794,2.748092,-2.480916,1.027246,4.652019,7752,12919,5166,7752,0,112.0,0,load
1780598352.4057143,14.373139100003755,296759,0.006348,0.03833,1.06543,0.778626,3.450382,1.19084,1.066138,3.732224,7754,12923,5168,7754,0,112.0,0,load
1780598352.4362538,14.403678700007731,296790,0.023438,-0.074219,1.027588,2.564885,1.40458,-2.267176,1.030531,3.700212,7757,12929,5171,7757,0,112.0,5,load
1780598352.4669034,14.43432830000529,296821,0.039795,0.044189,1.048828,1.961832,4.557252,-1.145038,1.050513,5.091998,7761,12935,5173,7761,0,112.0,0,load
1780598352.4984589,14.46588370000245,296852,0.03125,-0.052734,1.077148,0.954198,1.167939,0.770992,1.078891,1.693814,7763,12940,5176,7763,1,100.719,14,load
1780598352.5296428,14.497067800009972,296883,0.078125,-0.031738,1.050049,2.938931,2.503817,-2.656489,1.053429,4.686507,7768,12947,5178,7768,0,100.719,0,load
1780598352.561102,14.52852669999993,296914,0.027344,0.040283,1.071533,0.793893,3.748092,1.251908,1.072639,4.0306,7770,12951,5180,7770,0,100.719,1,load
1780598352.5918193,14.559244200005196,296945,0.029297,-0.069092,1.046143,2.78626,1.122137,-1.687023,1.048831,3.445066,7774,12957,5182,7774,0,100.719,4,load
1780598352.6229188,14.590343600008055,296976,0.062988,0.020508,1.050781,1.748092,4.114504,-1.290076,1.052867,4.652877,7778,12963,5184,7778,0,100.719,0,load
1780598352.654338,14.621762800001306,297007,0.018311,-0.050537,1.078613,0.725191,1.709924,0.78626,1.079952,2.016915,7780,12968,5187,7780,1,100.719,15,load
1780598352.6855075,14.652932400000282,297038,0.052734,-0.023438,1.044922,2.969466,2.885496,-2.740458,1.046514,4.965272,7785,12975,5189,7785,0,100.719,0,load
1780598352.716853,14.684277799999109,297069,0.043213,0.005127,1.066162,0.648855,4.267176,1.717557,1.06705,4.645407,7787,12979,5191,7787,0,100.719,0,load
1780598352.746961,14.714385900006164,297100,0.031738,-0.06958,1.044922,2.267176,2.007634,-1.427481,1.047717,3.347892,7791,12985,5193,7791,0,100.719,5,load
1780598352.7779756,14.745400500003598,297131,0.046387,0.022949,1.046631,1.641221,4.229008,-1.664122,1.04791,4.831916,7795,12991,5195,7795,0,114.695,0,load
1780598352.8091547,14.77657950000139,297162,0.026855,-0.043945,1.072266,0.267176,2.083969,0.839695,1.073502,2.262609,7797,12996,5198,7797,1,114.695,14,load
1780598352.8412342,14.80865900000208,297194,0.063965,-0.029785,1.03833,2.839695,2.832061,-2.885496,1.040725,4.940701,7802,13003,5200,7802,0,114.695,0,load
1780598352.8734179,14.840842700010398,297226,0.035889,0.027344,1.072754,-0.061069,3.687023,1.10687,1.073702,3.850069,7804,13007,5202,7804,0,114.695,1,load
1780598352.9043443,14.871769100005622,297257,0.031494,-0.081299,1.039795,2.48855,1.328244,-2.21374,1.043444,3.585772,7809,13013,5203,7809,0,114.695,5,load
1780598352.935197,14.902622100009467,297288,0.03125,0.038574,1.052734,1.419847,4.671756,-0.526718,1.053904,4.91108,7813,13019,5205,7813,0,114.695,0,load
1780598352.9666023,14.934027299997979,297319,0.019775,-0.057373,1.076904,1.030534,1.89313,0.816794,1.078613,2.305015,7815,13024,5208,7815,1,114.695,14,load
1780598352.9975626,14.96498750000319,297350,0.027832,-0.025635,1.025146,2.862595,2.160305,-2.603053,1.025844,4.431394,7820,13031,5210,7820,0,114.695,0,load
1780598353.027142,14.994567000001553,297381,0.010986,0.038818,1.0625,0.839695,3.801527,1.526718,1.063266,4.181813,7822,13035,5212,7822,0,108.0,0,load
1780598353.0586352,15.026060100004543,297412,0.05127,-0.079834,1.055908,2.480916,1.908397,-1.419847,1.060162,3.436988,7826,13041,5214,7826,0,108.0,4,load
1780598353.0902855,15.057710499997484,297443,0.077637,0.010498,1.058106,1.931298,4.564886,-1.053435,1.061002,5.067328,7830,13047,5216,7830,0,108.0,0,load
1780598353.120223,15.087647799999104,297474,0.008789,-0.041992,1.076904,0.374046,1.740458,0.694656,1.077759,1.91093,7832,13052,5219,7832,1,108.0,14,load
1780598353.1509306,15.11835560000327,297504,0.05542,-0.077881,1.038086,3.083969,2.167939,-2.381679,1.042478,4.45906,7837,13059,5221,7837,0,108.0,0,load
1780598353.1804392,15.147864200000186,297535,0.046631,0.007324,1.045898,0.496183,3.832061,0.755725,1.046963,3.937259,7839,13063,5223,7839,0,108.0,0,load
1780598353.2247233,15.19214820000343,297566,0.061768,-0.05835,1.063721,2.068702,1.580153,-0.709924,1.067109,2.698222,7843,13069,5225,7843,0,108.0,5,load
1780598353.2436044,15.211029300000519,297598,0.039795,0.013916,1.03833,1.633588,4.38168,-1.70229,1.039186,4.976496,7847,13075,5227,7847,0,108.0,0,load
1780598353.2743347,15.241759500000626,297628,0.054199,-0.010254,1.064941,0.343511,2.160305,0.984733,1.066369,2.398878,7849,13080,5230,7849,1,108.0,14,load
1780598353.3057637,15.273188699997263,297659,0.07666,-0.073486,1.048584,2.664122,2.473282,-2.78626,1.053947,4.580166,7855,13087,5231,7855,0,118.705,1,load
1780598353.337445,15.304869900006452,297691,0.059814,-0.003906,1.062744,0.832061,3.984733,0.931298,1.064433,4.175852,7857,13091,5233,7857,0,118.705,1,load
1780598353.3701687,15.337593600008404,297722,0.050293,-0.063232,1.061279,2.312977,1.40458,-1.442748,1.06435,3.066632,7861,13097,5235,7861,0,118.705,5,load
1780598353.400514,15.367938800001866,297754,0.049805,0.034912,1.053955,1.580153,4.0229,-1.389313,1.055708,4.539912,7865,13103,5237,7865,0,118.705,0,load
1780598353.431385,15.398809799997252,297785,0.038574,-0.046631,1.087158,0.389313,1.603053,1.007634,1.088841,1.933047,7867,13108,5240,7867,1,118.705,14,load
1780598353.462582,15.430007100003422,297816,0.072021,-0.041748,1.04541,3.083969,2.748092,-2.816794,1.048719,4.99972,7872,13115,5242,7872,0,118.705,0,load
1780598353.4934564,15.460881200007861,297847,0.068848,-0.016113,1.059326,0.755725,4.122138,1.015267,1.061683,4.312065,7873,13117,5243,7873,0,118.705,5,load
1780598353.524718,15.49214290000964,297878,0.045654,-0.060059,1.071045,2.465649,1.236641,-1.167939,1.073698,2.995461,7877,13123,5245,7877,0,118.705,4,load
1780598353.5559547,15.52337960001023,297909,0.081787,0.013184,1.041748,1.832061,4.122138,-1.78626,1.045037,4.85172,7881,13129,5247,7881,0,104.0,0,load
1780598353.5870132,15.554438200008008,297940,0.039062,-0.033447,1.063721,0.335878,2.221374,0.946565,1.064963,2.437889,7883,13134,5250,7883,1,104.0,14,load
1780598353.6180649,15.58548979999614,297971,0.040771,-0.067627,1.030762,2.877863,2.412214,-2.885496,1.033782,4.735711,7888,13141,5252,7888,0,104.0,0,load
1780598353.6489158,15.616340699998545,298002,0.051514,0.010254,1.036377,0.351145,4.816794,0.877863,1.037707,4.908712,7890,13145,5254,7890,0,104.0,0,load
1780598353.6803796,15.64780449999671,298033,0.074219,-0.076172,1.067871,2.320611,1.938931,-0.70229,1.073154,3.104497,7894,13151,5256,7894,0,104.0,5,load
1780598353.7117276,15.67915240000002,298065,0.051758,0.012939,1.049561,1.793893,4.167938,-1.427481,1.050916,4.756834,7896,13155,5258,7896,0,104.0,0,load
1780598353.7426856,15.710110500003793,298096,0.032715,-0.035889,1.074951,0.534351,1.221374,0.954198,1.076047,1.639445,7898,13160,5261,7898,1,104.0,15,load
1780598353.7740562,15.741481000004569,298127,0.046875,-0.05127,1.036377,2.885496,2.534351,-2.305344,1.038702,4.479244,7903,13167,5263,7903,0,104.0,1,load
1780598353.805049,15.772473700009868,298158,0.046875,0.01416,1.047607,0.656489,4.343512,1.198473,1.048751,4.553395,7905,13171,5265,7905,0,104.0,0,load
1780598353.8355536,15.802978400010034,298189,0.060059,-0.056396,1.075928,2.267176,2.076336,-0.969466,1.079077,3.223526,7909,13177,5267,7909,0,100.0,5,load
1780598353.8664305,15.83385530000669,298220,0.052734,-0.032959,1.039062,1.938931,3.816794,-1.664122,1.040922,4.593112,7913,13183,5269,7913,0,100.0,1,load
1780598353.8976717,15.86509649999789,298251,0.042725,-0.027344,1.068359,0.229008,2.946565,1.312977,1.069563,3.233976,7915,13188,5272,7915,1,100.0,14,load
1780598353.928688,15.896112800008268,298282,0.021729,-0.070557,1.028564,2.709924,2.0,-2.877863,1.031211,4.4301,7921,13195,5273,7921,0,100.0,1,load
1780598353.9596775,15.927102400004514,298313,0.033936,0.023438,1.037842,1.351145,4.603054,0.625954,1.038661,4.837924,7922,13197,5274,7922,0,100.0,5,load
1780598353.991625,15.959049900004175,298344,0.046387,-0.066162,1.06543,2.221374,2.183206,0.038168,1.068489,3.114859,7926,13203,5276,7926,0,100.0,5,load
1780598354.0224385,15.989863499999046,298375,0.028564,-0.017334,1.035889,2.152672,3.465649,-2.389313,1.036427,4.727952,7930,13209,5278,7930,0,100.0,1,load
1780598354.0523496,16.019774500004132,298406,0.003906,0.027588,1.049316,0.694656,3.48855,1.366412,1.049686,3.81046,7932,13213,5280,7932,0,100.0,0,load
1780598354.0837345,16.05115939999814,298437,0.04834,-0.07959,1.039551,2.48855,1.503817,-2.763359,1.043713,4.011296,7937,13221,5283,7937,0,100.0,1,load
1780598354.1161897,16.08361450000666,298469,0.02417,0.012207,1.035644,0.938931,4.526718,0.717557,1.035998,4.678424,7939,13225,5285,7939,0,107.143,0,load
1780598354.1469333,16.114358300008462,298500,0.051025,-0.06665,1.059082,2.236641,1.618321,-0.358779,1.062403,2.783927,7943,13231,5287,7943,0,107.143,5,load
1780598354.1788213,16.146246100004646,298532,0.056885,-0.002197,1.05957,1.862595,4.335878,-2.053435,1.061098,5.146425,7947,13237,5289,7947,0,107.143,1,load
1780598354.2096825,16.17710739999893,298563,0.054932,-0.040283,1.060547,0.557252,2.412214,0.770992,1.062732,2.593016,7949,13242,5292,7949,1,107.143,14,load
1780598354.241765,16.209189800007152,298595,0.040771,-0.054932,1.042236,3.343511,2.70229,-3.091603,1.044479,5.295229,7954,13249,5294,7954,0,107.143,0,load
1780598354.2717264,16.239151200003107,298626,0.048828,0.007568,1.055176,0.732824,4.030534,1.145038,1.056332,4.253628,7956,13253,5296,7956,0,107.143,1,load
1780598354.3045719,16.271996800001943,298657,0.055176,-0.062988,1.061523,2.725191,1.282443,-0.625954,1.064821,3.076222,7960,13259,5298,7960,0,107.143,5,load
1780598354.3361685,16.30359340000723,298689,0.067383,0.019287,1.054199,1.969466,4.72519,-0.839695,1.056527,5.187611,7964,13265,5300,7964,0,107.143,1,load
1780598354.3671238,16.334548700004234,298720,0.037354,-0.035645,1.063477,0.427481,1.954198,0.801527,1.064729,2.155012,7966,13270,5303,7966,1,107.57,14,load
1780598354.3974383,16.364863099996,298751,0.035645,-0.030762,1.032959,2.931298,2.885496,-3.129771,1.034031,5.168565,7971,13277,5305,7971,0,107.57,0,load
1780598354.427827,16.39525180000055,298782,0.049561,-0.001953,1.057129,0.549618,4.267176,0.793893,1.058292,4.375058,7973,13281,5307,7973,0,107.57,1,load
1780598354.4602487,16.42767360000289,298813,0.047852,-0.062988,1.072266,2.519084,1.885496,-1.122137,1.075179,3.340669,7977,13287,5309,7977,0,107.57,5,load
1780598354.4899373,16.457362100001774,298844,0.062744,0.021484,1.042725,2.427481,3.091603,-1.70229,1.044832,4.28351,7979,13291,5311,7979,0,107.57,0,load
1780598354.5220418,16.489466700004414,298875,0.01709,-0.0354,1.057129,0.183206,2.633588,1.129771,1.05786,2.871538,7981,13296,5314,7981,1,107.57,14,load
1780598354.5541685,16.52159329999995,298907,0.06958,-0.062744,1.043701,3.21374,1.847328,-3.396947,1.047898,5.027922,7986,13303,5316,7986,0,107.57,0,load
1780598354.584689,16.552113700003247,298938,0.078857,0.022217,1.056641,0.709924,3.862595,0.916031,1.059812,4.03271,7988,13307,5318,7988,0,107.57,1,load
1780598354.6155922,16.58301709999796,298969,0.038574,-0.053467,1.0625,2.450382,1.122137,-0.770992,1.064544,2.803211,7992,13313,5320,7992,0,107.57,5,load
1780598354.646548,16.61397289999877,299000,0.041016,-0.00293,1.036133,2.862595,3.412214,-2.038168,1.036948,4.898141,7996,13319,5322,7996,0,107.143,1,load
1780598354.6790667,16.646491499996046,299031,0.065918,0.015869,1.047119,-0.40458,3.175573,2.580153,1.049312,4.111586,7998,13324,5325,7998,1,107.143,14,load
1780598354.7101324,16.67755720000423,299063,0.031006,-0.072998,1.031494,2.832061,2.816794,-2.244275,1.034539,4.581666,8003,13331,5327,8003,0,107.143,1,load
1780598354.7415714,16.708996400004253,299094,0.070068,-0.010986,1.064209,0.557252,4.343512,1.183206,1.06657,4.536144,8005,13335,5329,8005,0,107.143,0,load
1780598354.7718263,16.739251100007095,299125,0.06543,-0.069824,1.071045,2.679389,1.328244,-0.732824,1.075311,3.079024,8009,13341,5331,8009,0,107.143,5,load
1780598354.8037572,16.77118209999753,299157,0.046875,0.007568,1.050781,1.748092,4.007634,-1.335878,1.051853,4.571818,8013,13347,5333,8013,0,107.143,1,load
1780598354.8348737,16.80229859999963,299188,0.033691,-0.033691,1.061523,0.442748,1.687023,0.641221,1.062592,1.858289,8015,13352,5336,8015,1,107.143,14,load
1780598354.8648741,16.83229890000075,299219,0.050293,-0.051758,1.041992,2.564885,2.320611,-3.0,1.044488,4.578632,8020,13359,5338,8020,0,107.143,0,load
1780598354.896062,16.863486700007343,299249,0.058594,0.013428,1.046387,0.763359,4.671756,-0.114504,1.048112,4.735096,8022,13363,5340,8022,0,107.143,0,load
1780598354.9257846,16.89320950000547,299280,0.050049,-0.0625,1.071289,2.122137,2.0,-0.274809,1.074277,2.928991,8026,13369,5342,8026,0,107.143,5,load
1780598354.955955,16.923380000007455,299310,0.051025,0.0,1.092285,2.580153,3.328244,-2.679389,1.093476,4.991345,8030,13375,5344,8030,0,107.143,1,load
1780598354.986625,16.954049799998756,299340,0.055664,0.010254,1.053955,0.732824,3.381679,1.473282,1.055474,3.760764,8032,13379,5346,8032,0,107.143,0,load
1780598355.0182745,16.985699299999396,299371,0.053223,-0.079346,1.045166,2.80916,1.709924,-1.374046,1.049524,3.564158,8036,13385,5348,8036,0,107.143,5,load
1780598355.0485044,17.015929300003336,299402,0.082764,0.016113,1.051514,1.549618,3.954198,-1.480916,1.054889,4.49779,8039,13389,5349,8039,0,107.143,4,load
1780598355.0800602,17.047485200004303,299433,0.043457,-0.042725,1.068848,0.236641,2.183206,0.480916,1.070584,2.248037,8041,13394,5352,8041,1,107.143,14,load
1780598355.1100125,17.077437400002964,299464,0.068604,-0.061768,1.037598,2.961832,2.656489,-2.70229,1.041696,4.809548,8046,13401,5354,8046,0,107.143,0,load
1780598355.1406748,17.108099700009916,299494,0.052246,0.026367,1.047119,0.89313,5.992366,0.29771,1.048753,6.065869,8048,13405,5356,8048,0,107.143,0,load
1780598355.1717703,17.13919509999687,299525,0.035889,-0.063965,1.069336,2.061069,3.854962,0.442748,1.071848,4.393718,8051,13410,5358,8051,0,107.143,14,load
1780598355.2040384,17.171463200007565,299557,0.061768,-0.026367,1.045166,1.59542,-1.793893,-3.877863,1.047322,4.560837,8056,13417,5360,8056,0,108.303,0,load
1780598355.2347631,17.20218790000945,299588,0.085938,0.006592,1.023682,-0.076336,1.992366,0.549618,1.027304,2.068195,8058,13421,5362,8058,0,108.303,0,load
1780598355.2657232,17.233147999999346,299619,0.019043,-0.068359,1.029541,2.984733,0.687023,-3.305344,1.031984,4.50621,8063,13429,5365,8063,0,108.303,0,load
1780598355.2956765,17.263101300006383,299650,0.030029,0.027588,1.040772,1.045802,4.183206,-0.519084,1.04157,4.343082,8065,13433,5367,8065,0,108.303,1,load
1780598355.340167,17.307591999997385,299680,0.023682,-0.048584,1.07373,1.244275,1.389313,0.473282,1.07509,1.924164,8067,13438,5370,8067,1,108.303,14,load
1780598355.3579495,17.325374400010332,299711,0.042725,-0.023926,1.035644,2.755725,2.687023,-3.282443,1.036801,5.058512,8072,13445,5372,8072,0,108.303,1,load
1780598355.3893259,17.356750699997065,299742,0.052734,0.016357,1.080566,0.992366,3.748092,1.183206,1.081976,4.053758,8074,13449,5374,8074,0,108.303,0,load
1780598355.419818,17.38724270000239,299773,0.061035,-0.077637,1.060791,2.732824,1.725191,-1.091603,1.065378,3.411189,8078,13455,5376,8078,0,108.303,5,load
1780598355.4504373,17.41786210000282,299804,0.047119,0.014893,1.048828,1.80916,4.099236,-1.389313,1.049992,4.691161,8082,13461,5378,8082,0,108.303,1,load
1780598355.4821298,17.44955459999619,299835,0.020996,-0.032959,1.065918,0.564886,1.862595,1.183206,1.066634,2.277792,8084,13466,5381,8084,1,100.719,14,load
1780598355.5132036,17.480628500008606,299866,0.072266,-0.057617,1.036133,3.053435,2.496183,-2.725191,1.040247,4.793856,8089,13473,5383,8089,0,100.719,1,load
1780598355.543117,17.510541900002863,299897,0.067871,0.004883,1.042969,0.358779,4.099236,1.030534,1.045186,4.241988,8091,13477,5385,8091,0,100.719,0,load
1780598355.5750482,17.542473100009374,299928,0.069092,-0.061279,1.060059,2.610687,1.458015,-0.755725,1.064074,3.084253,8095,13483,5387,8095,0,100.719,5,load
1780598355.606883,17.574307900009444,299960,0.068604,0.024414,1.057617,1.740458,3.946565,-1.763359,1.060121,4.659828,8099,13489,5389,8099,0,100.719,0,load
1780598355.6377146,17.605139400009648,299991,0.015625,-0.039551,1.060791,0.427481,1.854962,0.969466,1.061643,2.136232,8100,13492,5391,8100,1,100.719,18,load
1780598355.6682482,17.63567299999704,300022,0.024658,-0.06543,1.026367,3.076336,2.381679,-3.015267,1.028746,4.922202,8105,13499,5393,8105,0,100.719,1,load
1780598355.7001035,17.66752850000921,300053,0.073242,-0.011963,1.049561,0.229008,4.496184,1.328244,1.052181,4.693862,8106,13501,5394,8106,0,100.719,4,load
1780598355.731013,17.698438000006718,300084,0.063721,-0.071289,1.057617,2.580153,1.992366,-0.984733,1.061931,3.40535,8110,13507,5396,8110,0,100.719,5,load
1780598355.7629476,17.73037240000849,300116,0.06665,0.005615,1.036865,1.603053,4.763358,-1.312977,1.03902,5.194543,8114,13513,5398,8114,0,106.762,0,load
1780598355.7938275,17.761252299998887,300147,0.026611,-0.026855,1.057861,0.564886,3.671756,2.374046,1.058537,4.408739,8116,13518,5401,8116,1,106.762,15,load
1780598355.8259752,17.79340010001033,300179,0.041748,-0.056396,1.041992,2.458015,3.961832,-2.129771,1.044352,5.125805,8120,13523,5402,8120,0,106.762,4,load
1780598355.8567197,17.82414460000291,300210,0.053955,-0.031006,1.037842,1.48855,7.206106,0.961832,1.039706,7.420841,8121,13525,5403,8121,0,106.762,4,load
1780598355.888061,17.855486000000383,300241,0.023438,-0.037842,1.057617,0.908397,4.290076,1.312977,1.058553,4.577538,8125,13531,5405,8125,0,106.762,4,load
1780598355.9198318,17.88725670000713,300273,0.037598,-0.072021,1.044434,2.793893,1.755725,-3.236641,1.047589,4.622148,8129,13537,5407,8129,0,106.762,0,load
1780598355.9511402,17.918565100000706,300304,0.046631,-0.006104,1.052978,2.083969,4.198474,-0.503817,1.054028,4.714227,8131,13542,5410,8131,1,106.762,14,load
1780598355.9822788,17.949703799997224,300335,0.023682,-0.039062,1.054199,1.099237,-0.145038,-0.206107,1.055188,1.127758,8135,13547,5411,8135,0,106.762,4,load
1780598356.012173,17.97959770000307,300366,0.067627,0.001709,1.041748,1.465649,5.648855,-1.687023,1.043942,6.074844,8136,13549,5412,8136,0,88.0,5,load
1780598356.0422466,18.00967149999633,300396,0.032715,-0.031494,1.054199,0.114504,5.305344,2.335878,1.055177,5.79794,8137,13552,5414,8137,1,88.0,19,load
1780598356.073307,18.040731800007052,300427,0.048828,-0.077148,1.02002,2.572519,4.610687,-3.076336,1.024098,6.110657,8139,13555,5415,8139,0,88.0,3,load
1780598356.104135,18.07155999999668,300458,0.046143,-0.002197,1.0354,2.022901,5.412214,-1.801527,1.03643,6.052246,8140,13557,5416,8140,0,88.0,4,load
1780598356.1334915,18.100916499999585,300488,0.008545,-0.019287,1.075195,0.259542,5.145038,0.549618,1.075402,5.180816,8141,13560,5418,8141,1,88.0,19,load
1780598356.165496,18.132920900010504,300518,0.061035,-0.006836,0.990967,3.122137,6.267176,-0.351145,0.992868,7.010602,8145,13565,5419,8145,0,88.0,4,load
1780598356.1946871,18.162112100006198,300548,0.033936,0.005615,1.066894,0.29771,3.847328,-0.671756,1.067449,3.916864,8146,13567,5420,8146,0,88.0,3,load
1780598356.2271204,18.19454530000803,300579,0.054199,-0.039062,1.061035,1.427481,1.580153,-0.259542,1.063136,2.145214,8147,13570,5422,8147,1,88.0,20,load
1780598356.2568276,18.224252400003024,300610,0.024414,-0.010742,1.055176,2.458015,2.877863,-1.061069,1.055513,3.930623,8149,13573,5423,8149,0,88.0,4,load
1780598356.2884693,18.255894300004,300641,0.064697,-0.033447,1.057373,1.694656,2.503817,-4.442748,1.059878,5.373916,8150,13575,5424,8150,0,50.909,4,load
1780598356.3196635,18.287088299999596,300672,0.031982,-0.022461,1.078369,0.419847,1.343511,-3.343511,1.079077,3.627722,8151,13578,5426,8151,1,50.909,20,load
1780598356.3488693,18.31629420000536,300703,0.001953,-0.032471,1.050781,1.534351,0.129771,-2.030534,1.051285,2.548361,8153,13581,5427,8153,0,50.909,4,load
1780598356.3809006,18.34832550000283,300734,0.047363,-0.025146,1.020264,2.534351,3.931298,-5.78626,1.021672,7.440352,8154,13583,5428,8154,0,50.909,3,load
1780598356.4117615,18.379186500009382,300765,-0.0271,-0.029541,1.044678,1.900763,3.51145,-5.648855,1.045447,6.917568,8155,13585,5429,8155,0,50.909,2,load
1780598356.442979,18.410404000009294,300796,-0.047852,-0.037598,1.133545,0.923664,3.099237,-5.32061,1.135177,6.226341,8158,13589,5430,8158,0,50.909,2,load
1780598356.4733493,18.440774200003943,300827,0.080078,-0.057861,1.039795,0.526718,3.145038,-7.221374,1.044478,7.894108,8159,13591,5431,8159,0,50.909,3,load
1780598356.5046484,18.472073400000227,300858,0.044678,0.067871,1.072022,0.923664,1.854962,-2.229008,1.075096,3.043438,8160,13593,5432,8160,0,50.909,3,load
1780598356.5357716,18.503196500008926,300889,0.059082,-0.119385,1.047607,0.931298,1.374046,-4.412214,1.056042,4.714122,8163,13597,5433,8163,0,50.909,3,load
1780598356.5670168,18.53444170000148,300920,0.053955,0.001709,1.013672,3.030534,6.42748,-3.572519,1.015108,7.953586,8164,13599,5434,8164,0,50.179,2,load
1780598356.5971138,18.564538599996013,300951,0.001953,0.003174,1.114746,0.167939,0.030534,0.496183,1.114752,0.524722,8165,13601,5435,8165,0,50.179,2,load
1780598356.6290452,18.596470000004047,300981,0.062256,0.023438,1.031494,2.129771,3.160305,4.641222,1.033637,6.005364,8166,13603,5436,8166,0,50.179,2,load
1780598356.659018,18.626443000001018,301012,0.072998,0.009277,1.027588,0.900763,4.72519,1.534351,1.030219,5.049063,8169,13607,5437,8169,0,50.179,2,load
1780598356.690227,18.657651800007443,301043,0.078613,0.002686,1.037842,1.816794,4.030534,0.137405,1.040818,4.423215,8170,13609,5438,8170,0,50.179,1,load
1780598356.7216625,18.68908750000992,301074,0.050781,-0.013916,1.043701,1.824428,3.274809,-0.587786,1.045028,3.794523,8170,13609,5438,8170,0,50.179,1,load
1780598356.753041,18.72046589999809,301106,0.036133,-0.009521,1.064209,1.732824,2.824427,-0.40458,1.064865,3.338226,8170,13609,5438,8170,0,50.179,1,load
1780598356.7851574,18.752582200002507,301137,0.038086,-0.010254,1.053223,1.725191,3.045802,-0.389313,1.053961,3.522038,8170,13609,5438,8170,0,50.179,1,load
1780598356.814134,18.781558800008497,301168,-0.009033,0.002197,1.057373,1.10687,2.061069,-0.748092,1.057414,2.456177,8170,13609,5438,8170,0,50.179,1,load
1780598356.8463662,18.81379110000853,301198,0.036865,-0.010742,1.044678,1.305344,2.038168,-1.312977,1.045383,2.753536,8170,13609,5438,8170,0,21.583,1,load
1780598356.883893,18.8513180000009,301236,0.11792,-0.01416,1.071045,1.816794,4.129771,-0.458015,1.07761,4.534922,8170,13609,5438,8170,0,21.583,1,load
1780598356.914577,18.882001799996942,301267,0.091309,-0.020752,1.030273,0.824427,5.854962,0.267176,1.03452,5.918754,8170,13609,5438,8170,0,21.583,1,load
1780598356.9456987,18.913123500009533,301299,-0.020508,-0.043457,1.060791,1.152672,1.122137,-0.961832,1.061879,1.874291,8170,13609,5438,8170,0,21.583,1,load
1780598356.977064,18.944488799999817,301330,0.041992,-0.009521,1.057129,1.541985,0.992366,-1.48855,1.058005,2.36184,8170,13609,5438,8170,0,21.583,1,load
1780598357.0084605,18.975885400010156,301361,0.089111,0.008057,1.019531,2.022901,5.687022,-1.160305,1.02345,6.146598,8170,13609,5438,8170,0,21.583,1,load
1780598357.038746,19.006171000000904,301392,0.047119,0.01416,1.031006,1.450382,2.557252,0.21374,1.032179,2.947682,8170,13609,5438,8170,0,21.583,1,load
1780598357.069718,19.037142800007132,301423,0.008301,-0.062988,1.016846,1.80916,2.610687,-0.580153,1.018828,3.228827,8170,13609,5438,8170,0,21.583,1,load
1780598357.1001167,19.067541500000516,301454,-0.006836,-0.035645,1.049805,1.679389,1.679389,-1.137405,1.050432,2.633322,8170,13609,5438,8170,0,0.0,1,load
1780598357.1325285,19.099953500000993,301485,0.035156,0.029053,1.062744,1.603053,1.78626,-0.763359,1.063722,2.518575,8170,13609,5438,8170,0,0.0,1,load
1780598357.1637042,19.131129100002,301516,0.033691,-0.04541,1.034912,2.687023,3.816794,-0.603053,1.036456,4.706557,8170,13609,5438,8170,0,0.0,1,load
1780598357.194845,19.162269899999956,301547,0.034668,0.010742,1.057129,1.671756,3.931298,-1.10687,1.057752,4.413052,8170,13609,5438,8170,0,0.0,1,load
1780598357.2257938,19.193218700005673,301578,0.065674,0.029297,1.036133,1.763359,2.526718,-1.045802,1.038625,3.253834,8170,13609,5438,8170,0,0.0,1,load
1780598357.2557645,19.22318929999892,301609,0.043213,0.01416,1.048828,1.389313,2.969466,-0.366412,1.049813,3.298814,8170,13609,5438,8170,0,0.0,1,load
1780598357.287343,19.254767799997353,301640,0.028076,0.058594,1.070801,-0.21374,2.549618,0.122137,1.07277,2.561475,8170,13609,5438,8170,0,0.0,1,load
1780598357.3177269,19.28515180000977,301671,0.025391,0.062256,1.071533,0.435114,2.099237,0.358779,1.07364,2.17367,8170,13609,5438,8170,0,0.0,1,load
1780598357.3618653,19.32929010000953,301702,0.011963,0.064941,1.070312,1.137405,1.618321,1.923664,1.072348,2.759191,8170,13609,5438,8170,0,0.0,1,load
1780598357.380259,19.347684000007575,301733,0.036377,0.033936,1.060791,1.480916,2.251908,0.732824,1.061957,2.793069,8170,13609,5438,8170,0,0.0,1,load
1780598357.4116907,19.379115700008697,301764,0.020752,-0.063965,1.047852,1.290076,2.129771,-0.152672,1.050007,2.4947,8170,13609,5438,8170,0,0.0,1,load
1780598357.442654,19.410078700006125,301795,0.072021,-0.043457,1.045166,1.167939,2.687023,2.496183,1.048545,3.849039,8170,13609,5438,8170,0,0.0,1,load
1780598357.4736435,19.441068500003894,301826,0.059814,0.033447,1.068115,1.045802,3.480916,0.954198,1.070311,3.757788,8170,13609,5438,8170,0,0.0,1,load
1780598357.504327,19.47175199999765,301857,0.048096,-0.083008,1.044189,0.885496,3.030534,0.083969,1.048587,3.158368,8170,13609,5438,8170,0,0.0,1,load
1780598357.535298,19.502722999997786,301888,0.005615,0.019775,1.041504,0.610687,3.206107,-0.572519,1.041707,3.313584,8170,13609,5438,8170,0,0.0,1,load
1780598357.5646951,19.532119900002726,301918,0.04834,-0.110107,1.046387,2.977099,2.671756,-0.053435,1.053274,4.000532,8170,13609,5438,8170,0,0.0,1,load
1780598357.5970497,19.56447460000345,301949,0.068359,-0.048584,1.061035,1.366412,2.725191,-1.526718,1.064344,3.409489,8170,13609,5438,8170,0,0.0,1,load
1780598357.626134,19.59355869999854,301980,0.02417,0.094482,1.057861,0.954198,3.778626,-1.282443,1.062347,4.102824,8170,13609,5438,8170,0,0.0,1,load
1780598357.6560817,19.623506500007352,302010,0.076416,0.008057,1.055908,2.587786,4.335878,-1.351145,1.0587,5.227051,8170,13609,5438,8170,0,0.0,1,load
1780598357.6864188,19.653843699998106,302040,-0.002441,-0.09668,1.034424,1.099237,2.206107,-0.587786,1.038935,2.533914,8170,13609,5438,8170,0,0.0,1,load
1780598357.7173347,19.68475970000145,302070,0.074463,0.017822,1.056152,0.984733,2.183206,0.083969,1.058924,2.396485,8170,13609,5438,8170,0,0.0,1,load
1780598357.7479987,19.715423500005272,302101,0.101318,-0.062256,1.052734,2.854962,4.748092,-0.10687,1.05943,5.541354,8170,13609,5438,8170,0,0.0,1,load
1780598357.7792265,19.746651499997824,302132,0.048584,0.03833,1.042969,1.519084,4.442748,-0.923664,1.044803,4.785268,8170,13609,5438,8170,0,0.0,1,load
1780598357.8111975,19.77862230000028,302163,0.046631,-0.086914,1.04248,2.549618,3.78626,-0.648855,1.047136,4.610567,8170,13609,5438,8170,0,0.0,1,load
1780598357.8404126,19.80783760000486,302194,0.027588,0.010742,1.046875,0.740458,3.679389,-0.51145,1.047294,3.787844,8170,13609,5438,8170,0,0.0,1,load
1780598357.8720634,19.839488300000085,302225,0.095215,-0.022949,1.058106,1.992366,3.664122,-0.832061,1.062629,4.252957,8170,13609,5438,8170,0,0.0,1,load
1780598357.9043236,19.871748500008835,302256,-0.014404,-0.056396,1.073242,2.503817,0.412214,-1.068702,1.074819,2.753388,8170,13609,5438,8170,0,0.0,1,load
1780598357.9331439,19.900568700002623,302287,0.049805,-0.001953,1.050293,1.725191,3.198473,-0.946565,1.051475,3.755329,8170,13609,5438,8170,0,0.0,1,load
1780598357.9648595,19.932284299997264,302317,0.012695,-0.046631,1.04248,2.175573,2.534351,-1.068702,1.0436,3.506876,8170,13609,5438,8170,0,0.0,1,load
1780598357.9950764,19.962501200003317,302348,0.005859,-0.039062,1.050537,2.183206,2.656489,-1.503817,1.051279,3.75297,8170,13609,5438,8170,0,0.0,1,load
1780598358.0262954,19.993720200000098,302379,-0.009033,-0.013184,1.058106,1.366412,2.19084,-0.51145,1.058226,2.632194,8170,13609,5438,8170,0,0.0,1,load
1780598358.057302,20.024726900010137,302410,0.015381,0.032715,1.066894,1.557252,1.793893,-1.435114,1.067507,2.775363,8170,13609,5438,8170,0,0.0,1,load
1780598358.088672,20.056096700005583,302441,0.018311,0.023193,1.059814,1.770992,1.412214,-1.19084,1.060226,2.559074,8170,13609,5438,8170,0,0.0,1,load
1780598358.1209078,20.088332600003923,302472,0.054932,-0.10083,1.058106,1.648855,3.679389,-0.320611,1.064317,4.044678,8170,13609,5438,8170,0,0.0,1,load
1780598358.149687,20.117112000007182,302503,0.120361,0.045166,1.057861,0.938931,4.290076,-0.557252,1.065644,4.426836,8170,13609,5438,8170,0,0.0,1,load
1780598358.1810968,20.148521600000095,302534,0.102539,0.006592,1.04541,2.221374,4.641222,-0.152672,1.050448,5.147694,8170,13609,5438,8170,0,0.0,1,load
1780598358.2126462,20.180071000009775,302565,0.099609,-0.079834,1.051758,2.244275,4.51145,-0.282443,1.059476,5.046754,8170,13609,5438,8170,0,0.0,1,load
1780598358.2446108,20.212035700009437,302596,0.076904,-0.060547,1.040283,2.282443,3.015267,-0.755725,1.044878,3.856488,8170,13609,5438,8170,0,0.0,1,load
1780598358.274092,20.241516900001443,302627,0.017822,-0.018555,1.062744,2.129771,2.19084,-0.954198,1.063055,3.200968,8170,13609,5438,8170,0,0.0,1,load
1780598358.3048053,20.272230200003833,302658,0.04834,-0.066162,1.053467,1.923664,2.80916,-0.21374,1.056649,3.411385,8170,13609,5438,8170,0,0.0,1,load
1780598358.3354928,20.30291759999818,302689,0.03125,-0.029297,1.056885,1.603053,2.519084,-0.496183,1.057752,3.02684,8170,13609,5438,8170,0,0.0,1,load
1780598358.3658335,20.333258400001796,302719,0.102051,-0.051758,1.046875,1.221374,3.450382,-0.038168,1.05311,3.660375,8170,13609,5438,8170,0,0.0,1,load
1780598358.3960724,20.363497199999983,302750,0.016113,-0.006592,1.05249,-0.022901,2.801527,-0.625954,1.052634,2.870696,8170,13609,5438,8170,0,0.0,1,load
1780598358.427304,20.394728800005396,302780,0.009766,0.053467,1.064209,0.328244,2.335878,-0.80916,1.065596,2.493754,8170,13609,5438,8170,0,0.0,1,load
1780598358.456596,20.424020699996618,302810,0.026611,-0.083496,1.050293,2.877863,2.78626,-1.015267,1.053943,4.132324,8170,13609,5438,8170,0,0.0,1,load
1780598358.4880955,20.455520400006208,302841,0.001221,-0.012695,1.043457,3.541985,2.419847,-1.0,1.043535,4.404692,8170,13609,5438,8170,0,0.0,1,load
1780598358.5187438,20.48616860000766,302871,0.038574,0.10083,1.069092,1.641221,3.038168,-0.587786,1.074529,3.502794,8170,13609,5438,8170,0,0.0,1,load
1780598358.549129,20.51655380000011,302902,-0.001221,-0.127441,1.045898,2.076336,1.709924,-0.648855,1.053635,2.766952,8170,13609,5438,8170,0,0.0,1,load
1780598358.5794535,20.546878399996785,302933,0.076904,0.077881,1.043945,1.328244,4.10687,-0.221374,1.049667,4.321993,8170,13609,5438,8170,0,0.0,1,load
1780598358.6087508,20.57617570000002,302963,-0.004395,-0.020508,1.067383,1.29771,1.961832,-1.137405,1.067589,2.612762,8170,13609,5438,8170,0,0.0,1,load
1780598358.6396005,20.607025500008604,302992,0.07251,0.067139,1.071533,1.801527,1.694656,-1.389313,1.07608,2.83682,8170,13609,5438,8170,0,0.0,1,load
1780598358.6701486,20.637573500003782,303023,0.157227,-0.033203,1.029541,1.206107,4.045802,-0.732824,1.042006,4.284885,8170,13609,5438,8170,0,0.0,1,load
1780598358.7008042,20.668229100003373,303054,0.003906,0.036133,1.064209,1.664122,1.839695,-0.389313,1.064829,2.511044,8170,13609,5438,8170,0,0.0,1,load
1780598358.7313104,20.698735199999646,303084,0.063721,-0.043213,1.036865,1.885496,3.465649,-0.832061,1.03972,4.032139,8170,13609,5438,8170,0,0.0,1,load
1780598358.762571,20.729995900008362,303115,0.029053,-0.028076,1.051514,1.625954,3.030534,-0.381679,1.05229,3.460281,8170,13609,5438,8170,0,0.0,1,load
1780598358.7925308,20.759955700006685,303146,0.026611,0.049316,1.066894,1.374046,2.885496,-0.717557,1.068365,3.275512,8170,13609,5438,8170,0,0.0,1,load
1780598358.8242614,20.791686199998367,303177,0.037354,-0.041504,1.060547,1.687023,3.129771,-0.748092,1.062016,3.633339,8170,13609,5438,8170,0,0.0,1,load
1780598358.8548355,20.82226030000311,303208,0.085938,-0.029297,1.059082,2.061069,3.465649,-1.0,1.062967,4.154362,8170,13609,5438,8170,0,0.0,1,load
1780598358.8843505,20.8517753000051,303238,-0.005615,-0.112061,1.050293,3.923664,1.328244,-1.312977,1.056269,4.34549,8170,13609,5438,8170,0,0.0,1,load
1780598358.9144123,20.881837200009613,303267,0.005127,-0.098145,1.050293,2.137405,1.992366,-1.305344,1.054881,3.200304,8170,13609,5438,8170,0,0.0,1,load
1780598358.9455616,20.912986600000295,303298,0.052246,0.030762,1.07959,0.656489,3.320611,-0.801527,1.081291,3.478488,8170,13609,5438,8170,0,0.0,1,load
1780598358.97659,20.944014799999422,303329,0.061035,0.061768,1.071289,0.030534,4.076336,-0.870229,1.074803,4.168302,8170,13609,5438,8170,0,0.0,1,load
1780598359.007789,20.975213700003223,303360,0.117676,-0.049561,1.048584,0.854962,4.328244,-0.305344,1.05633,4.42243,8170,13609,5438,8170,0,0.0,1,load
1780598359.039133,21.006558000008226,303391,0.041504,-0.04126,1.062744,1.358779,3.664122,-1.045802,1.064354,4.045463,8170,13609,5438,8170,0,0.0,1,load
1780598359.0680506,21.035475399999996,303422,-0.009521,-0.077148,1.064453,2.129771,1.969466,-1.900763,1.067288,3.468086,8170,13609,5438,8170,0,0.0,1,load
1780598359.0995467,21.066971599997487,303452,0.022461,-0.046631,1.06958,3.007634,0.687023,-1.664122,1.070832,3.505305,8170,13609,5438,8170,0,0.0,1,load
1780598359.1303039,21.097728699998697,303483,0.014893,-0.047363,1.067139,2.473282,1.465649,-0.78626,1.068293,2.980513,8170,13609,5438,8170,0,0.0,1,load
1780598359.1617923,21.129217200010316,303514,0.05835,0.026855,1.0625,1.496183,3.236641,-0.984733,1.06444,3.699204,8170,13609,5438,8170,0,0.0,1,load
1780598359.1900084,21.157433300002594,303544,0.037598,0.006592,1.063721,1.427481,2.328244,-1.0,1.064405,2.908337,8170,13609,5438,8170,0,0.0,1,load
1780598359.221158,21.18858290000935,303574,0.029053,-0.074951,1.05957,3.541985,1.389313,-1.351145,1.062615,4.037504,8170,13609,5438,8170,0,0.0,1,load
1780598359.2526088,21.22003360000963,303605,0.010254,-0.012695,1.070801,3.122137,1.343511,-1.778626,1.070925,3.83618,8170,13609,5438,8170,0,0.0,1,load
1780598359.2837112,21.25113610000699,303636,0.002686,-0.081299,1.057129,2.541985,1.305344,-1.687023,1.060254,3.318381,8170,13609,5438,8170,0,0.0,1,load
1780598359.3145738,21.28199869999662,303667,0.02417,0.029785,1.067139,1.564886,1.89313,-1.496183,1.067828,2.875999,8170,13609,5438,8170,0,0.0,1,load
1780598359.3447096,21.31213440001011,303698,0.087891,-0.081299,1.03418,1.900763,4.259542,-0.29771,1.041087,4.673888,8170,13609,5438,8170,0,0.0,1,load
1780598359.376179,21.34360380000726,303729,0.069336,-0.094482,1.032227,1.198473,3.954198,-0.229008,1.038858,4.138172,8170,13609,5438,8170,0,0.0,1,load
1780598359.406944,21.374368800010416,303760,0.03125,0.052979,1.05127,1.870229,3.030534,-0.732824,1.053067,3.635784,8170,13609,5438,8170,0,0.0,1,load
1780598359.436734,21.404158899997128,303790,-0.016357,0.025635,1.06665,1.641221,1.664122,-0.931298,1.067084,2.515994,8170,13609,5438,8170,0,0.0,1,load
1780598359.4674878,21.434912700002315,303821,0.033936,0.026611,1.065918,0.900763,2.244275,-1.10687,1.06679,2.659569,8170,13609,5438,8170,0,0.0,1,load
1780598359.4984536,21.465878600007272,303852,0.002441,0.016357,1.051025,1.908397,1.885496,-0.870229,1.051155,2.82035,8170,13609,5438,8170,0,0.0,1,load
1780598359.5291443,21.496569199996884,303882,-0.002197,-0.04834,1.062256,2.007634,1.610687,-0.839695,1.063357,2.707396,8170,13609,5438,8170,0,0.0,1,load
1780598359.5586212,21.526046099999803,303913,0.001465,0.000977,1.0625,1.21374,1.618321,-1.099237,1.062501,2.30227,8170,13609,5438,8170,0,0.0,1,load
1780598359.5898433,21.557268200005637,303942,0.068604,-0.071289,1.053467,1.954198,3.099237,0.229008,1.058102,3.67105,8170,13609,5438,8170,0,0.0,1,load
1780598359.6208482,21.58827310000197,303973,0.063965,-0.104248,1.049316,2.175573,2.984733,-0.709924,1.05642,3.761082,8170,13609,5438,8170,0,0.0,1,load
1780598359.651146,21.618570899998304,304004,0.094727,-0.081299,1.038574,1.671756,4.152672,0.022901,1.046049,4.476603,8170,13609,5438,8170,0,0.0,1,load
1780598359.682636,21.65006080000603,304035,0.066895,-0.097168,1.060059,1.580153,4.076336,-0.48855,1.066602,4.3991,8170,13609,5438,8170,0,0.0,1,load
1780598359.713749,21.681173700009822,304066,0.098389,-0.017334,1.057617,0.908397,4.389313,-0.549618,1.062325,4.515898,8170,13609,5438,8170,0,0.0,1,load
1780598359.7438574,21.71128220000537,304097,0.092041,0.025879,1.052978,1.847328,4.038168,-0.267176,1.05731,4.448686,8170,13609,5438,8170,0,0.0,1,load
1780598359.7749407,21.74236550000205,304128,0.084717,0.006592,1.052978,1.045802,3.725191,-0.305344,1.056402,3.881235,8170,13609,5438,8170,0,0.0,1,load
1780598359.807005,21.774429700002656,304159,0.048096,-0.038086,1.052246,1.290076,3.10687,-0.435114,1.054033,3.392088,8170,13609,5438,8170,0,0.0,1,load
1780598359.8384671,21.805892100004712,304190,0.036133,-0.024414,1.057373,0.938931,2.122137,-0.290076,1.058272,2.338632,8170,13609,5438,8170,0,0.0,1,load
1780598359.8682413,21.8356660999998,304221,0.038818,0.00293,1.057373,0.671756,2.740458,-0.366412,1.058089,2.845281,8170,13609,5438,8170,0,0.0,1,load
1780598359.8985226,21.86594750000222,304251,0.066162,-0.052979,1.040527,2.045802,3.847328,-0.274809,1.043974,4.366092,8170,13609,5438,8170,0,0.0,1,load
1780598359.9293563,21.896781100003864,304282,0.063232,0.063721,1.06543,0.969466,3.480916,-0.450382,1.069205,3.641358,8170,13609,5438,8170,0,0.0,1,load
1780598359.9615154,21.928940199999488,304313,0.080078,-0.039062,1.038574,1.824428,4.229008,-0.198473,1.042389,4.610036,8170,13609,5438,8170,0,0.0,1,load
1780598359.990666,21.958090700005414,304344,0.060059,-0.097168,1.04834,1.48855,4.129771,-0.687023,1.054545,4.443286,8170,13609,5438,8170,0,0.0,1,load
1780598360.0227346,21.99015949999739,304375,0.068115,-0.095215,1.049072,0.946565,4.229008,-0.80916,1.055584,4.408541,8170,13609,5438,8170,0,0.0,1,load
1780598360.0532641,22.02068909999798,304406,0.021729,0.039062,1.049805,1.374046,2.396947,-0.557252,1.050756,2.81849,8170,13609,5438,8170,0,0.0,1,load
1780598360.0849135,22.052338299996336,304437,0.017822,-0.072754,1.050293,1.59542,1.755725,-0.229008,1.052961,2.383355,8170,13609,5438,8170,0,0.0,1,load
1780598360.113976,22.081400800001575,304468,0.0,-0.008789,1.050537,0.679389,1.427481,-0.061069,1.050574,1.582088,8170,13609,5438,8170,0,0.0,1,load
1780598360.1445022,22.11192710000614,304497,0.08252,0.060547,1.056641,0.687023,3.267176,-0.450382,1.061586,3.368869,8170,13609,5438,8170,0,0.0,1,load
1780598360.175703,22.14312790000986,304528,0.071045,0.031738,1.056885,1.053435,4.015268,-0.198473,1.059745,4.155898,8170,13609,5438,8170,0,0.0,1,load
1780598360.206905,22.1743298000074,304559,0.084473,0.009766,1.040039,1.030534,4.374046,-0.10687,1.04351,4.495075,8170,13609,5438,8170,0,0.0,1,load
1780598360.2382374,22.2056622000091,304590,0.085693,-0.106445,1.04126,2.183206,4.57252,0.709924,1.050188,5.116474,8170,13609,5438,8170,0,0.0,1,load
1780598360.2679107,22.235335700010182,304621,0.091553,-0.111572,1.026367,2.045802,4.740458,0.419847,1.036465,5.180108,8170,13609,5438,8170,0,0.0,1,load
1780598360.3004968,22.267921599996043,304652,0.05542,-0.082275,1.041504,1.419847,3.625954,0.51145,1.046217,3.927479,8170,13609,5438,8170,0,0.0,1,load
1780598360.3303542,22.297779000000446,304683,0.038086,0.049805,1.050049,0.480916,3.618321,-0.083969,1.051919,3.651106,8170,13609,5438,8170,0,0.0,1,load
1780598360.361324,22.328748900006758,304714,0.033936,0.01001,1.040527,0.885496,3.351145,-0.419847,1.041129,3.491496,8170,13609,5438,8170,0,0.0,1,load
1780598360.3924093,22.359834300004877,304745,0.015625,0.048096,1.061768,0.931298,2.80916,-0.305344,1.062971,2.97522,8170,13609,5438,8170,0,0.0,1,load
1780598360.4229221,22.39034700000775,304776,0.020996,-0.039307,1.050781,2.0,2.274809,-0.480916,1.051726,3.066926,8170,13609,5438,8170,0,0.0,1,load
1780598360.454328,22.421753000002354,304806,0.013916,-0.046875,1.068115,1.419847,1.832061,-1.59542,1.069234,2.813855,8170,13609,5438,8170,0,0.0,1,load
1780598360.4830894,22.45051439999952,304837,0.034668,-0.001465,1.07666,1.679389,2.183206,-1.114504,1.077219,2.971339,8170,13609,5438,8170,0,0.0,1,load
1780598360.513907,22.481331900009536,304867,0.055664,-0.056885,1.064209,2.328244,2.694656,-0.80916,1.067181,3.651936,8170,13609,5438,8170,0,0.0,1,load
1780598360.5447428,22.512167699998827,304898,0.085693,-0.061279,1.040039,2.564885,3.290076,-0.59542,1.045361,4.213996,8170,13609,5438,8170,0,0.0,1,load
1780598360.5760796,22.543504400004167,304929,0.062744,-0.067871,1.056152,2.381679,3.129771,-0.526718,1.060189,3.968034,8170,13609,5438,8170,0,0.0,1,load
1780598360.6075864,22.575011300010374,304960,0.091064,-0.050537,1.049561,2.633588,3.419847,-0.59542,1.054715,4.357254,8170,13609,5438,8170,0,0.0,1,load
1780598360.6379843,22.605409099996905,304991,0.090332,0.0271,1.046143,2.251908,3.290076,-0.969466,1.050385,4.103116,8170,13609,5438,8170,0,0.0,1,load
1780598360.670059,22.637483900005464,305022,0.088623,-0.010498,1.04126,2.10687,3.122137,-1.282443,1.045077,3.978857,8170,13609,5438,8170,0,0.0,1,load
1780598360.700362,22.667786899997736,305053,0.091309,0.025391,1.041748,2.412214,3.236641,-0.931298,1.04605,4.142697,8170,13609,5438,8170,0,0.0,1,load
1780598360.7315102,22.698935000007623,305084,0.081787,-0.000244,1.043701,2.358779,3.480916,-0.687023,1.046901,4.260588,8170,13609,5438,8170,0,0.0,1,load
1780598360.760848,22.728272799999104,305114,0.059814,-0.0625,1.034424,2.725191,3.740458,-0.778626,1.038035,4.692968,8170,13609,5438,8170,0,0.0,1,load
1780598360.7914844,22.758909299998777,305144,0.021729,-0.001709,1.053223,1.656489,2.603053,-1.755725,1.053448,3.549988,8170,13609,5438,8170,0,0.0,1,load
1780598360.8213537,22.78877850000572,305174,0.01709,-0.072754,1.049561,2.969466,1.374046,-1.580153,1.052218,3.63354,8170,13609,5438,8170,0,0.0,1,load
1780598360.8503032,22.817728000009083,305204,-0.031006,0.006348,1.065918,1.381679,1.236641,-1.70229,1.066388,2.517163,8170,13609,5438,8170,0,0.0,1,load
1780598360.8804066,22.847831599996425,305234,0.001953,-0.071289,1.083252,2.625954,1.114504,-2.29771,1.085597,3.662953,8170,13609,5438,8170,0,0.0,1,load
1780598360.9114835,22.878908300001058,305264,0.017822,-0.100342,1.070557,2.175573,1.603053,-1.435114,1.075396,3.059812,8170,13609,5438,8170,0,0.0,1,load
1780598360.941629,22.90905390000262,305295,0.007324,-0.081299,1.0625,2.832061,1.08397,-1.48855,1.065631,3.378067,8170,13609,5438,8170,0,0.0,1,load
1780598360.9719455,22.939370400010375,305325,-0.004639,-0.083496,1.070801,2.290076,1.832061,-1.503817,1.074061,3.29581,8170,13609,5438,8170,0,0.0,1,load
1780598361.005214,22.972638899998856,305356,-0.018799,-0.097168,1.047852,2.954198,0.633588,-1.679389,1.052515,3.456743,8170,13609,5438,8170,0,0.0,1,load
1780598361.0350726,23.002497499997844,305387,0.012939,-0.085449,1.039307,2.854962,1.473282,-1.633588,1.042894,3.604161,8170,13609,5438,8170,0,0.0,1,load
1780598361.065272,23.032697000002372,305418,0.030273,-0.033691,1.038086,2.0,2.427481,-1.412214,1.039074,3.447755,8170,13609,5438,8170,0,0.0,1,load
1780598361.0964193,23.063844300006167,305449,0.022949,-0.014893,1.040527,2.961832,2.19084,-1.946565,1.040887,4.166694,8170,13609,5438,8170,0,0.0,1,load
1780598361.1279132,23.095338099999935,305480,0.041504,-0.005615,1.05542,2.122137,2.473282,-1.938931,1.056251,3.792103,8170,13609,5438,8170,0,0.0,1,load
1780598361.1577334,23.125158199996804,305511,0.032227,0.050537,1.062744,1.763359,2.427481,-1.923664,1.064433,3.564068,8170,13609,5438,8170,0,0.0,1,load
1780598361.190082,23.15750690001005,305542,0.032715,-0.068115,1.05249,2.122137,2.251908,-1.687023,1.055199,3.524288,8170,13609,5438,8170,0,0.0,1,load
1780598361.220295,23.187719900000957,305573,0.053467,-0.014893,1.044922,1.839695,1.931298,-1.984733,1.046395,3.324688,8170,13609,5438,8170,0,0.0,1,load
1780598361.2506645,23.218089300004067,305604,-0.004395,0.02832,1.053223,2.419847,1.175572,-2.10687,1.053612,3.417094,8170,13609,5438,8170,0,0.0,1,load
1780598361.2824054,23.24983020000218,305635,-0.013184,-0.078369,1.037109,2.694656,1.137405,-1.335878,1.04015,3.215499,8170,13609,5438,8170,0,0.0,1,load
1780598361.3131394,23.28056440000364,305666,0.030029,-0.060303,1.081055,2.21374,1.312977,-1.282443,1.083152,2.875624,8170,13609,5438,8170,0,0.0,1,load
1780598361.3447566,23.312181500004954,305697,0.081299,-0.002441,1.071289,2.030534,2.396947,-0.267176,1.074372,3.152746,8170,13609,5438,8170,0,0.0,1,load
1780598361.3754742,23.34289919999719,305728,0.039551,-0.095215,1.051758,2.007634,3.259542,0.038168,1.056799,3.828402,8170,13609,5438,8170,0,0.0,1,load
1780598361.4062636,23.373688499996206,305759,0.014648,-0.000977,1.04541,1.793893,3.320611,0.129771,1.045513,3.77642,8170,13609,5438,8170,0,0.0,1,load
1780598361.4370804,23.40450520000013,305789,0.053711,-0.08667,1.062256,1.717557,3.221374,0.152672,1.067138,3.653842,8170,13609,5438,8170,0,0.0,1,load
1780598361.467432,23.434857000000193,305820,0.001221,-0.086914,1.060059,1.91603,2.007634,0.114504,1.063616,2.777567,8170,13609,5438,8170,0,0.0,1,load
1780598361.4989326,23.466357500001322,305851,0.040283,-0.079102,1.036377,1.679389,3.290076,-0.519084,1.040172,3.730201,8170,13609,5438,8170,0,0.0,1,load
1780598361.5305789,23.4980038000067,305882,0.027344,0.063721,1.049561,1.137405,3.717557,-0.343511,1.051848,3.902809,8170,13609,5438,8170,0,0.0,1,load
1780598361.5600522,23.52747709999676,305913,0.067139,0.056885,1.059082,1.587786,3.763359,-0.412214,1.062732,4.105345,8170,13609,5438,8170,0,0.0,1,load
1780598361.5920892,23.559514100008528,305944,0.056641,-0.062988,1.037842,2.755725,2.862595,-1.496183,1.041293,4.245826,8170,13609,5438,8170,0,0.0,1,load
1780598361.6220634,23.589488300000085,305975,0.11377,-0.020508,1.059326,2.40458,1.89313,-4.290076,1.065615,5.269791,8170,13609,5438,8170,0,0.0,1,load
1780598361.6530612,23.620486100000562,306006,0.067383,-0.046387,1.040283,2.267176,-1.503817,-2.068702,1.043495,3.41776,8170,13609,5438,8170,0,0.0,1,load
1780598361.685235,23.652659900006256,306037,0.023193,0.008057,0.998535,2.564885,-1.091603,-2.030534,0.998837,3.448667,8170,13609,5438,8170,0,0.0,1,load
1780598361.7153134,23.6827384000062,306068,0.08252,0.039551,0.997803,0.435114,2.748092,5.67939,1.00199,6.324302,8170,13609,5438,8170,0,0.0,1,load
1780598361.7454307,23.71285560000979,306098,0.121094,0.058105,1.070068,-3.274809,1.465649,6.587786,1.078465,7.501428,8170,13609,5438,8170,0,0.0,1,load
1780598361.77538,23.742804800000158,306129,0.005127,-0.014404,1.096191,6.183206,-4.664122,1.839695,1.096298,7.960562,8170,13609,5438,8170,0,0.0,1,load
1780598361.8062332,23.773658000005526,306159,0.060059,-0.084229,0.951416,8.175572,3.740458,0.541985,0.957023,9.006928,8172,13613,5440,8172,0,7.22,0,load
1780598361.8374562,23.80488100000366,306190,0.0896,0.015625,1.044189,-6.870229,6.442748,-0.251908,1.048143,9.421917,8173,13615,5441,8173,0,7.22,1,load
1780598361.8688774,23.83630219999759,306221,0.02002,0.017578,1.133301,7.099236,-6.351145,0.48855,1.133614,9.538075,8176,13619,5442,8176,0,7.22,2,load
1780598361.8997228,23.867147800003295,306252,0.072998,-0.031006,0.959473,8.80916,3.694656,-0.709924,0.962745,9.578923,8177,13621,5443,8177,0,7.22,2,load
1780598361.9317129,23.899137700005667,306283,0.010498,-0.016602,1.127686,-11.40458,0.984733,-1.236641,1.127856,11.513619,8179,13624,5444,8179,1,7.22,21,load
1780598361.9638414,23.93126630000188,306316,0.087646,-0.121338,0.976074,1.21374,6.91603,0.625954,0.987485,7.049572,8181,13627,5445,8181,0,7.22,2,load
1780598361.9951484,23.96257329999935,306347,0.081299,-0.010498,1.00708,-0.358779,6.687022,-1.503817,1.010411,6.863415,8182,13629,5446,8182,0,7.22,2,load
1780598362.0252516,23.992676499998197,306378,0.013428,0.052002,1.140137,3.534351,-3.10687,1.664122,1.141401,4.99135,8185,13633,5447,8185,0,7.22,3,load
1780598362.0573723,24.024797200007015,306409,0.107666,-0.030273,0.987305,6.717558,4.9771,0.229008,0.993619,8.363584,8186,13635,5448,8186,0,56.0,2,load
1780598362.0881808,24.055605600005947,306440,0.055664,-0.028076,1.121094,-5.534352,0.603053,-2.114504,1.122826,5.955153,8187,13638,5450,8187,1,56.0,20,load
1780598362.1212928,24.08871779999754,306472,0.065186,-0.081299,1.023926,8.297709,-0.458015,0.900763,1.029215,8.359014,8189,13641,5451,8189,0,56.0,3,load
1780598362.1498494,24.11727420000534,306503,0.109619,-0.005859,1.013916,0.732824,6.435114,-1.259542,1.019841,6.598044,8190,13643,5452,8190,0,56.0,3,load
1780598362.180727,24.148151800007327,306533,0.025146,0.012451,1.082764,0.664122,0.038168,1.526718,1.083127,1.665347,8192,13646,5453,8192,1,56.0,18,load
1780598362.2125344,24.17995940000401,306564,0.060303,-0.061768,1.017578,3.083969,3.381679,-0.801527,1.021233,4.646404,8194,13649,5454,8194,0,56.0,4,load
