host_epoch_s,host_elapsed_s,time_ms,ax,ay,az,gx,gy,gz,acc_mag,gyro_mag,pulse_count,edge_count,rise_count,fall_count,state,pulse_rate_hz,last_edge_dt_ms,label
1780604019.2262313,0.02038159999938216,190,0.035156,-0.017578,1.051025,0.984733,3.076336,-1.183206,1.05176,3.439988,23,43,20,23,1,0.0,0,damping
1780604019.257024,0.051174300009734,221,0.026123,-0.02417,1.053711,1.625954,2.503817,-1.312977,1.054312,3.261401,27,48,21,27,1,0.0,6,damping
1780604019.2890666,0.08321700000669807,252,0.048584,-0.030273,1.063721,1.648855,2.923664,-0.900763,1.06526,3.475329,31,54,23,31,0,123.016,0,damping
1780604019.3202593,0.11440960000618361,284,0.037354,-0.032227,1.049561,2.465649,2.748092,-1.167939,1.050719,3.872404,33,68,35,33,1,123.016,0,damping
1780604019.3524585,0.14660880000155885,315,0.039551,-0.018066,1.048096,1.145038,3.137405,-1.114504,1.048997,3.520872,38,75,37,38,0,123.016,1,damping
1780604019.3847106,0.17886080000607762,347,0.031494,-0.045166,1.049561,1.78626,2.946565,-1.152672,1.051004,3.633404,40,79,39,40,0,123.016,0,damping
1780604019.4138007,0.20795100000395905,378,0.036133,-0.009033,1.053467,1.656489,3.480916,-1.038168,1.054125,3.992308,42,84,42,42,1,123.016,14,damping
1780604019.4457507,0.2399011000088649,409,0.050537,-0.017334,1.056152,1.21374,3.587786,-1.221374,1.057503,3.979589,47,91,44,47,0,123.016,0,damping
1780604019.477446,0.271596500009764,440,0.043945,-0.047852,1.053711,2.748092,2.816794,-1.374046,1.055712,4.168254,51,97,46,51,0,123.016,0,damping
1780604019.507665,0.30181530000118073,471,0.046387,-0.027344,1.052978,0.679389,3.374046,-0.694656,1.054354,3.511168,53,102,49,53,1,123.016,13,damping
1780604019.5388892,0.3330395000084536,502,0.053223,-0.006836,1.062744,0.870229,3.305344,-0.916031,1.064098,3.538602,58,109,51,58,0,108.0,0,damping
1780604019.5698884,0.364038800005801,533,0.042725,-0.029541,1.047363,2.80916,3.282443,-0.625954,1.04865,4.365505,60,113,53,60,0,108.0,1,damping
1780604019.6018105,0.39596090000122786,564,0.040771,-0.03833,1.067871,1.870229,3.465649,-0.717557,1.069336,4.00292,64,120,56,64,1,108.0,1,damping
1780604019.6319802,0.42613059999712277,595,0.047607,-0.034424,1.057373,1.435114,2.587786,-1.061069,1.059004,3.143574,69,127,58,69,0,108.0,0,damping
1780604019.662312,0.4564624000049662,626,0.057861,-0.021973,1.066894,1.137405,3.40458,-1.122137,1.068688,3.760857,70,129,59,70,0,108.0,6,damping
1780604019.693351,0.4875014999997802,656,0.040283,-0.019531,1.050781,1.732824,3.389313,-0.78626,1.051734,3.886943,73,134,61,73,1,108.0,14,damping
1780604019.7234032,0.5175536000024294,687,0.05127,-0.003662,1.058838,1.442748,3.343511,-0.671756,1.060085,3.702951,78,141,63,78,0,108.0,0,damping
1780604019.7544203,0.5485706000035862,718,0.056152,-0.032471,1.062988,2.458015,3.145038,-1.129771,1.064966,4.148432,80,145,65,80,0,108.0,0,damping
1780604019.7864041,0.5805545000039274,749,0.045898,-0.030762,1.061035,1.954198,3.267176,-0.89313,1.062473,3.910372,83,150,67,83,1,108.0,14,damping
1780604019.8172328,0.6113830999966012,780,0.047363,-0.010498,1.055176,0.725191,3.312977,-0.946565,1.05629,3.521037,88,157,69,88,0,107.914,1,damping
1780604019.848121,0.64227120000578,811,0.04126,-0.034668,1.053223,1.519084,3.038168,-1.022901,1.0546,3.547451,90,161,71,90,0,107.914,1,damping
1780604019.8779898,0.6721401999966474,842,0.049316,-0.03125,1.063721,1.80916,3.519084,-0.824427,1.065322,4.041867,93,166,73,93,1,107.914,13,damping
1780604019.9106061,0.7047565999964718,873,0.053711,-0.047607,1.057129,0.839695,3.198473,-1.022901,1.059563,3.461451,99,175,76,99,0,107.914,0,damping
1780604019.940332,0.7344824000028893,904,0.049072,-0.020264,1.061035,1.679389,3.29771,-0.847328,1.062363,3.796473,101,179,78,101,0,107.914,0,damping
1780604019.97151,0.7656602000060957,935,0.040527,-0.036621,1.057373,1.458015,3.396947,-0.870229,1.058783,3.797678,104,184,80,104,1,107.914,14,damping
1780604020.0024292,0.7965795000054641,966,0.049072,-0.02832,1.055908,0.854962,2.679389,-0.816794,1.057427,2.928692,107,189,82,107,0,107.914,0,damping
1780604020.0340989,0.8282491999998456,997,0.047607,-0.021729,1.052002,1.534351,3.541985,-0.908397,1.053303,3.965485,110,195,85,110,0,107.914,1,damping
1780604020.065463,0.8596134000108577,1029,0.036377,-0.018799,1.057373,1.557252,2.862595,-0.740458,1.058166,3.34182,114,201,87,114,0,107.914,7,damping
1780604020.0978324,0.8919828000070993,1061,0.036621,-0.007568,1.060303,1.641221,2.832061,-0.526718,1.060962,3.31536,118,207,89,118,0,106.762,1,damping
1780604020.1302207,0.9243711000017356,1093,0.050537,-0.0271,1.056396,1.862595,3.007634,-1.022901,1.057952,3.682587,123,219,96,123,1,106.762,1,damping
1780604020.1612039,0.9553543000074569,1124,0.031738,-0.005859,1.056885,1.687023,2.267176,-1.366412,1.057377,3.138983,128,226,98,128,0,106.762,0,damping
1780604020.191487,0.9856374000082724,1155,0.047607,-0.01123,1.068115,1.343511,3.206107,-0.824427,1.069235,3.57265,131,232,101,131,0,106.762,1,damping
1780604020.223578,1.0177283000084572,1187,0.039062,-0.022705,1.048828,1.580153,2.923664,-1.549618,1.049801,3.66688,133,244,111,133,1,106.762,0,damping
1780604020.255692,1.0498423000099137,1218,0.034668,-0.01709,1.052978,1.068702,3.083969,-1.549618,1.053688,3.613075,136,249,113,136,0,106.762,0,damping
1780604020.2874959,1.0816462000075262,1250,0.031982,-0.024658,1.056641,1.908397,2.587786,-1.320611,1.057412,3.476008,138,253,115,138,0,106.762,0,damping
1780604020.3174036,1.1115540000027977,1281,0.044678,-0.019531,1.052734,1.770992,3.358779,-1.251908,1.053863,3.998135,140,258,118,140,1,106.762,14,damping
1780604020.3487184,1.1428687000006903,1312,0.04126,-0.008789,1.050781,2.10687,2.580153,-1.076336,1.051628,3.500656,145,265,120,145,0,107.57,1,damping
1780604020.3791254,1.1732757999998285,1343,0.035156,-0.045654,1.061279,2.557252,2.908397,-1.129771,1.062842,4.03419,147,269,122,147,0,107.57,0,damping
1780604020.4111483,1.2052986000053352,1374,0.045898,-0.01416,1.056396,1.366412,3.679389,-1.465649,1.057488,4.189644,149,274,125,149,1,107.57,14,damping
1780604020.4418006,1.2359510000096634,1405,0.046875,-0.01709,1.05542,1.366412,3.320611,-0.984733,1.056599,3.723337,154,281,127,154,0,107.57,1,damping
1780604020.4843776,1.2785280000098282,1436,0.034424,-0.031982,1.053223,1.870229,2.70229,-0.801527,1.05427,3.382687,156,285,129,156,0,107.57,1,damping
1780604020.502798,1.296948400005931,1466,0.04126,-0.015381,1.053223,1.442748,3.427481,-1.709924,1.054143,4.093042,158,292,134,158,1,107.57,14,damping
1780604020.5346181,1.3287684000097215,1497,0.041748,-0.026611,1.059326,2.145038,3.290076,-1.08397,1.060482,4.074406,163,299,136,163,0,107.57,1,damping
1780604020.5657508,1.3599013000057312,1529,0.031494,-0.039307,1.048584,2.679389,2.946565,-1.10687,1.049793,4.133586,164,301,137,164,0,107.57,6,damping
1780604020.597076,1.391226200008532,1560,0.05127,-0.010986,1.057129,2.290076,3.167939,-1.389313,1.058428,4.148552,166,306,140,166,1,107.57,13,damping
1780604020.6267629,1.420913299996755,1591,0.047607,-0.006104,1.060059,1.21374,2.954198,-1.10687,1.061145,3.38018,172,315,143,172,0,96.774,0,damping
1780604020.6576579,1.4518081999995047,1621,0.026855,-0.041504,1.047607,1.51145,2.618321,-0.656489,1.048773,3.093713,174,319,145,174,0,96.774,0,damping
1780604020.6887012,1.4828514999971958,1652,0.046143,-0.019775,1.050537,1.145038,3.419847,-1.351145,1.051736,3.851241,176,324,148,176,1,96.774,13,damping
1780604020.7201025,1.5142529000004288,1683,0.045654,-0.02002,1.055908,1.748092,2.610687,-1.19084,1.057084,3.360002,181,331,150,181,0,96.774,0,damping
1780604020.7510781,1.5452285000064876,1714,0.040283,-0.039307,1.053955,1.763359,2.687023,-1.114504,1.055457,3.401712,183,335,152,183,0,96.774,0,damping
1780604020.781535,1.5756853000057163,1745,0.042969,-0.011475,1.046143,1.984733,3.259542,-1.374046,1.047087,4.05608,186,342,156,186,1,96.774,14,damping
1780604020.8131866,1.6073369000077946,1777,0.046387,-0.016357,1.050781,0.954198,3.374046,-0.725191,1.051932,3.580584,190,347,157,190,0,96.774,7,damping
1780604020.8450243,1.6391746000008425,1808,0.035889,-0.031494,1.053711,1.656489,3.045802,-0.977099,1.054792,3.602164,192,351,159,192,0,96.774,1,damping
1780604020.875562,1.6697124000056647,1839,0.040527,-0.021973,1.056641,1.282443,3.0,-1.10687,1.057646,3.44526,195,356,161,195,1,96.774,13,damping
1780604020.9059622,1.70011269999668,1870,0.046875,-0.002197,1.047119,0.580153,3.19084,-0.862595,1.04817,3.355906,200,363,163,200,0,100.358,0,damping
1780604020.937681,1.731831199998851,1901,0.044922,-0.025635,1.055908,1.89313,2.610687,-1.335878,1.057174,3.490587,202,367,165,202,0,100.358,1,damping
1780604020.968582,1.7627323000051547,1932,0.041992,-0.035645,1.052978,1.824428,3.267176,-1.022901,1.054418,3.879342,205,372,167,205,1,100.358,14,damping
1780604021.0001,1.7942503000085708,1963,0.049805,-0.021729,1.057617,1.137405,3.389313,-1.015267,1.059012,3.716436,210,379,169,210,0,100.358,0,damping
1780604021.0313668,1.825517100005527,1995,0.03833,-0.014893,1.051758,1.564886,3.458015,-0.992366,1.052561,3.923204,212,383,171,212,0,100.358,1,damping
1780604021.0638363,1.8579866000072798,2026,0.04834,-0.016602,1.056641,1.847328,3.320611,-0.564886,1.057876,3.841637,216,389,173,216,0,100.358,6,damping
1780604021.0943732,1.8885236000060104,2058,0.044189,-0.008057,1.060791,1.351145,3.259542,-0.656489,1.061742,3.589037,220,395,175,220,0,100.358,0,damping
1780604021.1259313,1.9200817000091774,2089,0.048584,-0.039551,1.054199,1.687023,2.969466,-0.519084,1.056059,3.45445,222,399,177,222,0,100.358,0,damping
1780604021.1569998,1.9511502000095788,2120,0.058105,-0.024414,1.056152,2.038168,2.473282,-0.534351,1.058031,3.249121,227,405,178,227,0,108.0,6,damping
1780604021.1871133,1.9812636999995448,2151,0.049561,-0.013184,1.061279,1.389313,3.19084,-0.648855,1.062518,3.54015,231,411,180,231,0,108.0,0,damping
1780604021.2195773,2.0137277000030736,2183,0.043701,-0.018311,1.046143,1.473282,2.778626,-0.70229,1.047215,3.222504,237,423,186,237,1,108.0,0,damping
1780604021.250578,2.04472830001032,2214,0.040039,-0.022949,1.057617,1.10687,3.122137,-0.847328,1.058624,3.419191,241,428,187,241,0,108.0,6,damping
1780604021.2813442,2.075494600008824,2245,0.035645,-0.014648,1.056885,0.740458,3.122137,-0.618321,1.057587,3.267773,244,432,188,244,0,108.0,6,damping
1780604021.313218,2.10736850000103,2276,0.050781,-0.013916,1.05127,0.977099,2.648855,-0.687023,1.052587,2.905711,246,437,191,246,1,108.0,13,damping
1780604021.3435361,2.137686500005657,2307,0.039062,-0.026123,1.055176,1.862595,2.992366,-0.51145,1.056222,3.561615,251,444,193,251,0,108.0,7,damping
1780604021.37458,2.1687302000063937,2338,0.043213,-0.023926,1.069824,1.633588,3.580153,-0.59542,1.070964,3.980029,255,450,195,255,0,108.0,0,damping
1780604021.4063284,2.200478700004169,2370,0.041748,-0.012695,1.048584,1.183206,3.671756,-0.778626,1.049491,3.935483,257,462,205,257,1,120.0,1,damping
1780604021.4378467,2.2319971000106307,2401,0.033691,-0.026123,1.062256,1.526718,2.977099,-1.099237,1.063111,3.521691,259,465,206,259,0,120.0,6,damping
1780604021.4690595,2.263209900003858,2432,0.051758,-0.019287,1.053467,1.335878,3.748092,-0.40458,1.054914,3.999556,263,471,208,263,0,120.0,1,damping
1780604021.5078537,2.302003999997396,2464,0.043945,-0.019775,1.057373,0.862595,3.19084,-0.763359,1.05847,3.392381,265,486,221,265,1,120.0,0,damping
1780604021.531849,2.3259992000093916,2495,0.050049,-0.012451,1.061279,1.374046,2.954198,-0.885496,1.062532,3.376299,270,493,223,270,0,120.0,1,damping
1780604021.562349,2.3564995000051567,2526,0.042236,-0.032471,1.051758,1.610687,2.824427,-0.885496,1.053106,3.369838,272,497,225,272,0,120.0,0,damping
1780604021.593085,2.387235400005011,2557,0.043457,-0.008545,1.052002,1.778626,2.847328,-1.061069,1.052934,3.520888,274,502,228,274,1,120.0,13,damping
1780604021.6252177,2.419368000002578,2588,0.041016,-0.010986,1.05127,1.717557,2.641221,-1.030534,1.052127,3.314823,279,510,231,279,1,120.0,3,damping
1780604021.6560528,2.45020310000109,2620,0.047852,-0.011963,1.056641,1.717557,3.053435,-0.984733,1.057791,3.639116,282,515,233,282,0,100.0,1,damping
1780604021.6890318,2.483182299998589,2652,0.030029,-0.031494,1.050537,1.78626,3.129771,-1.335878,1.051438,3.843274,284,527,243,284,1,100.0,0,damping
1780604021.7197177,2.5138681000098586,2683,0.04541,-0.013916,1.05249,1.648855,2.885496,-1.137405,1.053561,3.51262,289,534,245,289,0,100.0,0,damping
1780604021.7501001,2.544250600010855,2714,0.04834,-0.029297,1.056641,1.748092,3.167939,-0.984733,1.058152,3.749848,291,538,247,291,0,100.0,1,damping
1780604021.7827532,2.5769035999983316,2746,0.052734,-0.032471,1.052734,2.015267,2.847328,-1.007634,1.054554,3.630965,293,550,257,293,1,100.0,0,damping
1780604021.8140905,2.6082408000074793,2777,0.043701,-0.024902,1.05249,1.587786,2.946565,-0.954198,1.053691,3.480489,298,557,259,298,0,100.0,0,damping
1780604021.8450751,2.639225400009309,2808,0.037354,-0.012451,1.049805,1.709924,2.870229,-0.80916,1.050543,3.437556,300,561,261,300,0,100.0,0,damping
1780604021.875153,2.669303500006208,2839,0.038818,-0.028564,1.051025,1.755725,2.862595,-1.076336,1.05213,3.526404,303,568,265,303,1,100.0,1,damping
1780604021.9077125,2.701862700007041,2870,0.032715,-0.019043,1.050293,1.320611,2.740458,-0.946565,1.050975,3.185924,308,575,267,308,0,104.0,1,damping
1780604021.937807,2.7319573999993736,2901,0.043213,-0.031006,1.054443,1.053435,3.167939,-0.633588,1.055784,3.398087,309,577,268,309,0,104.0,6,damping
1780604021.9695334,2.76368370000273,2933,0.040527,-0.01709,1.057129,1.839695,2.610687,-1.236641,1.058044,3.424828,314,590,276,314,1,104.0,1,damping
1780604022.000384,2.794534400003613,2964,0.037842,-0.016113,1.05542,1.816794,3.221374,-1.29771,1.056221,3.919444,320,597,277,320,0,104.0,0,damping
1780604022.0314217,2.8255719000007957,2995,0.039062,-0.037598,1.055664,1.671756,3.183206,-0.725191,1.057055,3.667897,323,603,280,323,0,104.0,0,damping
1780604022.0639682,2.8581186000083108,3027,0.030762,-0.031006,1.049805,1.465649,3.045802,-1.007634,1.050713,3.527089,325,615,290,325,1,104.0,0,damping
1780604022.0954661,2.889616600004956,3058,0.039795,-0.02002,1.052978,1.580153,2.793893,-1.129771,1.05392,3.402808,329,620,291,329,0,104.0,6,damping
1780604022.126365,2.9205154000082985,3089,0.04126,-0.032471,1.060059,1.48855,2.954198,-0.801527,1.061358,3.40375,331,624,293,331,0,104.0,1,damping
1780604022.1571693,2.951319700005115,3121,0.043457,-0.021729,1.052002,1.557252,3.091603,-1.015267,1.053123,3.607466,334,639,305,334,1,103.586,0,damping
1780604022.1894994,2.9836497000069357,3152,0.043701,-0.018066,1.055908,1.763359,2.51145,-0.984733,1.056967,3.222812,339,646,307,339,0,103.586,0,damping
1780604022.2210166,3.0151670000050217,3184,0.041992,-0.02002,1.058594,1.473282,2.656489,-1.091603,1.059615,3.227862,341,650,309,341,0,103.586,1,damping
1780604022.2525067,3.0466570999997202,3215,0.041504,-0.021729,1.048096,1.419847,2.908397,-1.374046,1.049142,3.516069,343,655,312,343,1,103.586,14,damping
1780604022.2835019,3.077652300009504,3246,0.050537,-0.013428,1.053467,1.114504,2.938931,-0.969466,1.054764,3.28927,348,662,314,348,0,103.586,0,damping
1780604022.3138735,3.108023900000262,3278,0.036133,-0.036377,1.055908,1.114504,3.022901,-1.0,1.057152,3.373433,350,666,316,350,0,103.586,0,damping
1780604022.345413,3.1395634000073187,3309,0.053711,-0.022461,1.061279,2.061069,2.587786,-1.358779,1.062875,3.57644,352,671,319,352,1,103.586,14,damping
1780604022.3772228,3.171373200006201,3340,0.040039,-0.01416,1.054199,1.603053,2.969466,-0.557252,1.055054,3.42024,357,678,321,357,0,103.586,1,damping
1780604022.408414,3.2025643000088166,3372,0.032959,-0.02124,1.055908,1.717557,2.572519,-0.900763,1.056636,3.221682,359,682,323,359,0,99.602,0,damping
1780604022.4582236,3.2523740000033285,3403,0.048096,-0.019043,1.054443,1.534351,3.10687,-1.236641,1.055711,3.679152,361,689,328,361,1,99.602,14,damping
1780604022.4700947,3.264244999998482,3434,0.038574,-0.021484,1.055176,1.679389,2.679389,-1.122137,1.056099,3.355394,365,694,329,365,0,99.602,7,damping
1780604022.5015097,3.295659900002647,3465,0.040039,-0.011963,1.05542,1.748092,3.129771,-0.801527,1.056247,3.673382,367,698,331,367,0,99.602,0,damping
1780604022.532142,3.3262923000002047,3496,0.039062,-0.035889,1.053711,1.610687,3.038168,-0.832061,1.055045,3.537952,369,703,334,369,1,99.602,13,damping
1780604022.5632477,3.357398000007379,3527,0.045898,-0.008545,1.061035,1.664122,2.931298,-1.282443,1.062062,3.606448,375,712,337,375,0,99.602,1,damping
1780604022.5942025,3.3883528000005754,3558,0.040039,-0.042969,1.055664,1.671756,2.687023,-0.984733,1.057297,3.314296,377,716,339,377,0,99.602,0,damping
1780604022.6266437,3.420794100005878,3590,0.038818,-0.036377,1.053223,1.381679,3.167939,-1.259542,1.054565,3.678494,379,728,349,379,1,99.602,1,damping
1780604022.6584644,3.4526149000012083,3621,0.045166,-0.014893,1.050781,1.580153,2.969466,-1.076336,1.051857,3.531729,382,733,351,382,0,99.602,0,damping
1780604022.6899714,3.4841217000066536,3653,0.045166,-0.006104,1.064209,1.099237,2.80916,-0.984733,1.065184,3.173232,384,737,353,384,0,88.968,1,damping
1780604022.7195091,3.513659500007634,3684,0.044678,-0.026855,1.049316,1.312977,3.59542,-0.877863,1.05061,3.927034,386,744,358,386,1,88.968,14,damping
1780604022.751238,3.545388400001684,3714,0.037842,-0.012207,1.057617,1.664122,2.908397,-1.091603,1.058364,3.524156,391,751,360,391,0,88.968,0,damping
1780604022.7819288,3.5760792000073707,3746,0.041504,-0.008057,1.062744,1.557252,2.618321,-1.030534,1.063585,3.215997,393,755,362,393,0,88.968,0,damping
1780604022.813286,3.607436400008737,3777,0.038086,-0.036865,1.047852,2.0,3.061069,-1.183206,1.049191,3.843191,395,760,365,395,1,88.968,13,damping
1780604022.844799,3.638949300002423,3808,0.037842,-0.011475,1.055664,1.496183,3.183206,-1.129771,1.056404,3.694286,401,769,368,401,0,88.968,1,damping
1780604022.8758144,3.6699649000074714,3839,0.043701,-0.039062,1.055908,1.664122,3.19084,-0.656489,1.057534,3.658106,403,773,370,403,0,88.968,0,damping
1780604022.9080558,3.7022062000032747,3871,0.040771,-0.035156,1.059082,1.755725,3.061069,-1.076336,1.060449,3.689338,405,785,380,405,1,88.968,0,damping
1780604022.9392762,3.7334266000107164,3902,0.043457,-0.020264,1.060791,1.40458,3.061069,-1.48855,1.061874,3.682223,410,792,382,410,0,88.968,0,damping
1780604022.9695868,3.763737300003413,3933,0.040283,-0.027588,1.061768,1.992366,3.40458,-0.572519,1.06289,3.986034,412,796,384,412,0,100.0,1,damping
1780604023.000233,3.7943833000026643,3965,0.038818,-0.033691,1.050781,1.343511,3.221374,-1.007634,1.052038,3.63285,414,805,391,414,1,100.0,1,damping
1780604023.0313842,3.825534500007052,3995,0.043945,-0.008789,1.053467,1.343511,2.503817,-1.076336,1.05442,3.038523,419,812,393,419,0,100.0,0,damping
1780604023.0626376,3.856788000004599,4026,0.046875,-0.041016,1.053467,1.572519,3.358779,-1.114504,1.055306,3.87251,421,816,395,421,0,100.0,0,damping
1780604023.0939837,3.888133900007233,4057,0.038086,-0.018799,1.052246,1.725191,3.061069,-0.931298,1.053103,3.635071,424,823,399,424,1,100.0,1,damping
1780604023.1249993,3.9191496999992523,4088,0.036133,-0.009521,1.05542,1.778626,2.770992,-1.022901,1.056081,3.447932,429,830,401,429,0,100.0,0,damping
1780604023.155821,3.9499714999983553,4119,0.044678,-0.034668,1.05542,1.519084,3.175573,-0.847328,1.056934,3.620752,430,832,402,430,0,100.0,6,damping
1780604023.187603,3.9817533000023104,4151,0.044678,-0.011963,1.052734,1.122137,3.068702,-0.847328,1.05375,3.375513,433,845,412,433,1,100.0,1,damping
1780604023.2174432,4.011593500006711,4182,0.033447,-0.01416,1.056641,1.29771,2.977099,-1.229008,1.057265,3.47241,438,852,414,438,0,100.0,0,damping
1780604023.2485716,4.042721899997559,4212,0.046631,-0.007324,1.053467,1.450382,3.351145,-1.08397,1.054524,3.809038,441,858,417,441,0,103.943,0,damping
1780604023.2812233,4.075373700005002,4244,0.050293,-0.029785,1.049316,2.030534,2.870229,-0.755725,1.050943,3.596165,446,871,425,446,1,103.943,0,damping
1780604023.3131564,4.107306799996877,4276,0.05127,-0.016113,1.06543,1.870229,2.900763,-1.175572,1.066784,3.646115,449,876,427,449,0,103.943,1,damping
1780604023.3444452,4.13859550000052,4308,0.045166,-0.010986,1.05249,1.21374,3.320611,-0.908397,1.053516,3.650316,451,880,429,451,0,103.943,1,damping
1780604023.3762696,4.17041990000871,4339,0.042725,-0.018311,1.056641,1.40458,3.290076,-0.923664,1.057663,3.694672,454,887,433,454,1,103.943,1,damping
1780604023.4076886,4.2018390000012005,4370,0.041748,-0.013672,1.05249,1.381679,3.236641,-0.916031,1.053407,3.636481,459,894,435,459,0,103.943,0,damping
1780604023.4389398,4.233090100009576,4402,0.031982,-0.035156,1.059326,1.030534,2.358779,-1.022901,1.060392,2.769867,461,898,437,461,0,103.943,0,damping
1780604023.4695492,4.263699600007385,4433,0.041992,-0.015137,1.052002,1.274809,3.076336,-1.19084,1.052948,3.536535,463,903,440,463,1,103.943,14,damping
1780604023.511521,4.305671499998425,4464,0.042236,-0.02417,1.057617,1.435114,3.076336,-0.70229,1.058736,3.466498,469,910,441,469,0,111.111,0,damping
1780604023.5334818,4.327632300002733,4496,0.034424,-0.030029,1.055664,1.763359,2.778626,-0.984733,1.056652,3.435098,472,916,444,472,0,111.111,1,damping
1780604023.5637105,4.3578607000090415,4527,0.040039,-0.018066,1.053711,2.183206,3.381679,-1.267176,1.054626,4.219938,474,921,447,474,1,111.111,14,damping
1780604023.5945842,4.3887344999966444,4558,0.042725,-0.009033,1.056641,2.244275,3.167939,-0.89313,1.057543,3.983753,479,928,449,479,0,111.111,0,damping
1780604023.6255507,4.419701100006932,4589,0.040771,-0.026367,1.05957,1.633588,3.21374,-0.534351,1.060682,3.644484,481,932,451,481,0,111.111,0,damping
1780604023.656732,4.450882400007686,4620,0.044189,-0.015869,1.053223,1.503817,3.0,-1.51145,1.054269,3.680482,484,939,455,484,1,111.111,1,damping
1780604023.6884325,4.48258270000224,4651,0.046143,-0.020996,1.052002,1.221374,3.091603,-1.137405,1.053223,3.513325,489,946,457,489,0,111.111,1,damping
1780604023.718581,4.512731199996779,4682,0.04834,-0.011475,1.057373,1.664122,2.580153,-0.70229,1.05854,3.149556,491,950,459,491,0,111.111,0,damping
1780604023.7497308,4.5438811000058195,4713,0.046387,-0.019287,1.052002,1.465649,3.175573,-1.175572,1.053201,3.689764,492,953,461,492,1,111.111,17,damping
1780604023.7809246,4.5750748999998905,4744,0.035645,-0.018799,1.05835,1.641221,3.335878,-1.152672,1.059116,3.892344,497,960,463,497,0,100.0,0,damping
1780604023.8113112,4.605461600003764,4775,0.061035,-0.019531,1.064941,2.053435,2.877863,-0.80916,1.066868,3.626766,500,966,466,500,0,100.0,1,damping
1780604023.8434932,4.637643599999137,4807,0.035156,-0.028564,1.053467,1.954198,3.259542,-0.59542,1.05444,3.846821,502,978,476,502,1,100.0,0,damping
1780604023.8746657,4.6688161000056425,4838,0.04248,-0.012207,1.052978,1.473282,3.198473,-0.938931,1.053906,3.644501,507,985,478,507,0,100.0,0,damping
1780604023.9041603,4.698310500010848,4869,0.040771,-0.008301,1.055176,1.465649,3.29771,-0.740458,1.055996,3.683924,509,989,480,509,0,100.0,0,damping
1780604023.936791,4.730941200003144,4900,0.048584,-0.030273,1.053711,1.725191,2.832061,-1.007634,1.055265,3.465859,515,1004,489,515,1,100.0,0,damping
1780604023.9686458,4.762796199996956,4931,0.047119,-0.015625,1.057373,1.572519,3.083969,-0.877863,1.058538,3.57132,520,1011,491,520,0,100.0,1,damping
1780604023.999426,4.793576299998676,4963,0.04248,-0.006348,1.057129,1.007634,3.465649,-0.679389,1.058001,3.672549,522,1015,493,522,0,100.0,0,damping
1780604024.0306911,4.82484139999724,4994,0.046387,-0.02002,1.055664,1.709924,3.465649,-0.923664,1.056872,3.973376,524,1020,496,524,1,108.0,14,damping
1780604024.0620577,4.856208199998946,5025,0.045898,-0.022217,1.05542,1.847328,3.091603,-0.977099,1.056651,3.731669,529,1027,498,529,0,108.0,0,damping
1780604024.094333,4.888483200003975,5057,0.039795,-0.017822,1.056152,1.40458,2.572519,-1.022901,1.057052,3.104356,531,1031,500,531,0,108.0,1,damping
1780604024.1245375,4.918687900004443,5088,0.044922,-0.024414,1.05542,1.458015,3.099237,-0.862595,1.056658,3.532018,533,1036,503,533,1,108.0,14,damping
1780604024.1553676,4.949517900007777,5119,0.039795,-0.015381,1.051758,1.480916,3.59542,-1.076336,1.052623,4.034682,538,1043,505,538,0,108.0,0,damping
1780604024.1909885,4.985138900010497,5149,0.05127,-0.032471,1.062744,1.610687,3.312977,-1.08397,1.064475,3.839938,540,1047,507,540,0,108.0,0,damping
1780604024.2187264,5.012876799999503,5181,0.039551,-0.028564,1.057129,1.717557,2.572519,-0.694656,1.058254,3.170238,545,1063,518,545,1,108.0,0,damping
1780604024.2491794,5.043329699998139,5212,0.038574,-0.012939,1.059082,1.664122,3.114504,-1.022901,1.059863,3.676379,549,1068,519,549,0,108.0,6,damping
1780604024.280037,5.074187200007145,5243,0.054688,-0.031738,1.059326,1.435114,3.320611,-0.946565,1.061212,3.739251,551,1072,521,551,0,108.0,0,damping
1780604024.3114269,5.1055772000108846,5274,0.045654,-0.016357,1.054443,1.48855,2.992366,-0.961832,1.055558,3.47781,553,1077,524,553,1,103.571,14,damping
1780604024.341714,5.135864199997741,5305,0.038086,-0.005859,1.047852,1.641221,3.160305,-0.954198,1.04856,3.686683,558,1085,527,558,1,103.571,3,damping
1780604024.3727944,5.166944700002205,5336,0.040283,-0.037354,1.057861,1.312977,3.679389,-0.51145,1.059287,3.939974,561,1090,529,561,0,103.571,1,damping
1780604024.405061,5.199211400002241,5368,0.054932,-0.021484,1.05249,1.503817,2.923664,-0.564886,1.054142,3.335922,563,1103,540,563,1,103.571,0,damping
1780604024.4364457,5.230596100009279,5399,0.036377,-0.019287,1.048096,1.389313,2.748092,-0.954198,1.048904,3.22377,568,1110,542,568,0,103.571,0,damping
1780604024.4673953,5.261545600005775,5430,0.050781,-0.023926,1.058106,2.030534,2.946565,-0.89313,1.059593,3.688224,570,1114,544,570,0,103.571,0,damping
1780604024.499546,5.293696499997168,5462,0.040527,-0.033936,1.054199,1.778626,3.320611,-0.977099,1.055524,3.891618,572,1128,556,572,1,103.571,0,damping
1780604024.5304234,5.32457379999687,5493,0.047119,-0.015869,1.055908,1.755725,3.282443,-0.89313,1.057078,3.828144,577,1135,558,577,0,103.571,1,damping
1780604024.5621197,5.35627000000386,5525,0.043945,-0.009521,1.056885,1.167939,3.473282,-1.21374,1.057841,3.860173,578,1137,559,578,0,99.602,6,damping
1780604024.6028974,5.397047799997381,5556,0.042725,-0.018799,1.056885,1.900763,3.312977,-1.450382,1.057915,4.085624,580,1142,562,580,1,99.602,14,damping
1780604024.63037,5.424520300002769,5593,0.04834,-0.0271,1.05957,1.427481,3.435115,-0.854962,1.061019,3.816893,586,1151,565,586,0,99.602,0,damping
1780604024.6615283,5.4556786000030115,5625,0.042236,-0.013428,1.047119,1.618321,2.931298,-0.587786,1.048057,3.399553,588,1163,575,588,1,99.602,0,damping
1780604024.6934016,5.487552000005962,5656,0.039795,-0.026123,1.053711,1.480916,3.129771,-1.061069,1.054786,3.621387,593,1170,577,593,0,99.602,0,damping
1780604024.725272,5.51942229999986,5688,0.044678,-0.033447,1.05542,1.885496,3.076336,-0.954198,1.056895,3.732216,595,1174,579,595,0,99.602,1,damping
1780604024.7569413,5.551091600005748,5720,0.043213,-0.032471,1.054932,1.59542,3.40458,-1.129771,1.056316,3.925928,598,1188,590,598,1,99.602,0,damping
1780604024.7873406,5.5814909000037005,5750,0.04126,-0.007324,1.052978,1.374046,2.763359,-1.007634,1.053812,3.246457,603,1195,592,603,0,99.602,1,damping
1780604024.8181438,5.612294300008216,5781,0.047607,-0.040771,1.054688,2.030534,2.709924,-0.931298,1.056548,3.51199,605,1199,594,605,0,105.469,0,damping
1780604024.850289,5.644439399999101,5813,0.046631,-0.034912,1.049072,1.816794,3.137405,-1.038168,1.050688,3.771186,607,1204,597,607,1,105.469,13,damping
1780604024.8812084,5.675358699998469,5844,0.042725,-0.018555,1.05957,1.656489,2.770992,-0.877863,1.060594,3.345593,613,1211,598,613,0,105.469,1,damping
1780604024.91254,5.706690300008631,5876,0.04248,-0.018799,1.052978,1.687023,2.847328,-0.923664,1.054003,3.436056,615,1215,600,615,0,105.469,1,damping
1780604024.9438503,5.738000600002124,5907,0.042236,-0.021484,1.052002,1.832061,3.244275,-1.160305,1.053069,3.902317,617,1220,603,617,1,105.469,14,damping
1780604024.976317,5.7704673999978695,5938,0.04834,-0.016113,1.060547,1.618321,3.030534,-1.183206,1.06177,3.633604,622,1227,605,622,0,105.469,0,damping
1780604025.0060947,5.800245000005816,5970,0.053467,-0.016602,1.059326,1.0,3.0,-0.89313,1.060804,3.285982,624,1231,607,624,0,105.469,0,damping
1780604025.0373673,5.831517800004804,6000,0.042725,-0.026611,1.061279,1.610687,2.778626,-1.137405,1.062472,3.407164,626,1236,610,626,1,105.469,14,damping
1780604025.0690007,5.8631509999977425,6031,0.047119,-0.013184,1.04834,1.564886,2.763359,-1.343511,1.049481,3.448194,632,1243,611,632,0,108.0,1,damping
1780604025.1001184,5.8942688000097405,6063,0.045166,-0.007324,1.056152,1.656489,2.923664,-0.78626,1.057143,3.451082,634,1247,613,634,0,108.0,1,damping
1780604025.1304607,5.924611000009463,6093,0.036377,-0.024414,1.041992,1.458015,2.847328,-0.954198,1.042913,3.3382,636,1252,616,636,1,108.0,14,damping
1780604025.1621475,5.956297900003847,6124,0.043945,-0.013428,1.055908,1.412214,3.122137,-1.068702,1.056908,3.589459,642,1261,619,642,0,108.0,0,damping
1780604025.1924422,5.986592600005679,6156,0.043945,0.000244,1.066162,1.977099,2.977099,-0.770992,1.067067,3.656018,644,1265,621,644,0,108.0,0,damping
1780604025.2240188,6.018169200004195,6187,0.049561,-0.033936,1.057373,1.946565,2.671756,-1.152672,1.059078,3.500864,645,1268,623,645,1,108.0,18,damping
1780604025.2561812,6.050331600010395,6218,0.054932,-0.025146,1.055176,1.480916,3.549618,-1.183206,1.056904,4.024038,650,1275,625,650,0,108.0,1,damping
1780604025.2883787,6.082529000006616,6250,0.041016,-0.01123,1.055664,0.778626,3.343511,-1.022901,1.05652,3.58213,652,1279,627,652,0,108.0,1,damping
1780604025.3188543,6.113004800005001,6281,0.032715,-0.020996,1.046631,1.610687,2.916031,-1.137405,1.047352,3.520119,654,1286,632,654,1,88.0,14,damping
1780604025.3503966,6.1445469000027515,6313,0.048584,-0.020508,1.055664,1.610687,2.740458,-1.022901,1.05698,3.339274,666,1300,634,666,0,88.0,0,damping
1780604025.3811913,6.17534169999999,6344,0.035156,-0.031006,1.048828,1.725191,2.534351,-0.908397,1.049875,3.197562,668,1304,636,668,0,88.0,0,damping
1780604025.4131515,6.207301800008281,6375,0.045166,-0.015381,1.054443,2.015267,3.343511,-1.305344,1.055522,4.116344,670,1309,639,670,1,88.0,13,damping
1780604025.4577394,6.251889799998025,6406,0.045654,-0.014404,1.05542,1.59542,3.083969,-0.70229,1.056505,3.542519,676,1318,642,676,0,88.0,0,damping
1780604025.4742255,6.268375900006504,6437,0.039795,-0.02124,1.060547,1.160305,2.916031,-1.312977,1.061506,3.401978,678,1322,644,678,0,88.0,1,damping
1780604025.5057907,6.299941000004765,6468,0.043457,-0.022217,1.056152,2.10687,3.061069,-1.099237,1.05728,3.875224,679,1325,646,679,1,88.0,17,damping
1780604025.5367386,6.330889100005152,6499,0.043213,-0.014893,1.051758,1.847328,3.137405,-1.358779,1.05275,3.886156,684,1332,648,684,0,88.0,0,damping
1780604025.5677133,6.361863700003596,6530,0.037354,-0.011475,1.060303,1.183206,2.717557,-0.923664,1.061022,3.104553,686,1336,650,686,0,88.0,0,damping
1780604025.5982363,6.392386599996826,6561,0.043701,-0.037109,1.047607,1.007634,2.854962,-1.366412,1.049175,3.321628,688,1343,655,688,1,121.429,14,damping
1780604025.6303964,6.4245467000000644,6593,0.044922,-0.028564,1.055176,1.290076,3.152672,-1.10687,1.056518,3.581731,692,1348,656,692,0,121.429,6,damping
1780604025.6626282,6.4567785000108415,6625,0.037109,-0.051025,1.053467,2.244275,2.954198,-1.08397,1.055354,3.865106,694,1352,658,694,0,121.429,1,damping
1780604025.6930296,6.487180099997204,6656,0.052246,-0.015625,1.051514,2.396947,3.167939,-1.137405,1.052927,4.132176,696,1357,661,696,1,121.429,14,damping
1780604025.7249262,6.519076700002188,6687,0.043701,-0.028809,1.053223,1.664122,3.061069,-0.450382,1.054522,3.513159,702,1366,664,702,0,121.429,1,damping
1780604025.7564065,6.550556900008814,6718,0.050781,-0.022705,1.061523,1.419847,3.19084,-0.732824,1.06298,3.568537,704,1370,666,704,0,121.429,0,damping
1780604025.7868001,6.580950600007782,6749,0.050049,-0.017578,1.055908,1.648855,3.129771,-1.129771,1.05724,3.713566,706,1375,669,706,1,121.429,14,damping
1780604025.8191502,6.613300600001821,6780,0.045166,-0.029541,1.051514,1.961832,3.267176,-1.038168,1.052898,3.949812,711,1382,671,711,0,121.429,0,damping
1780604025.8486269,6.642777200002456,6811,0.036377,-0.017334,1.061768,1.923664,2.839695,-0.862595,1.062532,3.536724,713,1386,673,713,0,100.0,0,damping
1780604025.8799016,6.674051900001359,6842,0.052246,-0.021729,1.054443,2.21374,3.10687,-1.412214,1.05596,4.067879,715,1393,678,715,1,100.0,14,damping
1780604025.9107592,6.704909499996575,6873,0.04541,-0.025146,1.052734,1.610687,3.122137,-0.977099,1.054013,3.646475,720,1400,680,720,0,100.0,1,damping
1780604025.9422128,6.736363200005144,6905,0.04541,-0.044189,1.052002,1.740458,3.022901,-0.656489,1.053908,3.54938,722,1404,682,722,0,100.0,1,damping
1780604025.973669,6.767819500004407,6936,0.04126,-0.010498,1.062256,1.908397,3.114504,-0.854962,1.063109,3.75141,724,1409,685,724,1,100.0,14,damping
1780604026.004709,6.798859400005313,6967,0.033936,-0.027588,1.053223,1.656489,3.442748,-0.48855,1.05413,3.851642,730,1418,688,730,0,100.0,0,damping
1780604026.0355794,6.829729800010682,6998,0.048096,-0.041504,1.053223,1.91603,3.198473,-0.694656,1.055137,3.792618,732,1422,690,732,0,100.0,0,damping
1780604026.0665803,6.860730600004899,7029,0.050537,-0.013428,1.052978,2.21374,2.656489,-1.259542,1.054276,3.680221,734,1427,693,734,1,100.0,14,damping
1780604026.0972824,6.8914328000100795,7060,0.030762,-0.019287,1.047363,1.679389,2.725191,-0.862595,1.047992,3.31528,740,1434,694,740,0,100.0,1,damping
1780604026.1291022,6.923252599997795,7092,0.036133,-0.041992,1.051025,2.099237,3.442748,-0.763359,1.052484,4.103904,742,1438,696,742,0,103.203,1,damping
1780604026.160958,6.95510849999846,7123,0.045898,-0.02002,1.050049,1.748092,3.129771,-1.175572,1.051242,3.772699,746,1445,699,746,1,103.203,14,damping
1780604026.1932778,6.987428300009924,7155,0.049072,-0.011963,1.052246,1.114504,3.374046,-0.709924,1.053458,3.623575,751,1452,701,751,0,103.203,1,damping
1780604026.2242594,7.018409800002701,7186,0.03833,-0.027588,1.053711,1.648855,2.992366,-0.870229,1.054769,3.52566,752,1454,702,752,0,103.203,6,damping
1780604026.254713,7.048863300005905,7217,0.049805,-0.019287,1.05957,2.038168,3.335878,-1.206107,1.060916,4.091076,755,1459,704,755,1,103.203,13,damping
1780604026.2845576,7.078707900000154,7248,0.040039,-0.00708,1.060303,1.900763,3.21374,-0.877863,1.061082,3.83558,761,1468,707,761,0,103.203,0,damping
1780604026.3170016,7.111151899996912,7279,0.045898,-0.03833,1.054443,2.374046,2.839695,-0.633588,1.056138,3.755182,763,1472,709,763,0,103.203,1,damping
1780604026.3478463,7.141996600010316,7310,0.056152,-0.018799,1.05957,2.961832,3.114504,-1.137405,1.061224,4.445928,765,1477,712,765,1,103.203,14,damping
1780604026.3778903,7.172040700010257,7341,0.040527,-0.008057,1.054199,2.206107,3.267176,-1.038168,1.055009,4.076658,770,1484,714,770,0,103.203,1,damping
1780604026.4096353,7.203785700010485,7372,0.037842,-0.034912,1.054932,1.496183,3.160305,-0.679389,1.056187,3.561974,772,1488,716,772,0,107.143,0,damping
1780604026.4475396,7.241690000009839,7404,0.045898,-0.012451,1.058838,1.351145,3.358779,-1.137405,1.059905,3.794822,775,1495,720,775,1,107.143,13,damping
1780604026.4729788,7.267129100000602,7435,0.054443,-0.020752,1.058838,0.862595,3.557252,-0.885496,1.06044,3.765928,780,1502,722,780,0,107.143,0,damping
1780604026.5038013,7.297951800006558,7466,0.037354,-0.024414,1.060059,1.870229,3.160305,-1.160305,1.060997,3.851181,782,1506,724,782,0,107.143,1,damping
1780604026.5345035,7.3286538000102155,7497,0.037598,-0.016846,1.056396,2.648855,3.412214,-1.099237,1.0572,4.457348,785,1511,726,785,1,107.143,14,damping
1780604026.5666385,7.3607887999969535,7529,0.04541,-0.01123,1.056641,1.328244,3.244275,-0.984733,1.057676,3.641326,790,1518,728,790,0,107.143,1,damping
1780604026.5970013,7.391151700008777,7560,0.051514,-0.039795,1.057861,1.740458,2.900763,-1.183206,1.059862,3.583797,792,1522,730,792,0,107.143,0,damping
1780604026.6301754,7.424325800006045,7591,0.051025,-0.042236,1.056396,1.290076,3.473282,-0.740458,1.058471,3.778394,795,1527,732,795,1,107.143,14,damping
1780604026.660215,7.454365300000063,7623,0.045898,-0.041992,1.056396,0.48855,3.236641,-0.89313,1.058227,3.392965,800,1534,734,800,0,111.554,0,damping
1780604026.6919167,7.486067100006039,7654,0.036377,-0.02002,1.063477,1.305344,3.343511,-0.946565,1.064287,3.712004,802,1538,736,802,0,111.554,0,damping
1780604026.7234762,7.517626600005315,7686,0.046143,-0.015625,1.047607,1.732824,3.244275,-0.748092,1.048739,3.75335,806,1544,738,806,0,111.554,6,damping
1780604026.7555952,7.5497455000004265,7718,0.040039,-0.020508,1.057129,0.206107,3.549618,-0.633588,1.058086,3.611607,810,1550,740,810,0,111.554,0,damping
1780604026.7866228,7.580773200010299,7749,0.039307,-0.039062,1.049072,0.847328,2.832061,-0.977099,1.050535,3.1134,812,1554,742,812,0,111.554,1,damping
1780604026.8185477,7.612698099997942,7780,0.041748,-0.02417,1.061768,0.916031,2.824427,-0.770992,1.062863,3.067724,817,1562,745,817,0,111.554,7,damping
1780604026.8494523,7.643602700001793,7812,0.047607,-0.008301,1.065918,2.435115,2.931298,-1.068702,1.067013,3.95783,821,1568,747,821,0,111.554,1,damping
1780604026.881356,7.675506400002632,7843,0.049561,-0.041504,1.05249,3.603053,2.89313,-1.038168,1.054474,4.73603,823,1572,749,823,0,111.554,0,damping
1780604026.912233,7.70638340000005,7874,0.036621,-0.022949,1.046387,2.282443,3.076336,-0.778626,1.047279,3.908919,828,1578,750,828,0,111.554,6,damping
1780604026.94446,7.738610200001858,7906,0.042236,-0.022949,1.059326,1.007634,3.229008,-1.129771,1.060416,3.566258,832,1584,752,832,0,111.554,0,damping
1780604026.9748857,7.769035999997868,7937,0.031494,-0.015137,1.052002,0.587786,3.175573,-0.839695,1.052582,3.336891,834,1589,755,834,1,111.554,14,damping
1780604027.0068235,7.800973899997189,7968,0.040771,-0.033936,1.05957,1.351145,3.045802,-0.793893,1.060897,3.425313,838,1594,756,838,0,111.554,7,damping
1780604027.0380673,7.8322177000081865,8000,0.044678,-0.015625,1.061279,1.290076,2.908397,-0.954198,1.062334,3.321681,842,1600,758,842,0,111.554,1,damping
1780604027.0688615,7.863011800000095,8031,0.032959,-0.020264,1.03833,1.099237,2.572519,-0.740458,1.039051,2.893865,844,1605,761,844,1,111.554,14,damping
1780604027.0994523,7.893602700001793,8062,0.038818,-0.024658,1.055664,1.748092,2.832061,-1.358779,1.056665,3.594812,849,1612,763,849,0,111.554,6,damping
1780604027.13044,7.924590299997362,8093,0.041504,-0.015625,1.055908,2.526718,3.19084,-0.740458,1.056839,4.136912,853,1618,765,853,0,111.554,0,damping
1780604027.1628423,7.9569926999975,8125,0.040283,-0.020264,1.038574,2.19084,2.519084,-0.664122,1.039553,3.403912,855,1630,775,855,1,107.57,1,damping
1780604027.1933315,7.987481900010607,8156,0.039062,-0.023682,1.050293,1.78626,2.572519,-1.183206,1.051286,3.347918,860,1637,777,860,0,107.57,0,damping
1780604027.224909,8.019059400001424,8188,0.032959,-0.007813,1.060791,1.335878,2.961832,-0.854962,1.061332,3.359759,862,1641,779,862,0,107.57,0,damping
1780604027.2569876,8.051137900009053,8219,0.045166,-0.020996,1.053711,1.763359,2.946565,-1.091603,1.054887,3.603232,864,1648,784,864,1,107.57,14,damping
1780604027.2884638,8.082614300001296,8250,0.043945,-0.014648,1.050049,1.519084,2.580153,-1.122137,1.05107,3.197498,870,1655,785,870,0,107.57,1,damping
1780604027.3190947,8.113245000000461,8282,0.040771,-0.009766,1.057373,1.580153,2.992366,-0.938931,1.058204,3.511799,872,1659,787,872,0,107.57,0,damping
1780604027.3504038,8.144554099999368,8313,0.046875,-0.020996,1.053223,1.839695,3.259542,-1.068702,1.054474,3.892456,874,1664,790,874,1,107.57,13,damping
1780604027.3818152,8.175965500005987,8344,0.040283,-0.023438,1.051758,1.931298,3.328244,-0.992366,1.05279,3.973904,881,1673,792,881,0,107.57,0,damping
1780604027.4135697,8.207720000005793,8376,0.043701,-0.041504,1.04834,1.862595,3.083969,-1.007634,1.050071,3.74105,883,1677,794,883,0,111.554,1,damping
1780604027.4448652,8.239015500003006,8407,0.05542,-0.01709,1.057373,1.801527,3.152672,-1.183206,1.058962,3.819007,885,1682,797,885,1,111.554,14,damping
1780604027.4765701,8.270720600005006,8439,0.05127,-0.003906,1.057617,0.580153,3.473282,-0.862595,1.058866,3.625512,890,1689,799,890,0,111.554,1,damping
1780604027.5074594,8.301609700007248,8470,0.051514,-0.044922,1.05542,1.610687,3.358779,-0.541985,1.057631,3.764234,892,1693,801,892,0,111.554,1,damping
1780604027.5538845,8.348034800001187,8501,0.04541,-0.038086,1.05957,1.610687,3.320611,-0.793893,1.061227,3.775054,895,1698,803,895,1,111.554,14,damping
1780604027.5700831,8.364233400003286,8533,0.048584,-0.044922,1.05835,2.114504,2.717557,-1.007634,1.060416,3.587697,900,1705,805,900,0,111.554,1,damping
1780604027.601031,8.39518130000215,8564,0.031982,-0.015381,1.055176,2.137405,3.564885,-1.236641,1.055772,4.33661,902,1709,807,902,0,111.554,0,damping
1780604027.632458,8.426608299996587,8595,0.045898,-0.031494,1.05835,2.145038,3.534351,-0.725191,1.059812,4.197467,905,1714,809,905,1,111.554,14,damping
1780604027.66272,8.456870200010599,8626,0.052734,-0.022217,1.054199,1.267176,2.938931,-0.89313,1.055751,3.32276,910,1721,811,910,0,108.0,1,damping
1780604027.6950471,8.48919740000565,8657,0.045898,-0.008545,1.054932,1.519084,3.419847,-0.900763,1.055964,3.848941,912,1725,813,912,0,108.0,0,damping
1780604027.726221,8.520371400009026,8688,0.050293,-0.029541,1.059082,1.29771,3.648855,-0.305344,1.060687,3.884769,915,1730,815,915,1,108.0,14,damping
1780604027.756165,8.550315400003456,8719,0.048096,-0.037842,1.055664,0.51145,3.564885,-0.748092,1.057436,3.678264,920,1737,817,920,0,108.0,1,damping
1780604027.7879198,8.582070200005546,8750,0.050537,-0.022949,1.058106,1.824428,3.129771,-1.145038,1.05956,3.799357,922,1741,819,922,0,108.0,0,damping
1780604027.819343,8.613493400000152,8781,0.061279,-0.017822,1.055664,2.343511,3.099237,-0.877863,1.057591,3.98346,926,1748,822,926,1,108.0,3,damping
1780604027.8491373,8.643287600003532,8812,0.04126,-0.03833,1.059082,1.679389,3.458015,-0.839695,1.060578,3.934883,931,1755,824,931,0,108.0,1,damping
1780604027.8801699,8.67432020000706,8843,0.040039,-0.018311,1.064697,2.442748,3.160305,-0.916031,1.065607,4.098007,933,1759,826,933,0,108.0,0,damping
1780604027.9109795,8.705129900001339,8874,0.049072,-0.040039,1.054199,1.610687,3.465649,-0.282443,1.0561,3.832076,936,1764,828,936,1,108.0,14,damping
1780604027.9431527,8.737302900000941,8905,0.045898,-0.02002,1.059326,0.51145,3.030534,-0.618321,1.060509,3.13497,941,1771,830,941,0,111.111,1,damping
1780604027.973925,8.76807550000376,8936,0.04248,-0.014648,1.060059,1.335878,3.244275,-0.908397,1.061011,3.624234,944,1777,833,944,0,111.111,0,damping
1780604028.0058382,8.799988500002655,8968,0.04834,-0.014648,1.056396,2.137405,3.442748,-0.625954,1.057603,4.100345,948,1783,835,948,0,111.111,6,damping
1780604028.0369003,8.83105059999798,8999,0.033691,-0.04126,1.051514,1.78626,2.854962,-0.763359,1.052862,3.45315,952,1789,837,952,0,111.111,0,damping
1780604028.0683873,8.862537699998938,9030,0.040527,-0.038574,1.056396,1.343511,3.267176,-1.183206,1.057877,3.725512,954,1793,839,954,0,111.111,0,damping
1780604028.0999537,8.894103900005575,9062,0.032959,-0.027344,1.051514,1.374046,2.885496,-0.725191,1.052385,3.277193,958,1801,843,958,0,111.111,7,damping
1780604028.1303468,8.924497200001497,9093,0.046387,-0.012451,1.05957,1.335878,2.801527,-0.541985,1.060658,3.150694,962,1807,845,962,0,111.111,0,damping
1780604028.163025,8.957175200004713,9126,0.043213,-0.02124,1.053955,2.122137,2.923664,-0.396947,1.055054,3.634398,964,1819,855,964,1,111.111,0,damping
1780604028.195343,8.989493300003232,9157,0.038086,-0.026367,1.051025,1.816794,2.748092,-1.038168,1.052046,3.454062,966,1823,857,966,1,99.206,3,damping
1780604028.2268214,9.020971799996914,9188,0.043701,-0.018799,1.05542,1.198473,3.343511,-0.641221,1.056492,3.609234,969,1828,859,969,0,99.206,0,damping
1780604028.2576818,9.05183229999966,9220,0.040039,-0.028809,1.052002,1.229008,3.29771,-1.167939,1.053158,3.708023,971,1842,871,971,1,99.206,1,damping
1780604028.2900214,9.084171800001059,9251,0.04541,-0.01709,1.050781,1.503817,3.152672,-1.274809,1.051901,3.718325,977,1849,872,977,0,99.206,0,damping
1780604028.3202214,9.114371800009394,9283,0.043457,-0.026123,1.062744,2.412214,2.755725,-1.022901,1.063953,3.802515,979,1853,874,979,0,99.206,0,damping
1780604028.35147,9.145620399998734,9314,0.049561,-0.020752,1.055664,2.770992,2.70229,-1.473282,1.057031,4.141416,981,1858,877,981,1,99.206,14,damping
1780604028.3921032,9.186253499996383,9345,0.049316,-0.012939,1.052734,1.78626,3.229008,-1.076336,1.053968,3.843919,988,1867,879,988,0,99.206,0,damping
1780604028.4135084,9.207658800005447,9376,0.030029,-0.029053,1.057861,0.885496,2.78626,-1.206107,1.058686,3.1626,990,1871,881,990,0,99.206,0,damping
1780604028.4444308,9.238581099998555,9407,0.059326,-0.020508,1.049805,1.282443,3.312977,-1.328244,1.05168,3.792718,992,1876,884,992,1,104.0,14,damping
1780604028.4760904,9.270240800004103,9438,0.044678,-0.020264,1.051514,1.305344,3.381679,-0.694656,1.052658,3.69083,997,1883,886,997,0,104.0,0,damping
1780604028.5071237,9.301273999997647,9469,0.042725,-0.011475,1.055664,1.709924,2.694656,-1.091603,1.056591,3.372923,999,1887,888,999,0,104.0,0,damping
1780604028.5373597,9.331510000003618,9500,0.046387,-0.014648,1.055176,2.48855,3.175573,-1.274809,1.056296,4.231108,1001,1894,893,1001,1,104.0,14,damping
1780604028.5684335,9.36258380000072,9531,0.050293,-0.025391,1.051758,2.244275,3.473282,-1.312977,1.053266,4.338706,1005,1899,894,1005,0,104.0,6,damping
1780604028.5995545,9.393705000009504,9562,0.040039,-0.02124,1.056396,2.274809,2.916031,-0.961832,1.057368,3.821402,1007,1903,896,1007,0,104.0,0,damping
1780604028.6311212,9.425271600004635,9593,0.045898,-0.016846,1.063232,1.91603,3.030534,-1.412214,1.064356,3.853526,1009,1908,899,1009,1,104.0,14,damping
1780604028.6606767,9.454827000008663,9624,0.042236,-0.005615,1.05127,1.541985,2.923664,-1.198473,1.052133,3.515945,1015,1917,902,1015,0,104.0,0,damping
1780604028.6931963,9.487346599999,9655,0.038574,-0.036621,1.060791,1.167939,2.48855,-0.977099,1.062124,2.917479,1017,1921,904,1017,0,104.0,0,damping
1780604028.7236094,9.517759800000931,9686,0.05127,-0.015625,1.050781,1.587786,2.847328,-1.740458,1.052147,3.69561,1019,1926,907,1019,1,96.774,14,damping
1780604028.755834,9.549984500001301,9717,0.036621,-0.025146,1.053955,1.374046,3.580153,-0.854962,1.054891,3.928926,1024,1933,909,1024,0,96.774,1,damping
1780604028.7857335,9.57988390000537,9748,0.04126,-0.017334,1.054199,1.717557,2.938931,-0.717557,1.055149,3.478823,1026,1937,911,1026,0,96.774,0,damping
1780604028.8176687,9.611818999997922,9779,0.048096,-0.010498,1.061523,2.465649,3.229008,-1.59542,1.062664,4.364777,1028,1944,916,1028,1,96.774,14,damping
1780604028.8474882,9.641638500004774,9811,0.044678,0.0,1.060303,1.984733,3.076336,-0.763359,1.061244,3.739749,1033,1951,918,1033,0,96.774,0,damping
1780604028.878657,9.672807399998419,9841,0.032227,-0.021484,1.055176,2.076336,3.137405,-1.129771,1.055886,3.928214,1035,1955,920,1035,0,96.774,0,damping
1780604028.909171,9.70332139999664,9872,0.052979,-0.014893,1.051025,0.916031,2.908397,-1.366412,1.052465,3.341402,1037,1960,923,1037,1,96.774,14,damping
1780604028.941077,9.735227299999679,9903,0.044434,-0.025146,1.061768,0.946565,2.748092,-0.931298,1.062994,3.052099,1042,1967,925,1042,0,96.774,1,damping
1780604028.9713411,9.765491400001338,9934,0.04126,-0.027832,1.060059,1.038168,2.969466,-0.877863,1.061226,3.265909,1044,1971,927,1044,0,96.774,0,damping
1780604029.002264,9.796414299999014,9965,0.049805,-0.018066,1.059082,2.175573,2.961832,-1.312977,1.060406,3.902496,1046,1976,930,1046,1,96.774,14,damping
1780604029.033886,9.828036400009296,9996,0.030273,-0.023926,1.05127,2.641221,2.908397,-1.167939,1.051977,4.098646,1051,1983,932,1051,0,96.774,0,damping
1780604029.0634716,9.85762190000969,10027,0.046143,-0.015381,1.060547,2.160305,2.816794,-1.0,1.061662,3.687987,1053,1987,934,1053,0,96.774,0,damping
1780604029.0953674,9.889517700008582,10057,0.047852,-0.019043,1.057129,1.801527,3.465649,-1.053435,1.058383,4.045484,1056,1994,938,1056,1,96.774,2,damping
1780604029.1264997,9.920650100000785,10088,0.033447,-0.01123,1.051025,0.992366,3.038168,-1.091603,1.051617,3.377403,1061,2001,940,1061,0,96.774,1,damping
1780604029.1588378,9.952988100005314,10120,0.028564,-0.025635,1.050781,1.244275,2.496183,-0.923664,1.051482,2.938078,1063,2005,942,1063,0,96.774,0,damping
1780604029.1887205,9.982870799998636,10151,0.054199,-0.018066,1.059082,1.282443,2.938931,-1.183206,1.060622,3.417887,1065,2010,945,1065,1,96.774,14,damping
1780604029.2186825,10.01283279999916,10182,0.048096,-0.006592,1.056152,1.885496,3.137405,-0.89313,1.057267,3.767769,1070,2017,947,1070,0,96.774,0,damping
1780604029.2512302,10.045380499999737,10213,0.030762,-0.036621,1.055664,2.167939,2.503817,-1.122137,1.056747,3.496892,1073,2023,950,1073,0,96.774,0,damping
1780604029.2825274,10.076677700009895,10244,0.048584,-0.011719,1.060547,2.496183,3.526718,-1.114504,1.061724,4.46215,1075,2028,953,1075,1,103.943,14,damping
1780604029.3126523,10.106802700000117,10276,0.042236,-0.000488,1.05249,1.473282,3.633588,-1.0,1.053337,4.046421,1079,2033,954,1079,0,103.943,6,damping
1780604029.343532,10.137682400003541,10306,0.027588,-0.034424,1.057861,1.610687,2.70229,-0.801527,1.058781,3.246402,1081,2037,956,1081,0,103.943,0,damping
1780604029.3743327,10.16848310000205,10337,0.049561,-0.011963,1.057129,1.480916,2.778626,-1.221374,1.058358,3.377222,1084,2044,960,1084,1,103.943,2,damping
1780604029.4201643,10.214314700002433,10368,0.037109,-0.010742,1.053467,0.824427,2.793893,-1.053435,1.054175,3.097619,1089,2051,962,1089,0,103.943,1,damping
1780604029.4370544,10.231204700001399,10399,0.032715,-0.034424,1.057129,1.854962,2.267176,-1.030534,1.058195,3.105313,1091,2055,964,1091,0,103.943,0,damping
1780604029.4683285,10.262478899996495,10430,0.054932,-0.016602,1.060547,2.503817,2.885496,-0.923664,1.062098,3.930438,1093,2060,967,1093,1,103.943,14,damping
1780604029.5009115,10.29506190000393,10462,0.04541,-0.000488,1.051758,1.687023,2.549618,-1.206107,1.052738,3.286532,1098,2067,969,1098,0,103.943,1,damping
1780604029.5301924,10.324342799998703,10493,0.04126,-0.02417,1.054688,1.832061,2.839695,-1.114504,1.055771,3.558431,1102,2073,971,1102,0,103.943,0,damping
1780604029.5617235,10.355873900000006,10524,0.040283,-0.032715,1.057617,2.076336,3.160305,-1.022901,1.05889,3.917273,1105,2078,973,1105,1,107.143,14,damping
1780604029.591662,10.385812300010002,10555,0.043457,-0.001465,1.056396,1.038168,3.633588,-0.679389,1.057291,3.839573,1108,2083,975,1108,0,107.143,1,damping
1780604029.6237128,10.417863199996646,10586,0.036865,-0.034668,1.055908,1.442748,2.80916,-1.229008,1.05712,3.388711,1110,2087,977,1110,0,107.143,1,damping
1780604029.6542,10.448350400009076,10617,0.043213,-0.038574,1.047363,0.816794,3.381679,-1.038168,1.048964,3.630524,1114,2094,980,1114,1,107.143,1,damping
1780604029.6859643,10.480114700010745,10648,0.053711,-0.024902,1.059082,0.641221,2.870229,-0.847328,1.060736,3.060612,1119,2101,982,1119,0,107.143,1,damping
1780604029.71617,10.510320500005037,10679,0.03418,-0.028564,1.052246,1.816794,2.862595,-1.244275,1.053188,3.611566,1121,2105,984,1121,0,107.143,1,damping
1780604029.7479103,10.542060500010848,10710,0.033936,-0.026123,1.059082,2.114504,3.152672,-1.076336,1.059948,3.945753,1124,2110,986,1124,1,107.143,14,damping
1780604029.778182,10.572332499999902,10741,0.044922,-0.002197,1.056885,1.725191,2.656489,-1.290076,1.057841,3.420163,1129,2117,988,1129,0,107.143,0,damping
1780604029.8097627,10.603912999999011,10772,0.032959,-0.018555,1.057129,1.900763,2.961832,-1.038168,1.057805,3.669216,1131,2121,990,1131,0,107.143,1,damping
1780604029.8406358,10.634786100010388,10803,0.044678,-0.037109,1.053223,1.08397,3.503817,-1.091603,1.054823,3.826659,1134,2126,992,1134,1,103.943,14,damping
1780604029.8718805,10.666030799999135,10834,0.050293,-0.023926,1.054688,0.770992,3.076336,-0.854962,1.056157,3.284696,1139,2133,994,1139,0,103.943,0,damping
1780604029.9029922,10.697142600009101,10865,0.037109,-0.021729,1.055664,1.007634,3.030534,-1.08397,1.05654,3.372604,1141,2137,996,1141,0,103.943,0,damping
1780604029.9325597,10.726710100003402,10896,0.047119,-0.024414,1.052978,1.519084,3.40458,-1.08397,1.054315,3.882495,1144,2142,998,1144,1,103.943,13,damping
1780604029.9652984,10.759448800003156,10927,0.050537,-0.044434,1.055176,1.496183,2.78626,-1.053435,1.057319,3.333396,1150,2151,1001,1150,0,103.943,0,damping
1780604029.996201,10.790351500007091,10958,0.028564,-0.020508,1.051025,2.290076,3.465649,-0.885496,1.051613,4.247267,1152,2155,1003,1152,0,103.943,0,damping
1780604030.0269992,10.821149600000354,10989,0.040039,-0.032471,1.049316,2.709924,3.061069,-0.78626,1.050582,4.163176,1155,2160,1005,1155,1,103.943,15,damping
1780604030.057889,10.852039300007164,11020,0.051025,-0.027344,1.056152,1.587786,2.587786,-1.236641,1.057738,3.278259,1160,2167,1007,1160,0,103.943,0,damping
1780604030.0894246,10.883574999999837,11051,0.04126,-0.020996,1.053467,1.419847,3.038168,-0.89313,1.054483,3.470463,1163,2173,1010,1163,0,103.943,1,damping
1780604030.120603,10.914753400007612,11083,0.046387,-0.02124,1.055908,0.70229,3.412214,-0.687023,1.05714,3.550833,1167,2179,1012,1167,0,117.857,6,damping
1780604030.1526706,10.946821000005002,11114,0.04248,-0.019287,1.054932,1.21374,3.236641,-0.80916,1.055963,3.550176,1171,2185,1014,1171,0,117.857,1,damping
1780604030.1821964,10.976346700001159,11145,0.048584,-0.041504,1.060547,1.59542,3.221374,-1.099237,1.06247,3.759114,1173,2189,1016,1173,0,117.857,0,damping
1780604030.2192223,11.013372700006585,11176,0.046143,-0.0271,1.053223,2.236641,3.221374,-0.687023,1.054581,3.981434,1176,2195,1019,1176,0,117.857,7,damping
1780604030.2512248,11.045375200003036,11213,0.03418,-0.02124,1.05542,2.259542,2.885496,-1.526718,1.056187,3.9702,1180,2203,1023,1180,0,117.857,1,damping
1780604030.2824986,11.076649000009638,11244,0.04248,-0.033203,1.057129,1.885496,3.412214,-0.832061,1.058503,3.986304,1183,2208,1025,1183,1,117.857,14,damping
1780604030.3138168,11.107967100004316,11275,0.04248,-0.037842,1.056641,0.656489,3.473282,-0.862595,1.058171,3.638508,1186,2213,1027,1186,0,117.857,0,damping
1780604030.344355,11.138505399998394,11306,0.048096,-0.020264,1.059082,1.549618,3.229008,-1.198473,1.060367,3.776791,1188,2217,1029,1188,0,117.857,0,damping
1780604030.3749564,11.169106800007285,11337,0.053955,-0.016602,1.047607,1.526718,3.778626,-0.877863,1.049127,4.168876,1191,2222,1031,1191,1,94.488,14,damping
1780604030.4049535,11.199103799997829,11368,0.033936,-0.03833,1.052246,0.70229,3.679389,-1.0,1.053491,3.876998,1196,2229,1033,1196,0,94.488,1,damping
1780604030.435283,11.229433400003472,11398,0.051514,-0.02832,1.05957,2.10687,2.687023,-1.160305,1.0612,3.606287,1198,2233,1035,1198,0,94.488,1,damping
1780604030.4670932,11.261243500004639,11429,0.04248,-0.032959,1.053955,2.671756,2.961832,-1.099237,1.055326,4.137518,1201,2238,1037,1201,1,94.488,14,damping
1780604030.4982748,11.292425100007677,11460,0.040039,-0.040283,1.052246,0.946565,2.877863,-1.068702,1.053778,3.212508,1206,2245,1039,1206,0,94.488,0,damping
1780604030.5296714,11.323821800004225,11492,0.036377,-0.037354,1.053955,1.335878,3.381679,-0.885496,1.055244,3.742249,1209,2251,1042,1209,0,94.488,1,damping
1780604030.561523,11.35567330000049,11523,0.046875,-0.010986,1.04834,1.007634,3.450382,-0.580153,1.049445,3.641022,1213,2257,1044,1213,0,94.488,6,damping
1780604030.591821,11.385971199997584,11555,0.041748,-0.012939,1.05127,0.519084,3.519084,-0.877863,1.052178,3.663884,1217,2263,1046,1217,0,94.488,0,damping
1780604030.6232963,11.417446599996765,11586,0.05249,-0.046143,1.048828,1.465649,3.389313,-0.099237,1.051154,3.69397,1219,2267,1048,1219,0,94.488,0,damping
1780604030.6548011,11.448951500002295,11617,0.030762,-0.036621,1.05957,1.770992,3.099237,-0.503817,1.060649,3.604929,1224,2273,1049,1224,0,117.857,6,damping
1780604030.68697,11.481120399999782,11649,0.052979,-0.03833,1.068115,2.015267,3.099237,-1.045802,1.070115,3.84191,1229,2281,1052,1229,0,117.857,1,damping
1780604030.719509,11.513659300006111,11681,0.035889,-0.030029,1.057861,2.137405,2.961832,-0.763359,1.058896,3.731443,1231,2293,1062,1231,1,117.857,0,damping
1780604030.7501938,11.544344100009766,11712,0.042236,-0.012207,1.050781,1.816794,3.29771,-1.068702,1.051701,3.91379,1234,2298,1064,1234,0,117.857,0,damping
1780604030.779144,11.573294300003909,11743,0.033447,-0.018311,1.056152,1.70229,2.916031,-0.908397,1.05684,3.4966,1236,2302,1066,1236,0,117.857,0,damping
1780604030.811434,11.60558430000674,11773,0.03833,-0.015869,1.052246,1.167939,3.175573,-0.580153,1.053064,3.432917,1239,2309,1070,1239,1,117.857,2,damping
1780604030.8416677,11.635818000009749,11804,0.033203,-0.004639,1.052002,0.992366,2.664122,-0.923664,1.052536,2.98923,1244,2316,1072,1244,0,117.857,1,damping
1780604030.8730574,11.667207699996652,11835,0.042725,-0.029785,1.064209,1.396947,2.908397,-0.732824,1.065483,3.308665,1246,2320,1074,1246,0,117.857,0,damping
1780604030.9042737,11.698424000001978,11866,0.027832,-0.036865,1.049072,2.076336,3.068702,-1.022901,1.050089,3.843752,1248,2325,1077,1248,1,117.857,14,damping
1780604030.9352849,11.729435200002627,11897,0.052979,-0.018555,1.051025,2.076336,3.061069,-1.053435,1.052523,3.845912,1253,2332,1079,1253,0,103.571,1,damping
1780604030.9670413,11.761191500001587,11929,0.035645,-0.023193,1.054443,1.954198,2.847328,-1.122137,1.0553,3.631165,1255,2336,1081,1255,0,103.571,1,damping
1780604030.9978666,11.79201699999976,11960,0.052246,-0.014893,1.053223,1.946565,2.992366,-1.099237,1.054623,3.735196,1257,2343,1086,1257,1,103.571,14,damping
1780604031.0291693,11.823319700008142,11991,0.037109,-0.023193,1.056152,1.778626,3.748092,-0.961832,1.057059,4.258734,1262,2350,1088,1262,0,103.571,1,damping
1780604031.0613115,11.855461800005287,12023,0.034424,-0.032227,1.051514,1.564886,2.740458,-0.908397,1.05257,3.283925,1264,2354,1090,1264,0,103.571,0,damping
1780604031.0925667,11.88671720000275,12054,0.036865,-0.022705,1.062256,1.396947,3.274809,-1.496183,1.063138,3.861916,1266,2359,1093,1266,1,103.571,14,damping
1780604031.1223614,11.916511700008414,12085,0.046143,-0.01001,1.060547,1.641221,3.0,-0.732824,1.061597,3.497233,1272,2368,1096,1272,0,103.571,1,damping
1780604031.152304,11.946454300006735,12115,0.035889,-0.010742,1.052734,1.022901,3.274809,-0.938931,1.053401,3.557006,1274,2372,1098,1274,0,103.571,0,damping
1780604031.1837513,11.977901699996437,12146,0.045898,-0.02832,1.054932,2.259542,2.992366,-1.320611,1.056309,3.975399,1276,2377,1101,1276,1,103.571,14,damping
1780604031.2141194,12.008269700003439,12177,0.045166,-0.010498,1.045166,1.824428,3.076336,-1.221374,1.046194,3.779435,1281,2384,1103,1281,0,100.0,0,damping
1780604031.2450433,12.03919360000873,12208,0.045654,-0.003174,1.057373,1.580153,3.274809,-0.572519,1.058363,3.680901,1283,2388,1105,1283,0,100.0,1,damping
1780604031.277864,12.072014400007902,12239,0.036377,-0.0354,1.047852,1.40458,2.938931,-1.091603,1.04908,3.435369,1285,2396,1111,1285,1,100.0,0,damping
1780604031.3093681,12.10351850000734,12271,0.046387,-0.016357,1.053711,1.557252,2.877863,-0.877863,1.054858,3.387886,1290,2403,1113,1290,0,100.0,1,damping
1780604031.3404164,12.134566900000209,12303,0.042236,-0.026611,1.05835,1.70229,2.694656,-0.80916,1.059526,3.28842,1292,2407,1115,1292,0,100.0,0,damping
1780604031.3723772,12.166527499997756,12333,0.032227,-0.038574,1.049072,1.732824,2.977099,-0.664122,1.050276,3.508113,1294,2412,1118,1294,1,100.0,13,damping
1780604031.402947,12.197097299998859,12364,0.037109,-0.018555,1.053467,1.832061,3.10687,-1.183206,1.054284,3.795928,1299,2419,1120,1299,0,100.0,0,damping
1780604031.432446,12.226596300009987,12396,0.036377,-0.01709,1.057861,1.572519,3.0,-0.946565,1.058624,3.51693,1301,2423,1122,1301,0,100.0,1,damping
1780604031.4644196,12.258569900004659,12427,0.033447,-0.029785,1.051758,2.137405,3.267176,-1.061069,1.052711,4.045838,1303,2434,1131,1303,1,88.0,0,damping
1780604031.4948928,12.289043099997798,12458,0.038086,-0.009033,1.05127,1.816794,3.442748,-0.770992,1.051998,3.968335,1308,2441,1133,1308,0,88.0,0,damping
1780604031.5260925,12.320243000009214,12489,0.041504,-0.009277,1.053955,1.21374,3.099237,-0.656489,1.054813,3.392552,1310,2445,1135,1310,0,88.0,0,damping
1780604031.5570042,12.351154500007397,12520,0.046143,-0.03125,1.05957,1.442748,3.076336,-1.068702,1.061035,3.56195,1312,2451,1139,1312,1,88.0,0,damping
1780604031.5890555,12.383205999998609,12550,0.039551,-0.02417,1.050781,1.198473,2.870229,-0.839695,1.051803,3.221745,1316,2457,1141,1316,1,88.0,3,damping
1780604031.6207147,12.414864999998827,12582,0.051514,-0.034424,1.056396,1.427481,3.412214,-0.78626,1.058212,3.781416,1319,2462,1143,1319,0,88.0,0,damping
1780604031.6514742,12.44562450000376,12613,0.040039,-0.028076,1.050049,1.725191,2.374046,-0.847328,1.051187,3.054561,1322,2469,1147,1322,1,88.0,2,damping
1780604031.6819553,12.476105699999607,12644,0.043945,-0.013184,1.054688,1.778626,2.824427,-0.984733,1.055685,3.480029,1326,2475,1149,1326,0,88.0,3,damping
1780604031.7129838,12.507134200001019,12675,0.052002,-0.035645,1.06543,1.549618,3.259542,-0.618321,1.067293,3.661728,1328,2478,1150,1328,0,88.0,6,damping
1780604031.7449946,12.539145000002463,12706,0.05542,-0.015381,1.043945,1.206107,2.763359,-0.618321,1.045528,3.077851,1330,2485,1155,1330,1,96.774,0,damping
1780604031.7762835,12.570433900007629,12738,0.048584,-0.016113,1.050537,1.458015,2.89313,-1.068702,1.051783,3.411471,1335,2492,1157,1335,0,96.774,1,damping
1780604031.8075635,12.601714000003994,12770,0.056641,-0.015381,1.060791,1.167939,3.396947,-0.671756,1.062413,3.654392,1338,2498,1160,1338,0,96.774,0,damping
1780604031.8399196,12.634069899999304,12801,0.053467,-0.020508,1.054443,1.450382,2.969466,-0.969466,1.055997,3.444009,1340,2503,1163,1340,1,96.774,15,damping
1780604031.870648,12.664798199999495,12832,0.039062,-0.019287,1.049072,1.763359,3.175573,-0.687023,1.049976,3.696714,1344,2508,1164,1344,0,96.774,0,damping
1780604031.9011405,12.695290800009388,12864,0.0354,-0.01416,1.052734,1.290076,2.732824,-0.824427,1.053425,3.13246,1346,2512,1166,1346,0,96.774,1,damping
1780604031.932457,12.726607400007197,12895,0.037109,-0.025146,1.054932,2.076336,3.053435,-1.015267,1.055884,3.829544,1349,2519,1170,1349,1,96.774,2,damping
1780604031.9638622,12.7580125000095,12926,0.046875,-0.0271,1.053467,1.687023,3.015267,-1.389313,1.054857,3.723986,1354,2526,1172,1354,0,96.774,1,damping
1780604031.9956021,12.78975260000152,12958,0.041504,-0.035889,1.051514,1.282443,2.396947,-0.778626,1.052944,2.827768,1356,2530,1174,1356,0,103.175,0,damping
1780604032.0275166,12.821666999996523,12989,0.057861,-0.016602,1.056152,1.267176,3.19084,-0.954198,1.057866,3.563382,1358,2535,1177,1358,1,103.175,14,damping
1780604032.0585015,12.852651900000637,13020,0.047852,-0.021973,1.050293,1.549618,3.450382,-0.80916,1.051612,3.86797,1364,2542,1178,1364,0,103.175,1,damping
1780604032.0895004,12.883650800009491,13051,0.047119,-0.013184,1.061768,1.412214,3.389313,-0.709924,1.062894,3.739757,1367,2548,1181,1367,0,103.175,1,damping
1780604032.1208663,12.915016600003582,13082,0.060547,-0.017578,1.063477,2.175573,3.21374,-1.091603,1.065344,4.031481,1369,2553,1184,1369,1,103.175,14,damping
1780604032.1535718,12.94772219999868,13114,0.051514,-0.02002,1.054443,2.099237,3.267176,-1.19084,1.055891,4.061937,1373,2558,1185,1373,0,103.175,6,damping
1780604032.1826808,12.976831100007985,13146,0.05127,-0.026611,1.056152,2.030534,3.183206,-1.0,1.057731,3.905876,1375,2562,1187,1375,0,103.175,0,damping
1780604032.2143536,13.008503800010658,13176,0.050537,-0.019043,1.060303,1.618321,2.931298,-1.19084,1.061677,3.55381,1378,2569,1191,1378,1,103.175,3,damping
1780604032.245676,13.039826499996707,13207,0.050049,-0.020996,1.054932,1.030534,3.251908,-0.839695,1.056327,3.513118,1383,2576,1193,1383,0,103.175,1,damping
1780604032.2780502,13.072200599999633,13239,0.039307,-0.040283,1.053223,1.549618,2.625954,-0.763359,1.054725,3.143194,1385,2580,1195,1385,0,103.203,1,damping
1780604032.3075962,13.101746600004844,13270,0.048584,-0.017822,1.053711,2.10687,3.374046,-0.870229,1.054981,4.071902,1388,2585,1197,1388,1,103.203,14,damping
1780604032.3393004,13.133450799999991,13302,0.047607,-0.006104,1.056396,0.80916,3.206107,-0.755725,1.057486,3.3919,1393,2592,1199,1393,0,103.203,1,damping
1780604032.371059,13.165209400001913,13333,0.037354,-0.04248,1.056885,2.19084,2.870229,-1.0,1.058397,3.746731,1397,2598,1201,1397,0,103.203,0,damping
1780604032.4022095,13.19635990000097,13364,0.05542,-0.012939,1.056396,2.358779,3.48855,-0.923664,1.057928,4.311261,1400,2603,1203,1400,1,103.203,15,damping
1780604032.433092,13.227242399996612,13395,0.053223,-0.002686,1.059326,1.496183,3.450382,-0.419847,1.060666,3.784174,1405,2610,1205,1405,0,103.203,0,damping
1780604032.4638984,13.25804880000942,13426,0.030518,-0.035156,1.051758,1.59542,2.816794,-0.641221,1.052788,3.30013,1407,2614,1207,1407,0,103.203,1,damping
1780604032.4961107,13.29026100000192,13457,0.043945,-0.022217,1.058838,1.931298,3.122137,-1.206107,1.059982,3.86424,1410,2621,1211,1410,1,103.203,3,damping
1780604032.5256357,13.319786000007298,13488,0.048096,-0.004395,1.06665,1.778626,2.801527,-0.648855,1.067743,3.381283,1415,2628,1213,1415,0,103.203,1,damping
1780604032.5577784,13.351928800009773,13519,0.036133,-0.03833,1.050049,1.21374,2.519084,-0.78626,1.051369,2.904678,1417,2632,1215,1417,0,114.286,0,damping
1780604032.5885649,13.382715200001257,13550,0.043213,-0.022217,1.056641,1.862595,3.305344,-1.305344,1.057757,4.012291,1419,2637,1218,1419,1,114.286,14,damping
1780604032.6199393,13.414089700003387,13581,0.054932,-0.0271,1.057129,2.366412,3.328244,-0.641221,1.058902,4.133798,1425,2644,1219,1425,0,114.286,1,damping
1780604032.6497064,13.443856600002619,13613,0.040527,-0.04248,1.056396,2.70229,2.641221,-0.862595,1.058027,3.875886,1427,2648,1221,1427,0,114.286,0,damping
1780604032.6811903,13.475340500008315,13643,0.038086,-0.015869,1.054932,1.70229,3.19084,-1.312977,1.055738,3.847488,1429,2653,1224,1429,1,114.286,14,damping
1780604032.7115545,13.505704900002456,13674,0.057129,-0.022705,1.0625,1.267176,3.351145,-0.473282,1.064277,3.613849,1434,2660,1226,1434,0,114.286,1,damping
1780604032.7433047,13.537455199999386,13705,0.039307,-0.011719,1.056885,0.664122,3.206107,-0.694656,1.05768,3.347048,1436,2664,1228,1436,0,114.286,0,damping
1780604032.7737505,13.567900800000643,13736,0.036621,-0.020996,1.051514,1.076336,3.274809,-1.435114,1.052361,3.733956,1438,2669,1231,1438,1,114.286,14,damping
1780604032.8057742,13.599924499998451,13768,0.053955,-0.01416,1.063232,1.923664,3.40458,-0.732824,1.064695,3.978527,1443,2676,1233,1443,0,114.286,0,damping
1780604032.8365657,13.630716200001189,13799,0.036133,-0.033936,1.051025,1.740458,3.267176,-0.755725,1.052194,3.778194,1445,2680,1235,1445,0,100.0,1,damping
1780604032.8684762,13.66262660000939,13830,0.058838,-0.021729,1.054688,1.992366,2.961832,-1.068702,1.056551,3.726137,1447,2685,1238,1447,1,100.0,14,damping
1780604032.8990972,13.693247500006692,13861,0.051514,-0.02002,1.062744,2.076336,3.236641,-0.946565,1.06418,3.960177,1452,2692,1240,1452,0,100.0,1,damping
1780604032.9296937,13.723844000007375,13892,0.0354,-0.01123,1.055908,1.320611,2.862595,-0.870229,1.056561,3.270438,1454,2696,1242,1454,0,100.0,0,damping
1780604032.9608655,13.75501580000855,13923,0.037842,-0.029053,1.051514,1.389313,3.114504,-1.389313,1.052595,3.68246,1456,2701,1245,1456,1,100.0,14,damping
1780604032.9924223,13.786572600001819,13954,0.05542,-0.022461,1.051758,1.656489,3.045802,-0.587786,1.053456,3.516583,1461,2708,1247,1461,0,100.0,0,damping
1780604033.023117,13.81726750000962,13985,0.037598,-0.008301,1.060303,1.450382,2.870229,-0.732824,1.061002,3.29831,1463,2712,1249,1463,0,100.0,0,damping
1780604033.053587,13.847737300005974,14016,0.046143,-0.02417,1.053223,2.251908,2.885496,-0.923664,1.05451,3.774962,1465,2717,1252,1465,1,100.0,14,damping
1780604033.085706,13.879856300001848,14047,0.043213,-0.012939,1.05127,2.473282,2.564885,-1.167939,1.052237,3.749646,1470,2724,1254,1470,0,100.0,0,damping
1780604033.1159246,13.910075000007055,14078,0.037354,-0.032715,1.058838,1.89313,3.122137,-0.748092,1.060002,3.727106,1472,2728,1256,1472,0,96.774,1,damping
1780604033.1470687,13.941219200001797,14109,0.038818,-0.03418,1.045654,1.801527,2.80916,-1.167939,1.046933,3.53567,1474,2733,1259,1474,1,96.774,14,damping
1780604033.1778536,13.97200390000944,14140,0.042969,-0.018799,1.058594,1.534351,2.839695,-0.89313,1.059632,3.348997,1480,2742,1262,1480,0,96.774,0,damping
1780604033.210422,14.004572300007567,14172,0.039795,-0.014404,1.051025,0.618321,2.793893,-0.908397,1.051877,3.002223,1482,2746,1264,1482,0,96.774,0,damping
1780604033.240876,14.035026400000788,14203,0.047607,-0.03125,1.049561,1.053435,2.748092,-1.053435,1.051104,3.125934,1484,2751,1267,1484,1,96.774,14,damping
1780604033.272979,14.067129300005035,14234,0.040527,-0.023193,1.046875,1.687023,3.274809,-1.10687,1.047916,3.846503,1490,2758,1268,1490,0,96.774,0,damping
1780604033.304546,14.098696500004735,14266,0.040771,-0.027832,1.047852,1.519084,2.740458,-0.961832,1.049014,3.277628,1492,2762,1270,1492,0,96.774,1,damping
1780604033.3349512,14.129101400001673,14297,0.046875,-0.016846,1.057129,2.015267,3.221374,-1.19084,1.058302,3.982041,1494,2769,1275,1494,1,96.774,14,damping
1780604033.3655472,14.15969749999931,14328,0.047607,-0.014893,1.055176,2.022901,3.175573,-0.908397,1.056354,3.873186,1498,2774,1276,1498,0,104.0,6,damping
1780604033.3967488,14.19089910000912,14359,0.040039,-0.010498,1.054199,1.755725,3.21374,-0.709924,1.055012,3.73024,1500,2778,1278,1500,0,104.0,0,damping
1780604033.4424253,14.2365756000072,14390,0.036133,-0.020508,1.055908,1.48855,2.870229,-1.206107,1.056725,3.450897,1502,2783,1281,1502,1,104.0,13,damping
1780604033.4591465,14.253296800001408,14421,0.045898,-0.018555,1.056641,1.732824,3.496183,-0.778626,1.0578,3.978974,1508,2792,1284,1508,0,104.0,0,damping
1780604033.4909136,14.285063900009845,14453,0.042725,-0.022705,1.059082,1.450382,2.80916,-0.832061,1.060187,3.269146,1510,2796,1286,1510,0,104.0,1,damping
1780604033.5216265,14.31577680000919,14484,0.041016,-0.018066,1.044922,1.969466,2.824427,-1.290076,1.045883,3.677021,1511,2799,1288,1511,1,104.0,17,damping
1780604033.5530944,14.34724480001023,14515,0.047119,-0.029053,1.04541,2.167939,3.21374,-0.900763,1.046875,3.979882,1516,2806,1290,1516,0,104.0,1,damping
1780604033.5848114,14.378961900001741,14546,0.044434,-0.013916,1.064453,2.122137,2.908397,-1.038168,1.065471,3.747003,1518,2810,1292,1518,0,104.0,0,damping
1780604033.6144516,14.408602099996642,14577,0.042236,-0.019287,1.053711,2.122137,3.282443,-1.053435,1.054733,4.048163,1520,2817,1297,1520,1,104.0,14,damping
1780604033.6471808,14.441331100009847,14609,0.031738,-0.011719,1.046631,1.732824,2.89313,-0.862595,1.047178,3.480941,1530,2829,1299,1530,0,113.879,1,damping
1780604033.6762547,14.470405000000028,14640,0.039062,-0.005371,1.056396,1.312977,2.793893,-0.763359,1.057132,3.18001,1532,2833,1301,1532,0,113.879,1,damping
1780604033.708728,14.502878500003135,14670,0.036377,-0.026123,1.048584,1.328244,2.656489,-1.167939,1.04954,3.191433,1534,2838,1304,1534,1,113.879,14,damping
1780604033.7399626,14.534113000001526,14701,0.031494,-0.018066,1.05542,1.183206,3.152672,-0.923664,1.056044,3.491772,1539,2846,1307,1539,0,113.879,4,damping
1780604033.7702973,14.564447700002347,14732,0.052734,-0.036133,1.061035,2.183206,3.587786,-0.748092,1.062959,4.26594,1542,2851,1309,1542,0,113.879,0,damping
1780604033.8016925,14.595842900002026,14763,0.043213,-0.024658,1.039551,1.633588,2.763359,-0.763359,1.040741,3.299618,1544,2857,1313,1544,1,113.879,0,damping
1780604033.832025,14.626175500001409,14794,0.025879,-0.021729,1.048828,1.969466,2.580153,-1.08397,1.049372,3.42213,1546,2860,1314,1546,0,113.879,6,damping
1780604033.8620896,14.656240099997376,14825,0.044922,-0.01123,1.053223,1.664122,3.091603,-0.89313,1.05424,3.622843,1550,2866,1316,1550,0,113.879,1,damping
1780604033.8948321,14.68898240000999,14857,0.042236,-0.017822,1.052734,0.977099,2.412214,-0.290076,1.053732,2.61871,1552,2880,1328,1552,1,113.879,0,damping
1780604033.9271936,14.721343900004285,14888,0.037109,-0.018311,1.051514,1.839695,2.068702,-1.198473,1.052328,3.016678,1557,2887,1330,1557,0,96.774,0,damping
1780604033.9586444,14.752794700005325,14920,0.046387,-0.014893,1.058106,1.465649,2.793893,-0.984733,1.059226,3.305097,1559,2891,1332,1559,0,96.774,0,damping
1780604033.9892263,14.783376799998223,14951,0.035645,-0.029785,1.043945,1.259542,2.908397,-1.099237,1.044978,3.35463,1561,2896,1335,1561,1,96.774,14,damping
1780604034.0216286,14.815778999996837,14982,0.040039,-0.017334,1.054199,2.412214,2.770992,-1.10687,1.055102,3.836969,1567,2905,1338,1567,0,96.774,1,damping
1780604034.0517817,14.845931999996537,15014,0.038086,-0.005615,1.057861,1.679389,3.282443,-0.931298,1.058562,3.802906,1569,2909,1340,1569,0,96.774,0,damping
1780604034.08331,14.877460200004862,15045,0.032471,-0.023682,1.054932,2.099237,3.236641,-1.503817,1.055697,4.140544,1571,2914,1343,1571,1,96.774,14,damping
1780604034.114196,14.908346500000334,15076,0.037109,-0.012939,1.055176,2.167939,3.083969,-1.030534,1.055907,3.908046,1576,2921,1345,1576,0,96.774,0,damping
1780604034.145389,14.939539400002104,15108,0.041504,-0.001221,1.05835,1.251908,3.068702,-0.793893,1.059164,3.408002,1578,2925,1347,1578,0,96.774,0,damping
1780604034.17778,14.971930200001225,15139,0.044189,-0.018799,1.051758,1.351145,3.442748,-1.251908,1.052854,3.904534,1580,2930,1350,1580,1,91.633,14,damping
1780604034.2087116,15.002861900007701,15170,0.045166,-0.02124,1.049805,1.763359,3.007634,-1.007634,1.05099,3.629135,1586,2937,1351,1586,0,91.633,0,damping
1780604034.2401907,15.034341200007475,15202,0.031982,-0.037842,1.05542,1.671756,2.557252,-0.923664,1.056582,3.19178,1588,2941,1353,1588,0,91.633,0,damping
1780604034.2728057,15.06695610001043,15233,0.036621,-0.017334,1.055908,2.290076,2.900763,-1.412214,1.056685,3.956416,1590,2946,1356,1590,1,91.633,14,damping
1780604034.303932,15.098082299999078,15265,0.046875,-0.010986,1.055908,1.625954,3.419847,-0.801527,1.057005,3.870598,1595,2953,1358,1595,0,91.633,0,damping
1780604034.3353899,15.129540200010524,15296,0.051514,-0.043945,1.053223,2.053435,2.832061,-1.076336,1.055397,3.660009,1597,2957,1360,1597,0,91.633,0,damping
1780604034.3643227,15.15847290000238,15327,0.04126,-0.01416,1.058838,1.664122,3.21374,-0.89313,1.059736,3.727615,1600,2962,1362,1600,1,91.633,14,damping
1780604034.3961775,15.190327900010743,15358,0.051514,-0.020996,1.054688,1.473282,3.076336,-0.755725,1.056153,3.49364,1605,2969,1364,1605,0,91.633,0,damping
1780604034.4255006,15.219650900005945,15389,0.042969,-0.024902,1.05957,1.290076,3.038168,-1.0,1.060734,3.448878,1607,2973,1366,1607,0,108.0,0,damping
1780604034.4573019,15.25145209999755,15419,0.039551,-0.013428,1.054443,1.435114,3.137405,-1.29771,1.05527,3.686043,1609,2978,1369,1609,1,108.0,14,damping
1780604034.4882202,15.282370600005379,15450,0.05249,-0.021973,1.052002,1.923664,2.908397,-1.412214,1.05354,3.762128,1614,2985,1371,1614,0,108.0,0,damping
1780604034.5192075,15.313357899998664,15481,0.03833,-0.008789,1.058106,2.290076,3.251908,-0.770992,1.058836,4.051393,1616,2989,1373,1616,0,108.0,0,damping
1780604034.5498497,15.344000099998084,15511,0.044922,-0.020996,1.048584,2.145038,2.770992,-0.618321,1.049756,3.558358,1619,2996,1377,1619,1,108.0,2,damping
1780604034.579807,15.373957400006475,15542,0.040527,-0.020508,1.049316,1.839695,2.938931,-1.343511,1.050299,3.718443,1623,3002,1379,1623,1,108.0,3,damping
1780604034.6117516,15.405901799997082,15574,0.04541,-0.01001,1.059326,1.580153,2.885496,-1.045802,1.060346,3.452053,1626,3007,1381,1626,0,108.0,1,damping
1780604034.6445491,15.438699400008772,15606,0.028076,-0.029297,1.039795,1.709924,2.847328,-1.152672,1.040586,3.515646,1628,3019,1391,1628,1,108.0,0,damping
1780604034.6760283,15.470178500007023,15637,0.038086,-0.015381,1.054443,1.618321,2.946565,-0.923664,1.055243,3.486311,1633,3026,1393,1633,0,108.0,0,damping
1780604034.7054627,15.49961300000723,15668,0.04248,-0.012451,1.05835,2.175573,2.847328,-1.221374,1.059275,3.785782,1636,3032,1396,1636,0,103.943,0,damping
1780604034.7382379,15.532388100007665,15699,0.031494,-0.026855,1.052734,2.343511,2.80916,-1.320611,1.053548,3.889401,1638,3037,1399,1638,1,103.943,14,damping
1780604034.7686205,15.562770800010185,15730,0.038574,-0.018311,1.052978,1.977099,3.114504,-1.122137,1.053844,3.855937,1642,3042,1400,1642,0,103.943,0,damping
1780604034.8008413,15.594991600009962,15762,0.037109,-0.015137,1.054932,1.725191,2.900763,-0.916031,1.055693,3.497116,1644,3046,1402,1644,0,103.943,1,damping
1780604034.8321319,15.626282199998968,15793,0.040527,-0.020264,1.049805,1.954198,2.748092,-1.633588,1.050782,3.746933,1647,3053,1406,1647,1,103.943,3,damping
1780604034.8634288,15.657579100006842,15824,0.039307,-0.025879,1.052246,1.618321,3.076336,-1.10687,1.053298,3.648008,1653,3060,1407,1653,0,103.943,0,damping
1780604034.8946729,15.688823300006334,15856,0.038574,-0.040527,1.051758,0.877863,2.763359,-0.557252,1.053245,2.952512,1654,3062,1408,1654,0,103.943,6,damping
1780604034.9262836,15.72043400000257,15887,0.045166,-0.019043,1.054932,2.007634,3.320611,-1.175572,1.05607,4.054506,1656,3067,1411,1656,1,103.943,14,damping
1780604034.9576254,15.751775800003088,15919,0.053955,-0.013184,1.055664,1.91603,3.160305,-0.816794,1.057124,3.784951,1661,3074,1413,1661,0,99.602,0,damping
1780604034.9883437,15.782494099999894,15950,0.029297,-0.032227,1.050293,2.412214,2.954198,-1.007634,1.051196,3.944793,1665,3080,1415,1665,0,99.602,0,damping
1780604035.0201855,15.814335800008848,15981,0.035645,-0.017334,1.046875,2.473282,3.175573,-1.282443,1.047625,4.224458,1668,3085,1417,1668,1,99.602,14,damping
1780604035.050296,15.844446500006597,16012,0.052002,-0.01123,1.052978,1.824428,3.152672,-0.832061,1.054322,3.736335,1671,3090,1419,1671,0,99.602,1,damping
1780604035.0807254,15.874875800000154,16043,0.034668,-0.035889,1.053223,1.51145,2.801527,-0.847328,1.054404,3.294086,1673,3094,1421,1673,0,99.602,0,damping
1780604035.112493,15.906643499998609,16074,0.041504,-0.02002,1.054199,1.381679,3.412214,-1.381679,1.055206,3.932083,1676,3101,1425,1676,1,99.602,2,damping
1780604035.1432855,15.937435900006676,16105,0.045898,-0.012207,1.053467,1.580153,3.267176,-0.870229,1.054537,3.732106,1681,3108,1427,1681,0,99.602,1,damping
1780604035.1754756,15.969626000005519,16137,0.055176,-0.042236,1.051514,1.877863,2.648855,-0.862595,1.053807,3.359594,1683,3112,1429,1683,0,99.602,1,damping
1780604035.2058437,15.99999409999873,16168,0.051758,-0.018799,1.05249,2.770992,3.160305,-1.10687,1.05393,4.346388,1685,3117,1432,1685,1,99.602,14,damping
1780604035.237414,16.03156430000672,16199,0.03833,-0.009033,1.053467,2.091603,3.114504,-0.770992,1.054203,3.830061,1690,3124,1434,1690,0,103.571,1,damping
1780604035.2680554,16.06220570000005,16230,0.040039,-0.027588,1.049561,1.832061,2.748092,-0.89313,1.050686,3.421423,1694,3130,1436,1694,0,103.571,0,damping
1780604035.2987285,16.092878900002688,16261,0.046631,-0.012207,1.05542,1.870229,2.801527,-1.519084,1.05652,3.695122,1696,3135,1439,1696,1,103.571,14,damping
1780604035.3302195,16.12436990000424,16292,0.042725,-0.021729,1.060059,1.244275,3.351145,-0.839695,1.061142,3.671986,1701,3142,1441,1701,0,103.571,0,damping
1780604035.361664,16.155814500001725,16324,0.041748,-0.041504,1.049805,1.557252,3.022901,-0.687023,1.051454,3.469144,1703,3146,1443,1703,0,103.571,1,damping
1780604035.39234,16.18649030000961,16355,0.044189,-0.011719,1.048828,1.274809,3.557252,-1.022901,1.049824,3.91478,1707,3153,1446,1707,1,103.571,3,damping
1780604035.4254858,16.219636100009666,16386,0.049316,-0.01123,1.052734,2.022901,3.167939,-1.312977,1.053949,3.981441,1712,3160,1448,1712,0,103.571,1,damping
1780604035.455775,16.249925399999483,16418,0.055908,-0.035889,1.059082,2.610687,2.908397,-1.145038,1.061164,4.072539,1714,3164,1450,1714,0,103.571,0,damping
1780604035.4869149,16.281065200004377,16449,0.044922,-0.016602,1.058838,2.748092,3.312977,-1.137405,1.05992,4.452136,1717,3169,1452,1717,1,108.0,14,damping
1780604035.5185525,16.31270300000324,16480,0.043213,-0.007568,1.050293,1.610687,3.122137,-1.015267,1.051209,3.656887,1722,3176,1454,1722,0,108.0,0,damping
1780604035.5495903,16.343740700001945,16511,0.03418,-0.036377,1.047363,1.671756,2.687023,-0.671756,1.048552,3.235138,1726,3182,1456,1726,0,108.0,1,damping
1780604035.5800035,16.374153800003114,16542,0.042969,-0.016602,1.050781,1.793893,3.114504,-1.557252,1.05179,3.917042,1728,3187,1459,1728,1,108.0,14,damping
1780604035.6123345,16.40648489999876,16574,0.05127,-0.01416,1.053711,1.335878,3.045802,-0.274809,1.055052,3.337214,1733,3194,1461,1733,0,108.0,0,damping
1780604035.6423779,16.43652830000792,16605,0.037354,-0.042236,1.053467,1.80916,2.931298,-1.198473,1.054975,3.647178,1735,3198,1463,1735,0,108.0,1,damping
1780604035.671523,16.465673500002595,16636,0.047363,-0.009277,1.057129,2.59542,3.21374,-1.351145,1.05823,4.346254,1737,3203,1466,1737,1,108.0,14,damping
1780604035.7034209,16.497571200001403,16665,0.037109,-0.016602,1.05835,2.328244,2.679389,-1.038168,1.05913,3.69833,1742,3210,1468,1742,0,108.0,0,damping
1780604035.7355359,16.529686200010474,16697,0.039062,-0.012451,1.05835,1.80916,3.022901,-0.816794,1.059143,3.616371,1744,3214,1470,1744,0,108.0,0,damping
1780604035.7666776,16.56082790000073,16728,0.037109,-0.016113,1.057617,1.740458,2.389313,-1.312977,1.058391,3.234489,1746,3219,1473,1746,1,103.943,13,damping
1780604035.7978532,16.592003500001738,16759,0.041016,-0.018555,1.047607,1.343511,3.015267,-1.091603,1.048574,3.476846,1752,3226,1474,1752,0,103.943,1,damping
1780604035.8295176,16.62366789999942,16791,0.03833,-0.004395,1.055176,1.045802,2.832061,-0.916031,1.055881,3.154898,1754,3230,1476,1754,0,103.943,1,damping
1780604035.8674095,16.661559900006978,16828,0.040039,-0.020264,1.054932,1.770992,2.541985,-0.801527,1.055886,3.200085,1757,3236,1479,1757,0,103.943,7,damping
1780604035.8968596,16.691009900008794,16859,0.054932,-0.032715,1.061523,1.29771,3.053435,-0.816794,1.063447,3.416822,1761,3242,1481,1761,0,103.943,0,damping
1780604035.928611,16.72276150000107,16890,0.048828,-0.008789,1.049561,0.992366,2.473282,-0.625954,1.050732,2.737469,1764,3249,1485,1764,1,103.943,2,damping
1780604035.9590383,16.75318860000698,16921,0.033203,-0.028809,1.054932,1.221374,2.763359,-0.78626,1.055847,3.121876,1768,3254,1486,1768,0,103.943,6,damping
1780604035.9918044,16.78595469999709,16952,0.041504,-0.034668,1.057861,1.534351,3.236641,-0.916031,1.059243,3.697187,1771,3258,1487,1771,0,103.943,6,damping
1780604036.0233092,16.817459700003383,16985,0.0354,-0.017578,1.041748,1.648855,2.351145,-0.648855,1.042498,2.944082,1773,3270,1497,1773,1,105.058,0,damping
1780604036.055222,16.849372500000754,17016,0.040039,-0.018311,1.050293,1.641221,2.732824,-0.870229,1.051215,3.304427,1778,3277,1499,1778,0,105.058,1,damping
1780604036.0857947,16.879945100008626,17048,0.035645,0.003418,1.051758,0.870229,2.832061,-1.129771,1.052367,3.170844,1781,3283,1502,1781,0,105.058,0,damping
1780604036.1175349,16.911685200000647,17079,0.044678,-0.038574,1.054932,1.725191,2.931298,-0.732824,1.056582,3.479342,1783,3288,1505,1783,1,105.058,14,damping
1780604036.148855,16.943005300010554,17110,0.031982,-0.015381,1.055908,2.076336,3.183206,-1.244275,1.056504,3.999024,1786,3293,1507,1786,0,105.058,0,damping
1780604036.1789427,16.973093000007793,17141,0.054443,-0.033203,1.059082,2.137405,3.358779,-0.732824,1.061,4.048076,1788,3297,1509,1788,0,105.058,1,damping
1780604036.210656,17.00480619999871,17172,0.042725,-0.028809,1.047607,2.129771,3.312977,-0.969466,1.048874,4.056058,1791,3304,1513,1791,1,105.058,2,damping
1780604036.2416248,17.03577509999741,17203,0.030273,-0.01416,1.054443,1.282443,2.603053,-0.908397,1.054973,3.040679,1796,3311,1515,1796,0,105.058,1,damping
1780604036.2735348,17.067685200003325,17235,0.037354,-0.011475,1.052978,1.732824,2.862595,-1.114504,1.053703,3.526932,1798,3315,1517,1798,0,100.0,0,damping
1780604036.3044577,17.098608100001,17266,0.040771,-0.030273,1.054688,1.572519,3.083969,-1.045802,1.055909,3.616266,1799,3318,1519,1799,1,100.0,18,damping
1780604036.3344471,17.128597400005674,17297,0.048096,-0.009766,1.058106,1.442748,2.51145,-1.267176,1.059243,3.16143,1804,3325,1521,1804,0,100.0,0,damping
1780604036.3648725,17.1590228999994,17327,0.041992,-0.02832,1.068359,1.480916,3.061069,-0.938931,1.069559,3.527726,1807,3331,1524,1807,0,100.0,1,damping
1780604036.3972187,17.1913690000074,17359,0.052002,-0.018799,1.042969,1.778626,2.862595,-0.587786,1.044434,3.421031,1809,3343,1534,1809,1,100.0,0,damping
1780604036.4283257,17.22247600000992,17390,0.042969,-0.020508,1.055664,1.648855,2.824427,-0.977099,1.056737,3.413332,1814,3350,1536,1814,0,100.0,0,damping
1780604036.4588017,17.252952000009827,17421,0.045166,-0.016357,1.05957,1.603053,3.129771,-0.885496,1.060659,3.626203,1816,3354,1538,1816,0,100.0,0,damping
1780604036.491383,17.28553340000508,17453,0.0271,-0.026611,1.047119,1.618321,2.89313,-0.732824,1.047808,3.395025,1819,3368,1549,1819,1,100.0,1,damping
1780604036.5226767,17.316827000002377,17484,0.041992,-0.015381,1.053223,1.335878,3.267176,-0.992366,1.054172,3.666578,1824,3375,1551,1824,0,100.0,1,damping
1780604036.5540476,17.34819800000696,17516,0.033691,-0.003662,1.056396,1.251908,2.70229,-1.114504,1.05694,3.1799,1826,3379,1553,1826,0,99.644,1,damping
1780604036.585162,17.37931230000686,17546,0.0354,-0.021973,1.04834,1.748092,3.015267,-0.923664,1.049168,3.605664,1828,3384,1556,1828,1,99.644,14,damping
1780604036.614598,17.408748400004697,17577,0.044189,-0.012695,1.055908,1.396947,3.29771,-1.229008,1.056909,3.786398,1833,3391,1558,1833,0,99.644,0,damping
1780604036.6465797,17.4407302000036,17608,0.041504,-0.032959,1.054932,1.030534,2.89313,-1.015267,1.056262,3.234651,1835,3395,1560,1835,0,99.644,0,damping
1780604036.6789322,17.4730825000006,17639,0.038818,-0.023193,1.050049,1.282443,2.244275,-0.732824,1.051022,2.686719,1837,3404,1567,1837,1,99.644,0,damping
1780604036.710092,17.504242399998475,17671,0.036621,-0.012939,1.058838,1.366412,2.633588,-1.442748,1.05955,3.29915,1842,3411,1569,1842,0,99.644,1,damping
1780604036.7416973,17.535847599996487,17703,0.030762,-0.02417,1.050537,1.038168,2.778626,-0.816794,1.051265,3.076639,1844,3415,1571,1844,0,99.644,1,damping
1780604036.7726998,17.56685030000517,17734,0.060059,-0.023682,1.055908,2.061069,3.045802,-1.053435,1.05788,3.825524,1846,3420,1574,1846,1,99.644,14,damping
1780604036.803842,17.597992399998475,17765,0.038086,-0.015625,1.052002,2.083969,2.877863,-1.40458,1.052807,3.820716,1851,3427,1576,1851,0,99.644,0,damping
1780604036.8347485,17.62889880000148,17796,0.048828,-0.01123,1.05835,2.312977,2.748092,-0.824427,1.059535,3.685316,1853,3431,1578,1853,0,96.429,0,damping
1780604036.8654623,17.659612600007677,17827,0.036621,-0.02832,1.051514,2.51145,2.885496,-0.832061,1.052532,3.914818,1855,3436,1581,1855,1,96.429,13,damping
1780604036.8972788,17.691429099999368,17858,0.042969,-0.016357,1.061035,1.938931,3.083969,-1.335878,1.062031,3.880063,1860,3443,1583,1860,0,96.429,1,damping
1780604036.9285138,17.722664100001566,17890,0.04126,-0.00708,1.054443,1.381679,2.450382,-1.19084,1.055274,3.054752,1862,3447,1585,1862,0,96.429,0,damping
1780604036.9601405,17.754290700002457,17921,0.042236,-0.023438,1.051514,1.305344,3.496183,-0.984733,1.052622,3.859652,1864,3452,1588,1864,1,96.429,14,damping
1780604036.9908483,17.784998600007384,17953,0.035889,-0.02417,1.053223,1.40458,3.167939,-0.916031,1.054111,3.584382,1869,3459,1590,1869,0,96.429,0,damping
1780604037.0222962,17.816446600001655,17984,0.045898,-0.010254,1.061768,0.977099,2.763359,-0.671756,1.062809,3.007014,1871,3463,1592,1871,0,96.429,1,damping
1780604037.052934,17.847084300010465,18015,0.052979,-0.022461,1.056641,1.534351,3.572519,-1.152672,1.058206,4.05534,1873,3470,1597,1873,1,96.429,14,damping
1780604037.085501,17.879651399998693,18047,0.030518,-0.017334,1.048096,1.832061,3.10687,-0.854962,1.048683,3.706757,1885,3483,1598,1885,0,127.49,1,damping
1780604037.1169333,17.91108360000362,18079,0.044434,-0.039307,1.056641,2.290076,2.916031,-1.328244,1.058305,3.938517,1887,3487,1600,1887,0,127.49,0,damping
1780604037.1485643,17.942714600008912,18110,0.026367,-0.016357,1.050537,2.290076,3.19084,-1.21374,1.050995,4.110848,1890,3492,1602,1890,1,127.49,14,damping
1780604037.178688,17.97283850000531,18141,0.042969,-0.008057,1.049316,1.709924,3.030534,-1.122137,1.050227,3.656114,1896,3501,1605,1896,0,127.49,0,damping
1780604037.2110846,18.005234900003416,18172,0.043701,-0.040527,1.054688,2.022901,2.51145,-0.908397,1.05637,3.350328,1898,3505,1607,1898,0,127.49,1,damping
1780604037.2417161,18.035866400008672,18203,0.037598,-0.014404,1.054199,1.89313,3.129771,-1.129771,1.054968,3.828288,1900,3508,1608,1900,1,127.49,17,damping
1780604037.2741187,18.06826890000957,18235,0.051514,-0.005859,1.063721,1.534351,2.89313,-0.900763,1.064983,3.39644,1905,3515,1610,1905,0,127.49,1,damping
1780604037.3043118,18.098462100009783,18266,0.034668,-0.044434,1.046631,2.045802,3.229008,-1.038168,1.048147,3.961008,1907,3519,1612,1907,0,127.49,0,damping
1780604037.3360243,18.130174600009923,18297,0.043213,-0.022217,1.05835,1.839695,3.259542,-1.183206,1.059464,3.925438,1912,3526,1614,1912,1,108.0,14,damping
1780604037.3656518,18.159802100009983,18328,0.04834,-0.005127,1.053711,2.007634,3.259542,-0.938931,1.054832,3.941674,1916,3531,1615,1916,0,108.0,6,damping
1780604037.395854,18.190004300005967,18359,0.025391,-0.041992,1.048584,2.251908,2.664122,-1.236641,1.049732,3.70107,1918,3535,1617,1918,0,108.0,0,damping
1780604037.4346538,18.22880409999925,18389,0.04126,-0.025635,1.051758,1.290076,3.175573,-1.061069,1.052879,3.588095,1920,3540,1620,1920,1,108.0,14,damping
1780604037.4586735,18.252823800008628,18420,0.038086,-0.026855,1.050781,1.290076,3.045802,-1.122137,1.051814,3.492907,1926,3549,1623,1926,0,108.0,1,damping
1780604037.4900916,18.284242000008817,18452,0.033936,-0.040039,1.048096,1.267176,2.572519,-0.778626,1.049409,2.971506,1928,3553,1625,1928,0,108.0,0,damping
1780604037.5208333,18.314983500007656,18483,0.04541,-0.017578,1.054688,1.854962,3.137405,-1.473282,1.055811,3.931254,1930,3558,1628,1930,1,108.0,14,damping
1780604037.5523882,18.34653850000177,18514,0.045166,-0.02417,1.054688,2.526718,3.274809,-1.030534,1.055931,4.262708,1935,3565,1630,1935,0,108.0,0,damping
1780604037.5837784,18.377928700007033,18545,0.038574,-0.011963,1.053955,1.923664,2.664122,-0.770992,1.054728,3.375272,1937,3569,1632,1937,0,108.0,0,damping
1780604037.6150336,18.409184000003734,18576,0.040039,-0.012451,1.04834,1.694656,3.0,-1.633588,1.049178,3.813197,1939,3576,1637,1939,1,96.774,14,damping
1780604037.6458127,18.43996309999784,18607,0.039551,-0.016602,1.050049,1.954198,2.977099,-0.954198,1.050925,3.686802,1944,3583,1639,1944,0,96.774,1,damping
1780604037.6773393,18.47148960000777,18639,0.03125,-0.041016,1.047607,2.022901,2.351145,-1.175572,1.048876,3.316923,1945,3585,1640,1945,0,96.774,6,damping
1780604037.7089489,18.503099100009422,18670,0.049805,-0.016357,1.049561,1.839695,2.763359,-1.335878,1.050869,3.578435,1947,3590,1643,1947,1,96.774,14,damping
1780604037.7399092,18.534059500001604,18701,0.032715,-0.024658,1.052246,1.755725,3.51145,-0.961832,1.053043,4.042026,1953,3599,1646,1953,0,96.774,1,damping
1780604037.771188,18.565338400003384,18732,0.030762,-0.034912,1.047607,1.908397,2.732824,-1.129771,1.04864,3.519473,1955,3603,1648,1955,0,96.774,0,damping
1780604037.8002393,18.59438970001065,18763,0.053955,-0.015381,1.0625,2.137405,3.129771,-1.412214,1.06398,4.044541,1957,3608,1651,1957,1,96.774,15,damping
1780604037.8320844,18.626234700001078,18794,0.039307,-0.019775,1.049316,2.038168,3.053435,-0.916031,1.050238,3.783742,1962,3615,1653,1962,0,96.774,0,damping
1780604037.8628008,18.65695129999949,18825,0.029785,-0.015625,1.053955,1.229008,2.854962,-1.175572,1.054492,3.323137,1964,3619,1655,1964,0,96.774,0,damping
1780604037.89416,18.688310500001535,18856,0.042236,-0.010742,1.056885,1.580153,2.687023,-1.229008,1.057783,3.350736,1966,3626,1660,1966,1,96.429,14,damping
1780604037.9270554,18.72120559999894,18888,0.038574,-0.007813,1.054688,1.442748,2.89313,-1.099237,1.055422,3.414681,1971,3633,1662,1971,0,96.429,0,damping
1780604037.956991,18.75114140000369,18919,0.041016,-0.047363,1.04541,1.610687,2.816794,-0.89313,1.047286,3.36546,1972,3635,1663,1972,0,96.429,6,damping
1780604037.9886308,18.782781100002467,18950,0.050049,-0.01001,1.053711,2.038168,3.274809,-1.480916,1.054946,4.131782,1974,3640,1666,1974,1,96.429,14,damping
1780604038.0200076,18.814157900007558,18981,0.032715,-0.02124,1.047119,2.091603,3.122137,-1.251908,1.047845,3.961038,1980,3649,1669,1980,0,96.429,1,damping
1780604038.0508292,18.8449796000059,19012,0.038818,-0.022217,1.060547,1.961832,2.854962,-0.938931,1.06149,3.589037,1982,3653,1671,1982,0,96.429,0,damping
1780604038.081244,18.87539440000546,19043,0.058105,-0.008301,1.056641,2.396947,3.320611,-1.427481,1.05827,4.336993,1984,3658,1674,1984,1,96.429,14,damping
1780604038.1132667,18.907417000009445,19074,0.032471,-0.018066,1.049805,2.022901,2.78626,-0.709924,1.050462,3.515588,1989,3665,1676,1989,0,96.429,0,damping
1780604038.1443667,18.938517200003844,19105,0.033203,-0.020264,1.05249,1.381679,2.267176,-0.954198,1.053209,2.82128,1991,3669,1678,1991,0,96.429,0,damping
1780604038.1743996,18.968550000005052,19136,0.046875,-0.014893,1.054688,1.519084,2.648855,-1.022901,1.055834,3.220307,1993,3676,1683,1993,1,96.429,14,damping
1780604038.2054513,18.999601500006975,19167,0.040771,-0.012695,1.05249,0.992366,3.167939,-1.068702,1.053356,3.487514,1998,3683,1685,1998,0,96.429,1,damping
1780604038.2369463,19.031096799997613,19199,0.039551,-0.046875,1.048584,1.618321,2.877863,-1.160305,1.050376,3.499623,2000,3687,1687,2000,0,96.429,1,damping
1780604038.2682846,19.06243489999906,19230,0.047119,-0.014404,1.058594,2.580153,3.122137,-1.29771,1.05974,4.253114,2002,3692,1690,2002,1,96.429,14,damping
1780604038.299295,19.09344540000893,19260,0.04541,-0.020508,1.050781,1.984733,2.969466,-1.145038,1.051962,3.750734,2008,3701,1693,2008,0,96.429,1,damping
1780604038.3304472,19.12459750000562,19292,0.04126,-0.022949,1.059326,2.007634,2.717557,-0.763359,1.060378,3.463874,2010,3705,1695,2010,0,96.429,0,damping
1780604038.3609188,19.15506920000189,19323,0.057861,-0.010254,1.059082,1.931298,3.10687,-1.320611,1.060711,3.889289,2012,3710,1698,2012,1,96.429,14,damping
1780604038.3925207,19.186671000003116,19354,0.03833,-0.012207,1.047119,1.305344,3.061069,-1.076336,1.047892,3.497508,2015,3715,1700,2015,0,96.429,0,damping
1780604038.424349,19.21849949999887,19385,0.039307,-0.031494,1.05542,0.709924,2.854962,-1.114504,1.056621,3.145937,2017,3719,1702,2017,0,96.429,0,damping
1780604038.453809,19.24795930000255,19416,0.041504,-0.02124,1.059326,1.526718,3.114504,-1.221374,1.060352,3.67733,2019,3726,1707,2019,1,92.857,14,damping
1780604038.4851863,19.279336599996896,19446,0.04126,-0.017822,1.055908,1.923664,2.839695,-1.145038,1.056864,3.616001,2024,3733,1709,2024,0,92.857,1,damping
1780604038.518236,19.312386200006586,19478,0.028809,-0.023193,1.050781,1.78626,2.755725,-1.160305,1.051432,3.482966,2025,3735,1710,2025,0,92.857,6,damping
1780604038.5477793,19.34192960000655,19509,0.04541,-0.01416,1.052246,2.068702,3.099237,-1.534351,1.053321,4.029768,2027,3740,1713,2027,1,92.857,14,damping
1780604038.5798228,19.37397320001037,19540,0.035645,-0.018555,1.055176,1.725191,3.022901,-0.908397,1.055941,3.597137,2033,3749,1716,2033,0,92.857,1,damping
1780604038.6103213,19.40447170000698,19572,0.034912,-0.03418,1.061035,1.709924,2.938931,-0.59542,1.062159,3.45191,2035,3753,1718,2035,0,92.857,1,damping
1780604038.6423376,19.436487900005886,19603,0.047607,-0.016357,1.05542,1.648855,3.389313,-1.145038,1.05662,3.939198,2038,3758,1720,2038,1,92.857,14,damping
1780604038.672538,19.466688300002716,19634,0.04126,-0.005127,1.052002,1.793893,3.053435,-1.206107,1.052823,3.741151,2043,3765,1722,2043,0,92.857,1,damping
1780604038.7033968,19.49754710000707,19665,0.034424,-0.044434,1.047852,1.549618,2.938931,-0.763359,1.049358,3.40901,2045,3769,1724,2045,0,92.857,0,damping
1780604038.734927,19.529077300001518,19696,0.04248,-0.013184,1.050049,2.328244,2.900763,-1.10687,1.05099,3.880762,2049,3776,1727,2049,1,107.143,14,damping
1780604038.7656097,19.559760000003735,19728,0.044189,-0.008301,1.056885,1.961832,3.641221,-0.59542,1.057841,4.178732,2054,3783,1729,2054,0,107.143,0,damping
1780604038.7971797,19.591330099996412,19759,0.030273,-0.03125,1.043457,2.114504,2.954198,-1.099237,1.044364,3.795621,2056,3787,1731,2056,0,107.143,0,damping
1780604038.828099,19.622249400010332,19790,0.046631,-0.022217,1.054932,1.656489,3.259542,-0.908397,1.056195,3.76746,2058,3792,1734,2058,1,107.143,13,damping
1780604038.8597488,19.653899199998705,19821,0.055176,-0.00708,1.055908,0.908397,3.183206,-0.763359,1.057372,3.397161,2064,3801,1737,2064,0,107.143,0,damping
1780604038.8913107,19.68546100000094,19852,0.035156,-0.04541,1.056152,1.351145,2.755725,-0.839695,1.057713,3.181933,2066,3805,1739,2066,0,107.143,0,damping
1780604038.9225702,19.71672050000052,19883,0.046631,-0.026855,1.054199,1.709924,3.671756,-1.053435,1.055572,4.185136,2068,3808,1740,2068,1,107.143,17,damping
1780604038.9533217,19.747472100003506,19915,0.038818,-0.044189,1.054199,1.29771,2.816794,-0.931298,1.055839,3.238162,2073,3815,1742,2073,0,107.143,0,damping
1780604038.9856346,19.779784900005325,19946,0.029785,-0.022217,1.051025,2.259542,2.412214,-1.251908,1.051682,3.534343,2076,3821,1745,2076,0,108.0,0,damping
1780604039.0157971,19.809947500005364,19977,0.051514,-0.031738,1.056396,1.984733,3.061069,-1.030534,1.058128,3.790951,2079,3826,1747,2079,1,108.0,14,damping
1780604039.0470095,19.841159800009336,20008,0.04248,-0.043457,1.050293,1.366412,3.061069,-0.770992,1.05205,3.439717,2083,3831,1748,2083,0,108.0,6,damping
1780604039.0778596,19.872010000006412,20039,0.035645,-0.035889,1.061768,1.267176,3.267176,-0.748092,1.062972,3.583268,2085,3835,1750,2085,0,108.0,1,damping
1780604039.1089432,19.903093600005377,20070,0.048096,-0.038574,1.058838,1.335878,3.244275,-0.664122,1.060631,3.570847,2088,3840,1752,2088,1,108.0,14,damping
1780604039.1400645,19.93421479999961,20101,0.049805,-0.015137,1.058838,0.870229,3.129771,-0.847328,1.060117,3.357191,2094,3849,1755,2094,0,108.0,1,damping
1780604039.1705136,19.964663999999175,20132,0.04248,-0.036621,1.044678,1.923664,2.984733,-1.022901,1.046182,3.695327,2096,3853,1757,2096,0,108.0,0,damping
1780604039.2009358,19.995086299997638,20163,0.038818,-0.020264,1.052002,1.748092,3.442748,-0.885496,1.052913,3.961369,2098,3856,1758,2098,1,108.0,16,damping
1780604039.2320209,20.026171300007263,20194,0.051758,-0.008301,1.060303,1.748092,3.076336,-1.08397,1.061598,3.700629,2103,3863,1760,2103,0,108.0,0,damping
1780604039.2628684,20.057018799998332,20224,0.033936,-0.032715,1.046875,1.900763,2.778626,-0.946565,1.047936,3.497092,2105,3867,1762,2105,0,104.317,0,damping
1780604039.2934678,20.087618100005784,20255,0.044434,-0.018066,1.055908,1.992366,2.78626,-1.137405,1.056997,3.609218,2107,3874,1767,2107,1,104.317,14,damping
1780604039.3244238,20.11857420000888,20286,0.046387,-0.022949,1.053711,1.625954,3.312977,-0.603053,1.054981,3.739414,2111,3879,1768,2111,0,104.317,6,damping
1780604039.3564453,20.150595600003726,20317,0.031738,-0.01001,1.052734,0.923664,2.938931,-0.793893,1.05326,3.181311,2113,3883,1770,2113,0,104.317,0,damping
1780604039.3870049,20.18115519999992,20348,0.036865,-0.013916,1.057129,1.274809,3.099237,-0.89313,1.057863,3.468153,2115,3888,1773,2115,1,104.317,14,damping
1780604039.4183848,20.212535099999513,20379,0.044434,-0.022461,1.049805,1.778626,2.755725,-1.114504,1.050985,3.464051,2122,3897,1775,2122,0,104.317,0,damping
1780604039.4486012,20.242751700003282,20410,0.050293,-0.021729,1.060547,1.572519,2.740458,-1.076336,1.061961,3.337877,2124,3901,1777,2124,0,104.317,1,damping
1780604039.4796782,20.273828400007915,20441,0.049072,-0.020264,1.050537,2.450382,2.969466,-1.091603,1.051878,4.001712,2125,3904,1779,2125,1,104.317,18,damping
1780604039.5111992,20.305349600006593,20472,0.03833,-0.022217,1.050781,1.78626,3.312977,-0.778626,1.051715,3.84354,2131,3911,1780,2131,0,104.317,0,damping
1780604039.5416145,20.3357648000092,20503,0.041992,-0.025391,1.057861,1.122137,3.198473,-0.679389,1.058999,3.457021,2133,3915,1782,2133,0,100.358,0,damping
1780604039.5740266,20.36817690001044,20534,0.051758,-0.016602,1.061279,1.274809,3.175573,-1.259542,1.06267,3.646347,2135,3922,1787,2135,1,100.358,14,damping
1780604039.6050122,20.399162500005332,20566,0.043457,-0.0271,1.05127,1.381679,3.10687,-0.70229,1.052516,3.472015,2139,3927,1788,2139,0,100.358,5,damping
1780604039.635899,20.430049500006135,20597,0.039062,-0.015137,1.053223,1.343511,3.10687,-0.763359,1.054055,3.469925,2141,3931,1790,2141,0,100.358,0,damping
1780604039.66654,20.460690300009446,20628,0.053711,-0.023682,1.056885,1.740458,3.320611,-1.572519,1.058514,4.065522,2143,3936,1793,2143,1,100.358,14,damping
1780604039.6982265,20.492376800000784,20659,0.04541,-0.029053,1.052978,1.870229,3.114504,-0.824427,1.054358,3.725262,2149,3945,1796,2149,0,100.358,0,damping
1780604039.729004,20.52315429999726,20691,0.042969,-0.043701,1.052734,1.740458,2.496183,-0.824427,1.054517,3.152746,2151,3949,1798,2151,0,100.358,1,damping
1780604039.7600408,20.554191200004425,20722,0.040283,-0.020996,1.057861,1.709924,3.587786,-1.0,1.058836,4.098298,2152,3952,1800,2152,1,100.358,17,damping
1780604039.7924461,20.58659649999754,20753,0.043701,-0.02417,1.059326,1.694656,3.473282,-0.870229,1.060503,3.96142,2157,3959,1802,2157,0,96.0,0,damping
1780604039.8231103,20.61726080000517,20784,0.035889,-0.03833,1.057129,0.679389,2.625954,-0.900763,1.058432,2.858072,2159,3963,1804,2159,0,96.0,0,damping
1780604039.8533928,20.647543200000655,20815,0.054199,-0.016113,1.05127,1.290076,3.526718,-0.832061,1.052789,3.846344,2161,3970,1809,2161,1,96.0,14,damping
1780604039.885203,20.67935330000182,20847,0.032959,-0.027588,1.050537,2.030534,3.091603,-0.587786,1.051416,3.745206,2173,3983,1810,2173,0,96.0,1,damping
1780604039.9160683,20.71021859999746,20878,0.031494,-0.033691,1.056885,2.007634,2.885496,-1.045802,1.05789,3.667476,2174,3985,1811,2174,0,96.0,6,damping
1780604039.9472504,20.741400700004306,20909,0.049561,-0.022217,1.057373,2.053435,3.167939,-1.21374,1.058767,3.965551,2176,3990,1814,2176,1,96.0,14,damping
1780604039.9771874,20.771337800004403,20940,0.050293,-0.017822,1.048584,2.038168,3.0,-0.78626,1.049941,3.711109,2182,3999,1817,2182,0,96.0,0,damping
1780604040.0066261,20.80077660000825,20970,0.043457,-0.003662,1.0625,1.70229,3.244275,-0.916031,1.063395,3.776536,2184,4003,1819,2184,0,96.0,0,damping
1780604040.0366898,20.83084010001039,20999,0.036865,-0.034912,1.040527,1.458015,2.473282,-0.671756,1.041765,2.948591,2186,4007,1821,2186,0,96.0,1,damping
1780604040.068377,20.86252740000782,21030,0.029053,-0.021973,1.060303,1.641221,2.916031,-1.022901,1.060928,3.499024,2191,4013,1822,2191,0,122.744,6,damping
1780604040.1003397,20.894490100006806,21062,0.047607,-0.016357,1.062256,1.335878,3.351145,-0.923664,1.063448,3.723963,2195,4019,1824,2195,0,122.744,0,damping
1780604040.1308465,20.924996800007648,21093,0.041504,-0.019043,1.039795,1.770992,2.59542,-0.519084,1.040797,3.184661,2197,4026,1829,2197,1,122.744,14,damping
1780604040.1629589,20.95710919999692,21124,0.033691,-0.027832,1.053223,2.022901,2.725191,-1.08397,1.054129,3.562834,2201,4031,1830,2201,0,122.744,6,damping
1780604040.1945722,20.988722499998403,21156,0.041992,-0.027344,1.052002,1.580153,3.045802,-0.687023,1.053195,3.499398,2205,4037,1832,2205,0,122.744,1,damping
1780604040.2252786,21.01942900000722,21187,0.046631,-0.023193,1.049805,1.206107,3.0,-0.755725,1.051096,3.320514,2207,4042,1835,2207,1,122.744,14,damping
1780604040.2566311,21.050781600002665,21218,0.025391,-0.025391,1.042969,1.732824,2.656489,-0.709924,1.043587,3.25017,2211,4047,1836,2211,0,122.744,6,damping
1780604040.2889283,21.08307870000135,21249,0.04126,-0.015869,1.061035,1.091603,3.152672,-1.061069,1.061956,3.500972,2215,4053,1838,2215,0,122.744,0,damping
1780604040.3205884,21.114738800009945,21282,0.039795,-0.027588,1.043457,1.160305,2.633588,-0.885496,1.04458,3.011012,2217,4064,1847,2217,1,103.175,0,damping
1780604040.3517733,21.145923600008246,21313,0.033691,-0.014404,1.054688,1.80916,2.961832,-0.961832,1.055324,3.601476,2222,4071,1849,2222,0,103.175,1,damping
1780604040.3828754,21.177025900004082,21345,0.039062,-0.012451,1.057129,2.007634,3.0,-0.969466,1.057924,3.737707,2226,4077,1851,2226,0,103.175,0,damping
1780604040.4149137,21.209064100010437,21376,0.043457,-0.016602,1.050781,2.183206,2.862595,-1.51145,1.05181,3.904526,2228,4082,1854,2228,1,103.175,14,damping
1780604040.445581,21.239731200010283,21407,0.049316,-0.02417,1.052002,2.19084,3.244275,-1.29771,1.053434,4.124215,2233,4089,1856,2233,0,103.175,0,damping
1780604040.476586,21.27073650000966,21438,0.039795,-0.022461,1.062744,1.480916,3.038168,-0.694656,1.063726,3.450525,2235,4093,1858,2235,0,103.175,1,damping
1780604040.5078363,21.301986600010423,21469,0.04248,-0.030273,1.043945,1.358779,2.763359,-0.625954,1.045248,3.142332,2238,4100,1862,2238,1,103.175,2,damping
1780604040.5401132,21.334263500000816,21501,0.052734,-0.022705,1.050049,1.167939,3.251908,-0.687023,1.051617,3.522923,2243,4107,1864,2243,0,103.175,0,damping
1780604040.571888,21.366038300009677,21533,0.042969,-0.030029,1.050049,1.114504,2.78626,-0.725191,1.051357,3.087274,2244,4109,1865,2244,0,107.57,6,damping
1780604040.602401,21.396551300000283,21564,0.046387,-0.02002,1.057129,1.984733,3.114504,-1.396947,1.058336,3.948514,2246,4114,1868,2246,1,107.57,14,damping
1780604040.6339867,21.428137100010645,21595,0.049072,-0.018555,1.053223,1.908397,3.099237,-0.938931,1.054528,3.758835,2251,4121,1870,2251,0,107.57,0,damping
1780604040.664844,21.458994500004337,21626,0.047852,-0.015137,1.054688,1.847328,2.862595,-0.839695,1.055881,3.508869,2254,4127,1873,2254,0,107.57,0,damping
1780604040.696264,21.49041450000368,21657,0.033203,-0.026855,1.044434,1.679389,2.824427,-1.183206,1.045306,3.492523,2256,4132,1876,2256,1,107.57,14,damping
1780604040.726245,21.520395200001076,21688,0.046387,-0.013184,1.058838,1.51145,3.10687,-1.0,1.059935,3.596821,2260,4137,1877,2260,0,107.57,6,damping
1780604040.7574623,21.551612700000987,21719,0.052246,-0.027344,1.058838,1.603053,2.900763,-0.709924,1.060479,3.389425,2262,4141,1879,2262,0,107.57,0,damping
1780604040.789445,21.58359520000522,21750,0.036133,-0.025879,1.03833,1.770992,2.900763,-1.007634,1.039281,3.544879,2265,4149,1884,2265,1,107.57,0,damping
1780604040.8216872,21.615837500008638,21782,0.060059,-0.022217,1.052734,2.129771,3.282443,-1.175572,1.05468,4.085624,2270,4156,1886,2270,0,107.57,0,damping
1780604040.8527703,21.646920600003796,21814,0.030029,-0.012695,1.056641,2.038168,2.664122,-0.740458,1.057143,3.435106,2272,4160,1888,2272,0,99.644,1,damping
1780604040.884026,21.678176300003543,21845,0.034424,-0.018311,1.057617,2.229008,2.603053,-1.229008,1.058336,3.640717,2274,4165,1891,2274,1,99.644,14,damping
1780604040.9151368,21.709287100005895,21876,0.048584,-0.020996,1.053955,2.137405,3.015267,-1.030534,1.055283,3.83697,2279,4172,1893,2279,0,99.644,0,damping
1780604040.9466095,21.74075989999983,21908,0.037842,-0.018066,1.059326,1.396947,2.755725,-1.030534,1.060156,3.256913,2281,4176,1895,2281,0,99.644,0,damping
1780604040.9778414,21.771991800007527,21939,0.043213,-0.019287,1.049316,0.961832,2.717557,-1.458015,1.050383,3.230487,2283,4181,1898,2283,1,99.644,14,damping
1780604041.010131,21.80428120000579,21970,0.048096,-0.026367,1.051514,1.259542,3.007634,-0.885496,1.052943,3.378818,2288,4188,1900,2288,0,99.644,0,damping
1780604041.0411916,21.835341900005005,22002,0.039062,-0.035645,1.049072,1.664122,2.78626,-1.053435,1.050404,3.412077,2290,4192,1902,2290,0,99.644,0,damping
1780604041.0718093,21.865959600007045,22033,0.051758,-0.022461,1.056641,1.870229,2.900763,-1.19084,1.058146,3.651066,2292,4197,1905,2292,1,99.644,15,damping
1780604041.102894,21.897044400000595,22064,0.050537,-0.020996,1.052978,2.236641,3.480916,-0.70229,1.0544,4.196731,2298,4204,1906,2298,0,104.0,1,damping
1780604041.133494,21.927644199997303,22095,0.02832,-0.003662,1.052978,1.541985,2.78626,-0.969466,1.053366,3.328787,2300,4208,1908,2300,0,104.0,1,damping
1780604041.1655943,21.959744599997066,22126,0.045654,-0.01416,1.058594,1.984733,2.541985,-1.465649,1.059672,3.542454,2302,4213,1911,2302,1,104.0,14,damping
1780604041.195363,21.989513499996974,22157,0.047363,-0.012695,1.052002,1.175572,3.312977,-1.358779,1.053144,3.768828,2309,4222,1913,2309,0,104.0,0,damping
1780604041.2274706,22.021620900006383,22188,0.034912,-0.019531,1.056885,1.572519,3.007634,-0.740458,1.057642,3.473752,2311,4226,1915,2311,0,104.0,0,damping
1780604041.2580428,22.052193099996657,22219,0.041016,-0.033691,1.05542,1.603053,3.160305,-0.954198,1.056754,3.669851,2312,4232,1920,2312,1,104.0,0,damping
1780604041.2902122,22.08436249999795,22251,0.050537,-0.013916,1.050537,1.977099,3.015267,-0.946565,1.051844,3.727834,2318,4239,1921,2318,0,104.0,0,damping
1780604041.3201382,22.11428850000084,22282,0.042969,-0.009033,1.061279,1.587786,3.19084,-0.969466,1.062187,3.69356,2320,4243,1923,2320,0,104.0,0,damping
1780604041.3526444,22.14679480000632,22313,0.03418,-0.036133,1.041992,2.458015,2.740458,-1.282443,1.043179,3.898282,2322,4250,1928,2322,1,104.0,14,damping
1780604041.3833938,22.177544100006344,22344,0.042236,-0.018311,1.05127,1.961832,2.832061,-1.244275,1.052277,3.663,2327,4257,1930,2327,0,103.571,1,damping
1780604041.4149134,22.20906370000739,22376,0.030762,-0.019531,1.050781,1.503817,2.687023,-1.061069,1.051413,3.256904,2328,4259,1931,2328,0,103.571,6,damping
1780604041.4465804,22.240730700010317,22408,0.037354,-0.011719,1.055908,1.503817,3.183206,-1.603053,1.056634,3.868339,2330,4264,1934,2330,1,103.571,14,damping
1780604041.4842005,22.278350799999316,22445,0.047607,-0.025879,1.057617,1.267176,2.946565,-1.038168,1.059004,3.371316,2337,4273,1936,2337,0,103.571,1,damping
1780604041.5146,22.308750399999553,22476,0.041016,-0.011475,1.042969,1.29771,2.923664,-0.267176,1.043838,3.209867,2339,4278,1939,2339,1,103.571,14,damping
1780604041.5458784,22.340028799997526,22507,0.032959,-0.026367,1.049316,1.938931,2.328244,-0.916031,1.050165,3.165326,2343,4283,1940,2343,0,103.571,6,damping
1780604041.5767136,22.3708639999968,22538,0.046631,-0.019287,1.064453,1.610687,3.145038,-0.931298,1.065649,3.654161,2347,4289,1942,2347,0,103.571,0,damping
1780604041.6094592,22.403609400003916,22570,0.034912,-0.023926,1.044922,1.625954,3.167939,-0.450382,1.045779,3.589207,2349,4294,1945,2349,1,103.571,14,damping
1780604041.6409833,22.435133799997857,22602,0.04126,-0.008789,1.050293,1.534351,3.099237,-1.022901,1.05114,3.606359,2355,4301,1946,2355,0,108.527,0,damping
1780604041.6716542,22.465804500010563,22633,0.043457,-0.034424,1.059814,1.198473,2.908397,-0.740458,1.061263,3.231623,2356,4303,1947,2356,0,108.527,6,damping
1780604041.7026513,22.49680160000571,22664,0.031982,-0.018311,1.041992,1.10687,3.007634,-0.641221,1.042644,3.268362,2358,4308,1950,2358,1,108.527,14,damping
1780604041.735251,22.52940120000858,22696,0.040771,-0.015381,1.051514,1.671756,3.206107,-1.282443,1.052416,3.836476,2365,4317,1952,2365,0,108.527,1,damping
1780604041.7670443,22.56119469999976,22728,0.030029,-0.010742,1.056885,1.480916,3.030534,-0.793893,1.057366,3.465186,2367,4321,1954,2367,0,108.527,0,damping
1780604041.7988389,22.592989099997794,22759,0.047852,-0.034424,1.051514,2.351145,3.007634,-1.091603,1.053165,3.970559,2368,4324,1956,2368,1,108.527,17,damping
1780604041.8299463,22.624096700004884,22790,0.053467,-0.02002,1.054443,1.908397,3.053435,-1.030534,1.055988,3.745324,2374,4331,1957,2374,0,108.527,1,damping
1780604041.8615756,22.65572599999723,22822,0.036133,-0.022705,1.052246,1.89313,2.717557,-0.916031,1.053111,3.436302,2376,4335,1959,2376,0,108.527,1,damping
1780604041.8921103,22.68626060000679,22853,0.040527,-0.018555,1.045166,1.656489,2.938931,-1.442748,1.046116,3.669168,2378,4342,1964,2378,1,91.633,14,damping
1780604041.924749,22.718899200001033,22885,0.048096,-0.012939,1.061279,1.656489,2.954198,-1.312977,1.062447,3.632513,2390,4355,1965,2390,0,91.633,0,damping
1780604041.9545736,22.748723900003824,22916,0.039307,-0.008545,1.053955,0.877863,2.305344,-0.969466,1.054722,2.650493,2392,4359,1967,2392,0,91.633,1,damping
1780604041.9864988,22.780649200009066,22947,0.052002,-0.016357,1.054443,1.847328,2.610687,-1.465649,1.055852,3.518016,2394,4364,1970,2394,1,91.633,14,damping
1780604042.0183494,22.812499799998477,22979,0.049316,-0.022949,1.049072,2.229008,3.053435,-0.946565,1.050481,3.897169,2400,4373,1973,2400,0,91.633,0,damping
1780604042.049545,22.843695400006254,23011,0.041016,-0.043213,1.049561,1.839695,2.832061,-1.022901,1.05125,3.52865,2402,4377,1975,2402,0,91.633,1,damping
1780604042.0819578,22.87610809999751,23042,0.038818,-0.013672,1.047607,2.183206,3.343511,-1.19084,1.048415,4.16696,2403,4380,1977,2403,1,91.633,17,damping
1780604042.1121852,22.906335500010755,23073,0.043701,-0.008789,1.054199,1.603053,2.877863,-1.068702,1.055141,3.463235,2408,4387,1979,2408,0,91.633,0,damping
1780604042.1430075,22.937157799999113,23104,0.032959,-0.0271,1.057129,1.290076,2.78626,-0.992366,1.05799,3.226814,2410,4391,1981,2410,0,127.49,1,damping
1780604042.1737134,22.967863800004125,23135,0.039795,-0.020752,1.051025,1.748092,2.961832,-1.145038,1.051983,3.624829,2412,4396,1984,2412,1,127.49,14,damping
1780604042.2055662,22.999716500009526,23166,0.048096,-0.016357,1.062744,1.351145,2.740458,-1.389313,1.063958,3.35647,2418,4403,1985,2418,0,127.49,0,damping
1780604042.2359004,23.030050800007302,23197,0.035645,-0.018799,1.052002,1.740458,2.671756,-0.954198,1.052774,3.328358,2420,4407,1987,2420,0,127.49,1,damping
1780604042.2664363,23.060586699997657,23228,0.035889,-0.022705,1.049561,2.015267,2.603053,-0.824427,1.050419,3.393651,2423,4414,1991,2423,1,127.49,4,damping
1780604042.2982612,23.09241140000813,23259,0.041504,-0.010254,1.056396,1.984733,2.770992,-1.160305,1.057261,3.600538,2427,4420,1993,2427,0,127.49,3,damping
1780604042.3286147,23.122765000007348,23290,0.045654,-0.029297,1.068604,1.770992,3.083969,-0.839695,1.069979,3.654089,2429,4423,1994,2429,0,127.49,6,damping
1780604042.359208,23.15335849999974,23322,0.03125,-0.030029,1.043213,1.992366,2.70229,-1.022901,1.044113,3.509732,2431,4428,1997,2431,1,127.49,14,damping
1780604042.3903427,23.184493100008694,23352,0.040527,-0.024658,1.055664,1.648855,3.068702,-0.48855,1.056729,3.517718,2435,4433,1998,2435,0,127.49,6,damping
1780604042.4293356,23.223485900001833,23383,0.043213,-0.012939,1.053467,1.358779,3.244275,-0.59542,1.054432,3.567369,2440,4441,2001,2440,0,107.527,0,damping
1780604042.45299,23.247140400009812,23414,0.047852,-0.031982,1.042725,1.40458,2.763359,-0.816794,1.044312,3.205644,2442,4445,2003,2442,0,107.527,0,damping
1780604042.4842722,23.278422700008377,23445,0.04126,-0.026855,1.055176,1.763359,2.748092,-0.70229,1.056324,3.339858,2445,4449,2004,2445,0,107.527,6,damping
1780604042.5155165,23.309666800007108,23477,0.045166,-0.010986,1.055908,2.129771,3.374046,-0.824427,1.056931,4.074284,2449,4455,2006,2449,0,107.527,0,damping
1780604042.5475256,23.34167599999637,23508,0.051758,-0.047363,1.052246,2.251908,3.366412,-0.51145,1.054582,4.082328,2451,4459,2008,2451,0,107.527,0,damping
1780604042.5782568,23.372407300004852,23539,0.046387,-0.0271,1.057617,1.885496,3.099237,-0.59542,1.058981,3.67626,2456,4465,2009,2456,0,107.527,6,damping
1780604042.6108992,23.405049599998165,23571,0.051025,-0.02124,1.064209,1.312977,3.160305,-1.053435,1.065643,3.580665,2459,4469,2010,2459,0,107.527,6,damping
1780604042.6404014,23.434551800004556,23602,0.039795,-0.038574,1.044189,1.358779,3.312977,-0.572519,1.045659,3.626276,2461,4473,2012,2461,0,107.527,0,damping
1780604042.672746,23.46689619999961,23633,0.043945,-0.02002,1.054199,1.419847,2.51145,-0.694656,1.055305,2.967473,2467,4481,2014,2467,0,108.0,5,damping
1780604042.7027693,23.496919600002002,23664,0.046387,-0.012939,1.054443,1.152672,3.152672,-0.412214,1.055542,3.381998,2471,4487,2016,2471,0,108.0,0,damping
1780604042.7334607,23.527611099998467,23695,0.042236,-0.020264,1.057861,1.450382,3.664122,-0.938931,1.058898,4.051048,2473,4491,2018,2473,0,108.0,0,damping
1780604042.7651072,23.559257600005367,23726,0.053711,-0.020996,1.049072,2.19084,3.519084,-0.526718,1.050656,4.178656,2477,4497,2020,2477,0,108.0,5,damping
1780604042.795629,23.589779400004772,23757,0.044189,-0.039062,1.061035,2.007634,3.045802,-0.824427,1.062673,3.739944,2481,4503,2022,2481,0,108.0,0,damping
1780604042.8260543,23.620204600010766,23788,0.038574,-0.009277,1.057373,2.198473,3.610687,-1.145038,1.058117,4.379664,2484,4509,2025,2484,0,108.0,0,damping
1780604042.8571885,23.651338900002884,23818,0.040039,-0.01416,1.051025,1.793893,3.229008,-1.152672,1.051883,3.869521,2487,4514,2027,2487,1,108.0,14,damping
1780604042.8878798,23.682030199997826,23849,0.050049,-0.005859,1.05127,1.59542,3.076336,-1.022901,1.052476,3.613244,2490,4519,2029,2490,0,108.0,0,damping
1780604042.9174035,23.711553800007096,23879,0.031494,-0.010254,1.056152,1.038168,2.549618,-0.717557,1.056672,2.844861,2492,4523,2031,2492,0,108.0,1,damping
1780604042.9495249,23.74367520000669,23910,0.044678,-0.024414,1.055176,1.854962,2.89313,-1.374046,1.056403,3.701228,2495,4530,2035,2495,1,101.083,2,damping
1780604042.9796827,23.773832999999286,23941,0.040283,-0.010254,1.051758,2.137405,2.480916,-1.10687,1.052579,3.456675,2501,4537,2036,2501,0,101.083,0,damping
1780604043.0122595,23.806409800003166,23973,0.038086,-0.005859,1.061035,1.709924,2.900763,-1.198473,1.061735,3.574158,2502,4539,2037,2502,0,101.083,5,damping
1780604043.0433896,23.837539800006198,24004,0.039551,-0.019775,1.052246,2.19084,2.755725,-1.335878,1.053175,3.765418,2504,4544,2040,2504,1,101.083,14,damping
1780604043.075678,23.86982849999913,24036,0.040771,-0.027344,1.052734,1.633588,2.954198,-0.916031,1.053878,3.497858,2510,4551,2041,2510,0,101.083,0,damping
1780604043.106885,23.901035200004117,24068,0.028076,-0.040283,1.048584,1.656489,2.648855,-0.992366,1.049733,3.277984,2512,4555,2043,2512,0,101.083,0,damping
1780604043.1386666,23.932817100008833,24099,0.046631,-0.017334,1.053223,1.877863,3.343511,-1.282443,1.054397,4.043525,2514,4560,2046,2514,1,101.083,14,damping
1780604043.1697261,23.96387649999815,24130,0.049072,-0.016357,1.050781,1.618321,3.351145,-1.08397,1.052054,3.876096,2518,4565,2047,2518,0,101.083,0,damping
1780604043.2014284,23.995578700007172,24162,0.041504,-0.046631,1.05249,1.648855,2.969466,-0.938931,1.05434,3.523924,2520,4569,2049,2520,0,99.206,0,damping
1780604043.2318418,24.025992199996836,24193,0.0354,-0.004883,1.052002,2.435115,3.030534,-1.450382,1.052609,4.149401,2524,4576,2052,2524,1,99.206,14,damping
1780604043.262451,24.05660140000691,24224,0.042236,-0.025391,1.058594,2.091603,2.480916,-1.259542,1.05974,3.480832,2528,4581,2053,2528,0,99.206,6,damping
1780604043.29297,24.087120299998787,24255,0.033691,-0.000977,1.054688,1.648855,2.740458,-0.793893,1.055226,3.295314,2530,4585,2055,2530,0,99.206,1,damping
1780604043.324318,24.11846840000362,24285,0.039307,-0.023193,1.054932,1.671756,2.755725,-0.961832,1.055918,3.363616,2532,4590,2058,2532,1,99.206,15,damping
1780604043.354329,24.148479399998905,24316,0.047119,-0.007324,1.051514,1.282443,2.78626,-0.931298,1.052594,3.205498,2537,4598,2061,2537,1,99.206,4,damping
1780604043.3865218,24.180672200003755,24347,0.043213,-0.035645,1.065918,0.755725,3.389313,-0.717557,1.067389,3.545906,2540,4603,2063,2540,0,99.206,0,damping
1780604043.4176257,24.211775900010252,24378,0.044922,-0.020996,1.043213,1.19084,2.80916,-0.320611,1.044391,3.067943,2541,4606,2065,2541,1,99.206,18,damping
1780604043.4488819,24.243032099999255,24410,0.034912,-0.026367,1.053711,1.862595,2.656489,-0.854962,1.054619,3.355168,2547,4613,2066,2547,0,99.206,0,damping
1780604043.4798334,24.27398379999795,24441,0.043213,-0.030518,1.055664,1.572519,3.167939,-0.816794,1.056989,3.629849,2549,4617,2068,2549,0,103.943,0,damping
1780604043.5188742,24.31302460000734,24472,0.043701,-0.019531,1.039062,1.732824,2.801527,-0.091603,1.040164,3.295394,2550,4620,2070,2550,1,103.943,17,damping
1780604043.5440319,24.338182300009066,24504,0.040039,-0.016113,1.057129,1.862595,3.022901,-1.061069,1.05801,3.705814,2556,4627,2071,2556,0,103.943,5,damping
