host_epoch_s,host_elapsed_s,time_ms,ax,ay,az,gx,gy,gz,acc_mag,gyro_mag,pulse_count,edge_count,rise_count,fall_count,state,pulse_rate_hz,last_edge_dt_ms,label
1780605210.8612638,0.008932800003094599,158,0.032715,-0.095947,1.050049,1.923664,2.938931,-0.824427,1.054931,3.607974,1,3,2,1,1,0.0,67,load
1780605210.8929586,0.04062770000018645,189,0.045166,-0.07666,1.050781,0.984733,3.076336,-0.496183,1.054542,3.267987,2,4,2,2,0,0.0,20,load
1780605210.9235492,0.07121829999960028,220,0.025879,-0.045898,1.051025,0.198473,3.053435,-0.305344,1.052345,3.075076,2,4,2,2,0,0.0,20,load
1780605210.9547505,0.1024195000063628,251,0.053223,-0.137207,1.063232,2.122137,3.633588,0.48855,1.073369,4.236166,3,6,3,3,0,11.952,17,load
1780605210.985628,0.13329690000682604,282,0.066895,0.009766,1.057373,2.114504,3.51145,0.70229,1.059532,4.15868,3,6,3,3,0,11.952,17,load
1780605211.017122,0.16479100000287872,313,0.110596,-0.168213,1.04834,2.694656,3.122137,-0.671756,1.067494,4.178537,4,8,4,4,0,11.952,12,load
1780605211.0481834,0.19585250000818633,344,0.088867,0.063477,1.050049,2.076336,3.755725,0.091603,1.055713,4.292439,4,9,5,4,1,11.952,33,load
1780605211.0799274,0.22759660000156146,376,0.107422,0.020508,1.05957,0.671756,4.21374,1.877863,1.065199,4.661892,5,10,5,5,0,11.952,11,load
1780605211.1126027,0.2602718999987701,408,0.027832,-0.026367,1.049805,2.038168,2.358779,-1.954198,1.050505,3.679247,7,13,6,7,1,11.952,19,load
1780605211.1431704,0.29083949999767356,439,0.099365,-0.033936,1.047607,1.687023,3.419847,-0.381679,1.052856,3.832373,9,16,7,9,0,11.952,6,load
1780605211.1753633,0.3230323000025237,471,0.052979,-0.03418,1.048828,1.290076,3.656489,-1.603053,1.050721,4.19571,11,20,9,11,0,11.952,0,load
1780605211.2064676,0.354136699999799,502,0.015869,-0.024902,1.04834,1.007634,1.648855,-1.068702,1.048756,2.208206,12,22,10,12,0,35.857,6,load
1780605211.2374148,0.38508390000788495,533,0.040527,0.017334,1.040039,2.717557,3.236641,-0.618321,1.040973,4.271216,17,30,13,17,0,35.857,5,load
1780605211.268632,0.4163010000047507,564,0.052002,-0.031738,1.071533,0.732824,2.610687,-1.152672,1.073264,2.946417,21,36,15,21,0,35.857,0,load
1780605211.2988424,0.4465115000057267,595,0.039307,-0.072266,1.038574,0.923664,2.763359,-1.221374,1.041827,3.159282,23,40,17,23,0,35.857,1,load
1780605211.3295243,0.4771933000010904,626,0.034668,-0.057373,1.054932,2.229008,3.48855,-1.366412,1.057059,4.359534,26,44,18,26,0,35.857,5,load
1780605211.3612745,0.5089434999972582,657,0.033203,-0.013428,1.052978,0.70229,2.656489,0.122137,1.053587,2.750466,28,48,20,28,0,35.857,0,load
1780605211.3924842,0.5401531999959843,688,0.01416,0.012695,1.043945,1.618321,3.022901,-0.648855,1.044118,3.489685,30,53,23,30,1,35.857,14,load
1780605211.422212,0.569881000003079,719,0.067871,0.001465,1.06543,2.290076,3.122137,-0.137405,1.06759,3.874412,36,62,26,36,0,35.857,0,load
1780605211.4545252,0.6021943000087049,750,0.063721,-0.031006,1.073975,1.465649,3.007634,-0.290076,1.07631,3.358293,38,66,28,38,0,35.857,0,load
1780605211.484168,0.6318371999950614,781,0.061279,-0.006592,1.043701,3.40458,3.305344,-0.625954,1.045519,4.78626,42,72,30,42,0,107.527,6,load
1780605211.514812,0.6624810000066645,811,0.035645,-0.029053,1.055176,0.877863,2.526718,-1.122137,1.056177,2.900713,44,76,32,44,0,107.527,0,load
1780605211.5461807,0.6938497999944957,842,0.062988,-0.082031,1.043213,1.114504,3.229008,-1.007634,1.048327,3.561451,46,80,34,46,0,107.527,1,load
1780605211.5763726,0.7240418000001227,873,0.053711,-0.04541,1.056641,2.305344,3.206107,-1.0,1.058979,4.07354,51,86,35,51,0,107.527,5,load
1780605211.6058478,0.7535170000046492,903,0.065674,0.004883,1.065674,0.954198,3.114504,-0.496183,1.067707,3.29497,53,90,37,53,0,107.527,6,load
1780605211.6361148,0.7837839999992866,933,0.05835,-0.079834,1.047607,2.29771,2.40458,-0.70229,1.052264,3.399218,54,93,39,54,1,107.527,18,load
1780605211.6677713,0.8154404999950202,963,0.047607,-0.061279,1.063721,2.007634,4.007634,-0.908397,1.066547,4.5735,58,98,40,58,0,107.527,5,load
1780605211.6975489,0.8452179000014439,994,0.040283,-0.036133,1.057617,0.412214,2.656489,-0.259542,1.059001,2.70078,60,102,42,60,0,107.527,0,load
1780605211.7284374,0.8761063999991165,1025,0.036377,0.000732,1.051514,1.549618,3.076336,-0.80916,1.052143,3.538347,61,105,44,61,1,107.527,17,load
1780605211.7610824,0.9087514999991981,1056,0.051025,-0.012451,1.061768,1.557252,2.954198,-0.351145,1.063066,3.35792,63,108,45,63,0,76.364,6,load
1780605211.7913697,0.9390388000028906,1087,0.044189,-0.02832,1.069336,1.59542,2.526718,-0.519084,1.070623,3.033004,66,112,46,66,0,76.364,5,load
1780605211.822357,0.9700260999961756,1118,0.029785,0.013672,1.031494,3.183206,3.89313,-0.78626,1.032015,5.089938,69,116,47,69,0,76.364,5,load
1780605211.853416,1.001085099996999,1149,0.029785,-0.029541,1.062744,0.656489,3.198473,-0.755725,1.063572,3.351467,70,118,48,70,0,76.364,6,load
1780605211.8846812,1.0323502999963239,1180,0.057373,-0.034668,1.049561,1.946565,2.450382,-0.557252,1.051699,3.178681,72,123,51,72,1,76.364,13,load
1780605211.914693,1.0623622999992222,1211,0.04126,-0.035156,1.067383,1.969466,2.320611,-1.129771,1.068758,3.2466,74,126,52,74,0,76.364,5,load
1780605211.946328,1.0939970000035828,1242,0.054199,-0.043457,1.057861,0.282443,2.442748,-0.480916,1.06014,2.505608,75,128,53,75,0,76.364,5,load
1780605211.9762514,1.123920400001225,1273,0.037109,-0.061279,1.053955,1.557252,4.038168,-1.29771,1.056387,4.518394,76,133,57,76,1,76.364,17,load
1780605212.0066257,1.1542946999979904,1303,0.05127,-0.003418,1.06665,1.78626,3.022901,-0.442748,1.067887,3.539022,81,140,59,81,0,76.364,0,load
1780605212.0551848,1.2028539000020828,1334,0.049072,-0.038818,1.06665,1.389313,2.541985,-1.068702,1.068484,3.087718,82,142,60,82,0,68.345,5,load
1780605212.068032,1.2157010000082664,1365,0.045166,0.000488,1.039307,3.183206,3.832061,-0.618321,1.040288,5.019942,85,146,61,85,0,68.345,5,load
1780605212.0996454,1.2473143999959575,1396,0.046143,-0.007813,1.056641,0.725191,2.648855,-0.435114,1.057676,2.780586,87,150,63,87,0,68.345,0,load
1780605212.131468,1.2791371000057552,1427,0.072754,-0.047363,1.057373,1.977099,2.717557,-0.312977,1.060931,3.375203,90,157,67,90,1,68.345,3,load
1780605212.1631713,1.3108404000086011,1459,0.027832,-0.006592,1.058838,1.908397,3.374046,-0.664122,1.059224,3.932839,96,164,68,96,0,68.345,1,load
1780605212.1940746,1.3417436000017915,1490,0.030273,-0.036865,1.045898,0.908397,2.740458,-0.587786,1.046986,2.946318,98,168,70,98,0,68.345,0,load
1780605212.224935,1.3726042000052985,1521,0.045166,-0.036133,1.039551,2.206107,3.946565,-1.068702,1.041159,4.645902,100,171,71,100,1,68.345,16,load
1780605212.2559366,1.4036056000040844,1552,0.042969,-0.02832,1.062012,0.916031,2.335878,-0.938931,1.063258,2.678998,103,176,73,103,0,68.345,0,load
1780605212.2870777,1.4347468000050867,1583,0.042236,-0.047119,1.044189,1.48855,2.839695,-1.366412,1.046105,3.485216,105,180,75,105,0,68.345,1,load
1780605212.3182511,1.4659203000046546,1614,0.043701,-0.065186,1.063232,2.206107,3.061069,-0.931298,1.066125,3.886433,111,188,77,111,0,103.571,5,load
1780605212.3504252,1.498094399998081,1646,0.047119,-0.0354,1.052246,0.763359,2.480916,-0.29771,1.053895,2.612717,112,190,78,112,0,103.571,5,load
1780605212.381264,1.528933000008692,1677,0.067871,-0.061523,1.05835,2.015267,3.458015,-1.061069,1.062307,4.140656,113,193,80,113,1,103.571,17,load
1780605212.4122453,1.5599142999999458,1708,0.045654,-0.028809,1.06543,1.007634,2.78626,-0.366412,1.066796,2.985436,117,198,81,117,0,103.571,5,load
1780605212.4446058,1.5922749000019394,1740,0.039307,-0.054688,1.045654,1.10687,3.541985,-1.129771,1.047821,3.879072,118,200,82,118,0,103.571,5,load
1780605212.4755247,1.6231936999975005,1771,0.041992,-0.038086,1.05957,1.793893,3.091603,-0.603053,1.061086,3.624877,121,204,83,121,0,103.571,6,load
1780605212.5061898,1.6538587999966694,1802,0.067383,-0.025635,1.061279,0.862595,3.183206,-0.328244,1.063725,3.314305,125,210,85,125,0,103.571,0,load
1780605212.537037,1.6847058999992441,1833,0.0271,-0.000732,1.050293,2.007634,2.572519,-0.885496,1.050643,3.381206,127,215,88,127,1,103.571,14,load
1780605212.567514,1.7151830000075279,1864,0.040771,-0.013916,1.05835,1.603053,2.587786,-0.732824,1.059226,3.131046,131,220,89,131,0,80.0,0,load
1780605212.5987206,1.746389599997201,1895,0.049805,-0.032715,1.058106,1.625954,3.160305,-0.870229,1.059782,3.659037,132,222,90,132,0,80.0,5,load
1780605212.6300263,1.7776952999993227,1926,0.027344,-0.037842,1.042236,2.633588,3.832061,-0.70229,1.043281,4.70252,135,227,92,135,0,80.0,14,load
1780605212.6615849,1.809253900006297,1957,0.037354,-0.033203,1.062988,0.21374,2.625954,-0.839695,1.064162,2.765214,139,232,93,139,0,80.0,5,load
1780605212.69241,1.8400791000021854,1988,0.061768,-0.063477,1.044922,0.954198,2.916031,-0.755725,1.048669,3.159881,141,236,95,141,0,80.0,0,load
1780605212.72261,1.8702790999959689,2019,0.05249,-0.052002,1.055908,1.610687,3.21374,-1.022901,1.05849,3.737481,146,242,96,146,0,80.0,5,load
1780605212.7541788,1.9018479000078514,2050,0.067871,-0.016602,1.069336,0.671756,2.908397,-0.267176,1.071616,2.9969,150,248,98,150,0,80.0,1,load
1780605212.785091,1.9327598999952897,2081,0.041016,-0.045898,1.04248,2.10687,3.183206,-0.938931,1.044296,3.931068,151,251,100,151,1,80.0,17,load
1780605212.8151436,1.9628126000025077,2112,0.025635,0.011475,1.053955,1.740458,2.496183,-0.778626,1.054329,3.14108,155,256,101,155,0,80.0,5,load
1780605212.8470566,1.9947256000014022,2142,0.053955,-0.043213,1.063232,1.022901,2.290076,-0.648855,1.065477,2.590712,156,258,102,156,0,89.928,5,load
1780605212.8780026,2.0256718000018736,2174,0.070801,-0.000732,1.046143,3.145038,3.984733,-0.89313,1.048536,5.154322,161,266,105,161,0,89.928,6,load
1780605212.908802,2.056471000003512,2205,0.031982,-0.032715,1.064697,1.152672,2.480916,-0.251908,1.06568,2.74719,162,268,106,162,0,89.928,5,load
1780605212.9403892,2.08805819999543,2236,0.053955,-0.048584,1.046631,1.503817,3.0,-0.21374,1.049146,3.36261,164,273,109,164,1,89.928,14,load
1780605212.9696214,2.117290599999251,2267,0.045898,-0.048096,1.056641,2.412214,2.832061,-1.137405,1.05873,3.89012,166,276,110,166,0,89.928,6,load
1780605213.0010216,2.1486908000078984,2297,0.026611,0.001221,1.064941,0.335878,2.916031,-0.099237,1.065275,2.936988,167,278,111,167,0,89.928,5,load
1780605213.0314703,2.179139400002896,2328,0.0354,0.001465,1.039062,2.038168,2.847328,-0.221374,1.039666,3.50862,170,285,115,170,1,89.928,3,load
1780605213.0631933,2.210862299994915,2359,0.047119,-0.004639,1.059082,3.236641,3.770992,-0.21374,1.06014,4.974124,172,288,116,172,0,89.928,5,load
1780605213.0946255,2.242294600000605,2390,0.049561,-0.032471,1.062012,1.251908,2.679389,-0.099237,1.063663,2.959096,173,290,117,173,0,89.928,5,load
1780605213.1263323,2.2740013000002364,2421,0.05542,-0.051758,1.060791,1.10687,1.801527,-1.816794,1.063498,2.787723,174,293,119,174,1,64.516,17,load
1780605213.177165,2.3248342000006232,2453,0.042725,-0.024414,1.048584,1.152672,2.801527,-0.48855,1.049738,3.068532,179,300,121,179,0,64.516,1,load
1780605213.18822,2.335888999994495,2484,0.070068,-0.063965,1.036133,1.145038,3.984733,-0.916031,1.040467,4.245977,180,302,122,180,0,64.516,5,load
1780605213.2197747,2.3674437000008766,2516,0.030029,-0.009033,1.049316,2.59542,3.381679,-0.961832,1.049785,4.37002,184,308,124,184,0,64.516,6,load
1780605213.2501721,2.3978413000004366,2546,0.031494,-0.006592,1.054443,1.480916,2.603053,-1.053435,1.054934,3.1747,185,310,125,185,0,64.516,5,load
1780605213.2819254,2.4295946000056574,2577,0.025635,-0.028564,1.047852,1.419847,1.954198,0.152672,1.048554,2.420365,186,313,127,186,1,64.516,18,load
1780605213.313315,2.4609841000055894,2609,0.055176,-0.02124,1.05249,1.473282,2.564885,-0.839695,1.05415,3.074782,190,318,128,190,0,64.516,5,load
1780605213.345173,2.4928419000061695,2641,0.018311,-0.000732,1.028809,0.870229,3.877863,-0.625954,1.028972,4.023299,191,320,129,191,0,64.516,5,load
1780605213.3765976,2.5242666999984067,2672,0.046631,-0.027588,1.053711,2.465649,3.48855,-0.671756,1.055103,4.324426,192,323,131,192,1,71.713,18,load
1780605213.408188,2.5558573000016622,2704,0.054688,-0.006836,1.038574,1.137405,4.450382,0.045802,1.040036,4.593657,194,326,132,194,0,71.713,5,load
1780605213.4394178,2.5870869000063976,2735,0.040039,-0.0271,1.044434,0.816794,4.229008,0.412214,1.045552,4.326844,195,328,133,195,0,71.713,6,load
1780605213.4704905,2.618159599995124,2766,0.047119,-0.036377,1.083496,1.183206,2.091603,-1.305344,1.08513,2.734722,196,331,135,196,1,71.713,19,load
1780605213.5010695,2.6487387000088347,2797,0.030518,-0.050049,1.05957,2.29771,1.992366,-2.748092,1.061191,4.098902,198,334,136,198,0,71.713,6,load
1780605213.5328019,2.6804709999996703,2828,0.06543,-0.044922,1.043213,1.839695,3.664122,-1.206107,1.046228,4.273752,199,336,137,199,0,71.713,6,load
1780605213.5639162,2.711585400000331,2859,0.058594,-0.022217,1.053711,1.541985,4.267176,0.129771,1.055573,4.53909,200,338,138,200,0,71.713,6,load
1780605213.594825,2.742494000005536,2890,0.047119,-0.036621,1.038574,1.251908,3.015267,-0.320611,1.040287,3.280534,201,342,141,201,0,71.713,5,load
1780605213.625982,2.7736510999966413,2921,0.100586,-0.065674,1.03418,1.763359,4.862596,0.312977,1.041133,5.181914,202,344,142,202,0,71.713,3,load
1780605213.657741,2.8054102000023704,2952,0.069092,-0.053467,1.042725,1.580153,3.473282,0.908397,1.046378,3.922468,203,346,143,203,0,39.286,1,load
1780605213.6884966,2.836165600005188,2984,0.052979,-0.064941,1.053467,1.320611,3.053435,-0.045802,1.056795,3.327098,205,349,144,205,1,39.286,21,load
1780605213.720548,2.868216899994877,3016,0.062256,-0.073486,1.049805,1.961832,4.21374,0.351145,1.054213,4.661298,206,351,145,206,1,39.286,21,load
1780605213.7543523,2.9020214000047417,3048,0.04834,-0.087402,1.075928,0.946565,2.664122,-1.206107,1.080554,3.073797,207,353,146,207,1,39.286,22,load
1780605213.7844307,2.932099900004687,3080,0.058105,-0.100586,1.044434,0.748092,3.435115,0.29771,1.050874,3.528213,208,354,146,208,0,39.286,10,load
1780605213.816474,2.9641430000046967,3112,0.03418,-0.046143,1.041016,2.885496,3.687023,-0.282443,1.042598,4.690416,209,356,147,209,0,39.286,1,load
1780605213.8472457,2.9949148000014247,3143,0.031738,0.075684,1.059082,3.160305,2.770992,-1.351145,1.062257,4.41492,210,358,148,210,0,39.286,9,load
1780605213.8788743,3.0265433000022313,3174,0.04248,0.200195,1.059326,2.229008,2.778626,-0.931298,1.078914,3.681922,210,359,149,210,1,39.286,34,load
1780605213.9104443,3.0581133000086993,3205,0.034668,0.071533,1.071533,2.946565,2.78626,-1.175572,1.074478,4.222258,211,360,149,211,0,31.621,19,load
1780605213.9403658,3.088034800006426,3236,0.056641,-0.028076,1.047607,0.068702,2.732824,-0.549618,1.049513,2.788392,211,361,150,211,1,31.621,38,load
1780605213.971357,3.119026100001065,3267,0.035889,0.139404,1.064453,3.320611,2.419847,-0.793893,1.074142,4.18478,212,362,150,212,0,31.621,23,load
1780605214.0029128,3.1505818000005092,3298,0.045654,0.072754,1.062744,0.572519,2.335878,-0.29771,1.066209,2.423372,212,362,150,212,0,31.621,23,load
1780605214.0327153,3.1803843999950914,3329,0.043213,-0.091553,1.043945,-0.80916,2.954198,-1.687023,1.048843,3.496866,212,363,151,212,1,31.621,70,load
1780605214.0649185,3.212587500005611,3360,0.039795,-0.015137,1.069092,-0.396947,2.770992,-0.931298,1.069939,2.950132,212,363,151,212,1,31.621,70,load
1780605214.096381,3.2440500000084285,3392,0.044434,-0.026123,1.058106,1.885496,2.717557,-0.435114,1.05936,3.336096,213,364,151,213,0,31.621,55,load
1780605214.1277733,3.2754424000013387,3423,0.062012,-0.145264,1.032471,3.030534,4.435114,-0.274809,1.044482,5.378652,213,364,151,213,0,31.621,55,load
1780605214.1581109,3.3057799999951385,3454,0.042969,-0.003174,1.062256,0.282443,2.847328,-1.022901,1.063129,3.038648,213,364,151,213,0,31.621,55,load
1780605214.1892,3.3368689000053564,3485,0.042725,-0.030273,1.045166,0.969466,2.633588,-0.687023,1.046477,2.88923,213,364,151,213,0,7.143,55,load
1780605214.2200093,3.367678299997351,3516,0.047607,-0.015381,1.064453,-0.755725,2.908397,-0.335878,1.065628,3.023691,213,364,151,213,0,7.143,55,load
1780605214.2505324,3.398201500007417,3547,0.040527,-0.03125,1.065918,-0.312977,2.89313,-1.312977,1.067146,3.192501,213,364,151,213,0,7.143,55,load
1780605214.2807438,3.4284127999999328,3577,0.037354,-0.009277,1.064453,-0.259542,2.618321,-1.954198,1.065149,3.277477,213,367,154,213,1,7.143,0,load
1780605214.3121297,3.4597989000030793,3608,0.043457,-0.009277,1.058106,-1.076336,2.358779,-0.839695,1.059038,2.72533,214,368,154,214,0,7.143,35,load
1780605214.3438091,3.491478099997039,3639,0.044434,0.050293,1.075195,3.389313,2.10687,-0.465649,1.077288,4.017856,214,368,154,214,0,7.143,35,load
1780605214.3746128,3.5222820000053616,3671,0.043213,0.005371,1.058838,0.114504,2.89313,-1.358779,1.059733,3.198373,214,368,154,214,0,7.143,35,load
1780605214.406196,3.553865299996687,3702,0.046143,0.008057,1.040283,3.801527,3.80916,0.267176,1.041337,5.3882,214,368,154,214,0,7.143,35,load
1780605214.4367278,3.584396899997955,3733,0.047607,0.019531,1.072998,2.977099,2.175573,-0.442748,1.074231,3.713793,214,369,155,214,1,7.143,120,load
1780605214.468597,3.616266099998029,3764,0.039062,0.050293,1.050781,-0.290076,2.671756,-1.320611,1.052709,2.994401,215,370,155,215,0,7.168,31,load
1780605214.5002522,3.647921399999177,3795,0.036621,0.08252,1.053711,0.885496,2.770992,-0.625954,1.057571,2.975621,215,370,155,215,0,7.168,31,load
1780605214.5313673,3.679036300003645,3827,0.05542,-0.11377,1.053467,1.770992,3.274809,-0.267176,1.06104,3.732582,215,370,155,215,0,7.168,31,load
1780605214.5629983,3.710667300008936,3858,0.045898,-0.022461,1.056152,0.725191,3.19084,-1.328244,1.057388,3.531514,216,372,156,216,0,7.168,18,load
1780605214.593121,3.7407901999977184,3889,0.037354,-0.047363,1.0625,2.496183,2.305344,-1.503817,1.064211,3.715778,216,372,156,216,0,7.168,18,load
1780605214.6249568,3.7726260000054026,3920,0.040527,0.062012,1.054932,1.740458,2.496183,-0.366412,1.057529,3.065026,216,372,156,216,0,7.168,18,load
1780605214.6551096,3.8027787000028184,3951,0.049561,-0.080566,1.060059,0.358779,3.51145,-0.557252,1.06427,3.573449,216,373,157,216,1,7.168,78,load
1780605214.6855166,3.833185700001195,3982,0.055908,0.003906,1.046387,1.19084,3.29771,-1.076336,1.047886,3.667627,217,374,157,217,0,7.168,27,load
1780605214.716648,3.864317100000335,4012,0.054932,-0.036377,1.057617,0.29771,3.519084,-0.396947,1.059667,3.553892,217,374,157,217,0,7.168,27,load
1780605214.7470667,3.894735900001251,4043,0.056885,-0.078369,1.063232,0.389313,3.412214,-0.198473,1.067633,3.440081,217,375,158,217,1,7.168,67,load
1780605214.778038,3.92570710000291,4074,0.063721,-0.026123,1.056641,0.366412,3.587786,-0.89313,1.058882,3.715394,218,376,158,218,0,7.168,25,load
1780605214.8097746,3.9574437999981456,4105,0.059326,-0.053467,1.053955,0.076336,3.358779,-0.381679,1.056977,3.381257,218,376,158,218,0,7.168,25,load
1780605214.8408382,3.9885073000041302,4136,0.041992,-0.097412,1.058838,0.152672,3.557252,-0.78626,1.064138,3.646307,218,377,159,218,1,7.168,67,load
1780605214.8713596,4.019028599999729,4167,0.047607,-0.12085,1.044922,2.312977,2.580153,-0.725191,1.052964,3.540191,219,378,159,219,0,7.168,27,load
1780605214.902464,4.050132999997004,4199,0.037842,-0.061768,1.062012,1.465649,3.29771,0.045802,1.064479,3.609033,219,378,159,219,0,7.168,27,load
1780605214.9343889,4.082057999999961,4230,0.031982,0.016113,1.069092,2.801527,2.778626,-0.885496,1.069691,4.043936,219,379,160,219,1,7.168,71,load
1780605214.9645526,4.112221799994586,4261,0.052246,-0.078857,1.061279,-0.259542,3.19084,-1.29771,1.065487,3.454399,220,380,160,220,0,7.168,23,load
1780605214.9970248,4.144693800000823,4292,0.05957,-0.135742,1.044434,2.10687,3.206107,0.526718,1.054901,3.872396,220,380,160,220,0,7.168,23,load
1780605215.0284524,4.1761215000005905,4323,0.023682,-0.187988,1.04834,1.129771,2.442748,-1.633588,1.065325,3.148334,220,381,161,220,1,10.714,76,load
1780605215.068758,4.216427100007422,4354,0.052002,-0.108398,1.043457,1.328244,2.816794,-0.503817,1.05036,3.154741,221,382,161,221,0,10.714,22,load
1780605215.0890493,4.236718300002394,4385,0.052002,-0.010742,1.055176,1.267176,2.984733,-0.435114,1.056511,3.271649,221,382,161,221,0,10.714,22,load
1780605215.1206117,4.268280799995409,4416,0.056152,-0.110596,1.033203,0.312977,3.351145,-0.122137,1.040622,3.367944,221,383,162,221,1,10.714,64,load
1780605215.1530364,4.300705500005279,4448,0.046387,-0.160645,1.050781,-0.351145,3.083969,-1.679389,1.064002,3.529096,222,384,162,222,0,10.714,24,load
1780605215.1833007,4.330969800008461,4479,0.034424,-0.145508,1.065186,0.656489,2.473282,-2.312977,1.075629,3.449343,223,386,163,223,0,10.714,11,load
1780605215.2150877,4.362756700007594,4510,0.052246,0.063965,1.047119,1.587786,3.045802,-0.961832,1.050371,3.566945,223,387,164,223,1,10.714,33,load
1780605215.2475579,4.395226900000125,4542,0.056396,-0.030762,1.061035,-0.030534,2.862595,0.519084,1.062978,2.909439,224,389,165,224,1,10.714,22,load
1780605215.277768,4.425436999998055,4573,0.063721,-0.037842,1.072998,0.122137,2.244275,-0.89313,1.075554,2.418547,225,391,166,225,1,20.0,20,load
1780605215.3098066,4.457475700008217,4604,0.058105,-0.065674,1.041504,1.587786,2.961832,-1.854962,1.045189,3.838541,227,394,167,227,0,20.0,6,load
1780605215.33867,4.486339099996258,4635,0.029297,-0.035889,1.025879,1.572519,2.519084,-2.030534,1.026924,3.597453,228,396,168,228,0,20.0,6,load
1780605215.369997,4.5176659999997355,4666,0.04126,-0.005615,1.062256,1.114504,2.801527,-0.755725,1.063072,3.108342,231,402,171,231,0,20.0,1,load
1780605215.4018512,4.549520200002007,4697,0.053467,-0.041992,1.072998,1.48855,2.51145,-1.709924,1.07515,3.383342,232,405,173,232,1,20.0,17,load
1780605215.4318902,4.579559300007531,4728,0.051514,-0.006348,1.05249,2.435115,3.839695,-0.427481,1.053769,4.566812,236,410,174,236,0,20.0,5,load
1780605215.4635844,4.611253399998532,4759,0.042725,-0.037598,1.049072,1.412214,2.389313,-0.839695,1.050615,2.899698,238,414,176,238,0,20.0,0,load
1780605215.4938076,4.64147669999511,4790,0.0625,-0.052734,1.056885,2.366412,3.320611,-0.687023,1.060044,4.135016,242,420,178,242,0,20.0,6,load
1780605215.5254977,4.673166699998546,4821,0.042725,-0.043213,1.068604,0.938931,2.908397,-0.732824,1.07033,3.142832,247,428,181,247,0,20.0,0,load
1780605215.557082,4.704750999997486,4852,0.0354,-0.046143,1.030273,1.381679,2.755725,-0.648855,1.031914,3.15025,249,433,184,249,1,86.022,14,load
1780605215.5882876,4.735956699994858,4884,0.043213,-0.030762,1.063965,2.038168,2.70229,-0.473282,1.065286,3.417674,254,440,186,254,0,86.022,0,load
1780605215.619639,4.7673079000087455,4915,0.045898,-0.049072,1.052246,1.015267,2.167939,-1.030534,1.054389,2.606286,255,442,187,255,0,86.022,6,load
1780605215.6506507,4.798319800000172,4946,0.042969,-0.048828,1.044189,2.183206,3.80916,-0.954198,1.046213,4.492948,258,447,189,258,1,86.022,14,load
1780605215.68165,4.829318899995997,4977,0.034424,-0.020752,1.067383,0.465649,2.938931,-0.419847,1.068139,3.005065,263,454,191,263,0,86.022,0,load
1780605215.7121124,4.859781499995734,5008,0.0625,-0.068848,1.041992,1.709924,2.916031,-0.824427,1.046133,3.479476,266,461,195,266,1,86.022,3,load
1780605215.7440388,4.891707899994799,5039,0.023682,-0.046387,1.057129,1.870229,2.992366,-0.847328,1.058411,3.629046,270,467,197,270,0,86.022,3,load
1780605215.7749934,4.922662600001786,5070,0.040039,-0.018555,1.04834,0.89313,2.618321,-0.419847,1.049268,2.798134,273,472,199,273,0,86.022,0,load
1780605215.8061955,4.953864600000088,5101,0.043213,-0.039062,1.050537,2.167939,2.824427,-1.396947,1.052151,3.824762,274,475,201,274,1,86.022,17,load
1780605215.836938,4.984607000005781,5132,0.055176,-0.027588,1.056152,1.045802,2.358779,-1.015267,1.057952,2.77278,277,480,203,277,0,100.0,0,load
1780605215.8667183,5.014387400005944,5163,0.040283,-0.03125,1.050537,1.328244,3.282443,-1.160305,1.051773,3.726254,279,484,205,279,0,100.0,1,load
1780605215.8980653,5.045734300001641,5193,0.04834,0.019287,1.038574,2.580153,3.671756,-0.900763,1.039877,4.577156,284,492,208,284,0,100.0,5,load
1780605215.9285932,5.0762623000046005,5225,0.034668,0.001465,1.060303,0.541985,3.114504,-0.259542,1.06087,3.171946,288,498,210,288,0,100.0,0,load
1780605215.9611077,5.108776699998998,5256,0.045166,0.0,1.054443,2.198473,2.526718,-0.648855,1.05541,3.411539,290,503,213,290,1,100.0,14,load
1780605215.992213,5.139882200004649,5287,0.048096,-0.017334,1.073242,2.137405,2.038168,-0.78626,1.074459,3.056278,294,508,214,294,0,100.0,6,load
1780605216.0232632,5.170932399996673,5318,0.052246,-0.035889,1.062256,1.480916,2.236641,-0.587786,1.064145,2.746119,296,512,216,296,0,100.0,1,load
1780605216.053148,5.200817100005224,5349,0.050781,-0.039307,1.046143,2.671756,3.78626,-1.007634,1.048112,4.742295,299,517,218,299,1,100.0,13,load
1780605216.0854096,5.233078599994769,5380,0.046387,-0.02124,1.062012,0.793893,2.984733,-0.656489,1.063236,3.15751,304,524,220,304,0,100.0,0,load
1780605216.1157522,5.263421299998299,5411,0.060303,-0.042236,1.039795,1.763359,2.862595,-0.496183,1.042398,3.398542,306,531,225,306,1,103.943,14,load
1780605216.1482768,5.295945899997605,5444,0.032715,-0.018311,1.066894,2.167939,2.480916,-0.656489,1.067553,3.359446,313,540,227,313,0,103.943,0,load
1780605216.1803644,5.328033400001004,5475,0.042236,-0.037598,1.067627,1.221374,2.755725,-0.992366,1.069123,3.173416,314,542,228,314,0,103.943,6,load
1780605216.211432,5.359101099995314,5506,0.041992,0.015869,1.037354,3.160305,3.70229,-1.030534,1.038324,4.975588,318,548,230,318,0,103.943,6,load
1780605216.247631,5.395300200005295,5537,0.033691,-0.027832,1.055176,0.824427,3.076336,-0.152672,1.05608,3.188547,321,552,231,321,0,103.943,5,load
1780605216.279381,5.42705019999994,5574,0.050781,0.024658,1.045654,2.198473,3.984733,-0.625954,1.047177,4.593822,326,560,234,326,0,103.943,5,load
1780605216.310115,5.457784199999878,5605,0.046143,-0.006348,1.063477,1.282443,3.229008,-0.442748,1.064496,3.502453,330,566,236,330,0,103.943,1,load
1780605216.3420734,5.489742400008254,5636,0.028564,-0.015869,1.040772,2.374046,2.450382,-0.755725,1.041284,3.494508,332,571,239,332,1,103.943,14,load
1780605216.3734183,5.521087500004796,5668,0.045654,-0.025635,1.070557,2.038168,2.847328,-1.015267,1.071836,3.645843,334,574,240,334,0,108.949,6,load
1780605216.404366,5.552035200002138,5699,0.048828,-0.041504,1.067627,1.343511,2.59542,-0.465649,1.069548,2.959401,336,578,242,336,0,108.949,0,load
1780605216.4343026,5.581971699997666,5730,0.046143,-0.011475,1.053223,2.083969,3.374046,-1.145038,1.054295,4.127738,338,581,243,338,1,108.949,17,load
1780605216.464017,5.61168610000459,5761,0.03125,-0.018555,1.053955,0.839695,2.763359,-1.0,1.054582,3.056344,341,586,245,341,0,108.949,6,load
1780605216.4956007,5.643269799998961,5791,0.031738,-0.022461,1.065918,1.633588,2.465649,-1.335878,1.066627,3.245397,343,590,247,343,0,108.949,0,load
1780605216.5264862,5.674155200002133,5822,0.077393,0.005127,1.053955,2.549618,3.618321,-0.908397,1.056805,4.518626,347,596,249,347,0,108.949,5,load
1780605216.556776,5.704445099996519,5853,0.075195,-0.000244,1.058106,0.908397,4.061068,-0.305344,1.060774,4.172612,349,600,251,349,0,108.949,0,load
1780605216.5884988,5.73616800000309,5884,0.015869,-0.01416,1.052002,2.19084,1.832061,-0.496183,1.052217,2.898694,351,605,254,351,1,108.949,14,load
1780605216.6194615,5.7671306999982335,5915,0.039795,-0.033936,1.061035,1.900763,2.358779,-0.89313,1.062323,3.15823,355,610,255,355,0,108.949,5,load
1780605216.6517835,5.799452499995823,5947,0.068359,-0.035645,1.057861,1.450382,3.473282,-0.969466,1.060667,3.886793,358,614,256,358,0,86.022,5,load
1780605216.6830091,5.830678199999966,5978,0.046631,-0.016113,1.050537,2.458015,2.709924,-1.40458,1.051695,3.918976,361,619,258,361,1,86.022,14,load
1780605216.7130637,5.860732900007861,6009,0.047852,-0.012451,1.04834,1.29771,2.770992,-1.19084,1.049505,3.283374,365,624,259,365,0,86.022,5,load
1780605216.7441974,5.891866400008439,6040,0.071533,-0.040039,1.051514,0.832061,3.236641,-0.671756,1.054704,3.408728,367,628,261,367,0,86.022,1,load
1780605216.7750685,5.92273770000611,6071,0.050781,-0.041504,1.042236,2.290076,3.992366,0.572519,1.044298,4.638018,370,632,262,370,0,86.022,6,load
1780605216.8053966,5.9530655999988085,6102,0.054443,-0.020264,1.063477,0.748092,3.320611,-0.29771,1.065062,3.41683,372,636,264,372,0,86.022,0,load
1780605216.8384507,5.986119799999869,6133,0.018555,-0.019531,1.059082,2.030534,2.343511,-0.564886,1.059425,3.151858,373,641,268,373,1,86.022,17,load
1780605216.8690388,6.01670799999556,6164,0.049561,-0.03125,1.068115,2.061069,2.709924,-0.099237,1.069721,3.406103,377,646,269,377,0,86.022,0,load
1780605216.899823,6.047491999997874,6195,0.057373,-0.040039,1.054199,0.748092,3.145038,-0.21374,1.056518,3.239844,378,648,270,378,0,86.022,6,load
1780605216.9307768,6.078445799998008,6226,0.045166,-0.043945,1.054932,1.641221,3.167939,-1.053435,1.056812,3.720104,380,651,271,380,1,78.853,17,load
1780605216.9616852,6.109354300002451,6257,0.055664,-0.029053,1.055664,1.244275,2.541985,-0.847328,1.05753,2.954297,383,656,273,383,0,78.853,0,load
1780605216.9920845,6.139753600000404,6288,0.042969,-0.029297,1.052246,2.114504,3.557252,-0.519084,1.05353,4.170686,386,662,276,386,0,78.853,0,load
1780605217.023888,6.1715570999949705,6319,0.070801,-0.019531,1.045898,2.015267,3.816794,-1.129771,1.048474,4.46157,389,666,277,389,0,78.853,6,load
1780605217.0538585,6.201527600002009,6350,0.063477,-0.01001,1.066894,0.854962,3.625954,-0.648855,1.068828,3.78147,390,668,278,390,0,78.853,5,load
1780605217.0854712,6.233140199998161,6381,0.071045,-0.055908,1.057129,1.900763,2.824427,0.183206,1.060988,3.409378,392,673,281,392,1,78.853,13,load
1780605217.1160083,6.263677399998414,6412,0.04248,-0.059814,1.05957,1.961832,2.740458,-0.648855,1.062107,3.432187,396,678,282,396,0,78.853,5,load
1780605217.1477444,6.295413400002872,6443,0.055176,-0.015137,1.047363,1.221374,3.267176,-0.618321,1.048925,3.542388,398,682,284,398,0,78.853,0,load
1780605217.1787958,6.326465000005555,6474,0.045654,-0.024414,1.072266,1.59542,2.358779,-1.40458,1.073515,3.175224,400,689,289,400,1,78.853,14,load
1780605217.210837,6.358506000004127,6506,0.010986,-0.023438,1.057617,2.145038,2.664122,-1.030534,1.057934,3.572217,405,696,291,405,0,89.286,1,load
1780605217.2422013,6.38987040000211,6537,0.036377,-0.022705,1.05249,1.740458,2.954198,-1.419847,1.053363,3.711125,406,698,292,406,0,89.286,5,load
1780605217.2724261,6.420095299996319,6568,0.032715,0.013428,1.036621,2.076336,2.610687,-0.916031,1.037224,3.459186,409,702,293,409,0,89.286,6,load
1780605217.3039057,6.451574899998377,6599,0.027344,-0.01416,1.050781,1.763359,2.664122,-0.59542,1.051232,3.249847,410,704,294,410,0,89.286,5,load
1780605217.3342793,6.481948300002841,6630,0.057129,-0.063477,1.046387,1.740458,2.923664,-0.152672,1.049866,3.405923,412,710,298,412,0,89.286,0,load
1780605217.3661852,6.513854200005881,6661,0.037598,-0.029541,1.039551,2.099237,3.618321,-0.832061,1.04065,4.265134,415,714,299,415,0,89.286,5,load
1780605217.396054,6.543722999995225,6692,0.030518,-0.004395,1.058838,0.366412,3.312977,0.198473,1.059287,3.339082,420,720,300,420,0,89.286,5,load
1780605217.4277384,6.575407399999676,6723,0.016602,-0.011963,1.051514,2.114504,2.312977,-0.48855,1.051713,3.171698,421,723,302,421,1,89.286,18,load
1780605217.459419,6.607088000004296,6755,0.067627,-0.038086,1.063965,1.885496,2.847328,-1.564886,1.066792,3.756493,425,728,303,425,0,89.286,5,load
1780605217.4907317,6.638400900003035,6786,0.013916,-0.019531,1.057373,1.755725,2.580153,0.099237,1.057645,3.122436,427,732,305,427,0,78.571,5,load
1780605217.5214846,6.669153599999845,6817,0.054932,-0.041748,1.074219,0.885496,2.305344,-0.328244,1.076432,2.491276,428,735,307,428,1,78.571,18,load
1780605217.5530376,6.700706700008595,6848,0.062256,-0.006348,1.038574,2.435115,3.89313,-0.374046,1.040458,4.607185,436,744,308,436,0,78.571,0,load
1780605217.5839326,6.7316016999975545,6879,0.02417,-0.025391,1.055176,0.954198,1.557252,-1.412214,1.055758,2.308652,437,746,309,437,0,78.571,6,load
1780605217.6149995,6.762668700001086,6910,0.054199,-0.047852,1.046631,0.832061,4.038168,0.328244,1.049125,4.136046,438,749,311,438,1,78.571,18,load
1780605217.645717,6.79338600000483,6941,0.025146,-0.032959,1.057373,1.099237,1.91603,-0.412214,1.058185,2.24709,440,752,312,440,0,78.571,6,load
1780605217.6768148,6.824483799995505,6972,0.02417,-0.053955,1.060059,0.816794,1.587786,-1.053435,1.061706,2.073148,442,756,314,442,0,78.571,0,load
1780605217.707265,6.854934000002686,7003,0.040771,-0.046143,1.051025,1.358779,2.694656,-0.381679,1.052828,3.041896,443,759,316,443,1,78.571,17,load
1780605217.7385256,6.8861946999968495,7034,0.052246,-0.026367,1.059082,1.274809,2.549618,-0.496183,1.060698,2.893422,447,764,317,447,0,78.571,6,load
1780605217.7700624,6.917731499997899,7065,0.042725,-0.040039,1.062256,1.755725,2.603053,-1.229008,1.063868,3.371782,449,768,319,449,0,78.853,0,load
1780605217.8000546,6.947723599994788,7096,0.056396,-0.025879,1.054932,2.0,3.19084,-0.908397,1.056755,3.873841,453,773,320,453,1,78.853,16,load
1780605217.8325024,6.980171400005929,7127,0.054199,-0.041504,1.058838,0.435114,1.648855,-1.282443,1.061036,2.133707,456,778,322,456,0,78.853,1,load
1780605217.8634176,7.011086700003943,7159,0.038574,-0.059326,1.042236,1.259542,2.916031,-0.694656,1.044636,3.251496,457,780,323,457,0,78.853,5,load
1780605217.8949442,7.042613199999323,7190,0.044189,-0.055176,1.043945,1.496183,3.152672,-0.396947,1.046336,3.512189,462,786,324,462,0,78.853,6,load
1780605217.9254181,7.073087199998554,7221,0.026855,-0.016602,1.056396,0.473282,3.267176,-1.068702,1.056868,3.469951,466,792,326,466,0,78.853,0,load
1780605217.9566665,7.104335600000923,7252,0.050781,-0.023682,1.032471,1.725191,2.519084,-0.40458,1.03399,3.079895,467,797,330,467,1,78.853,17,load
1780605217.9871674,7.134836400000495,7283,0.047119,-0.050293,1.051758,2.755725,3.282443,-0.648855,1.054013,4.334682,471,802,331,471,0,78.853,6,load
1780605218.018326,7.165995200004545,7314,0.059326,-0.014893,1.057373,1.21374,4.778626,0.038168,1.059141,4.930506,473,806,333,473,0,78.853,0,load
1780605218.0487597,7.196428700000979,7345,0.03833,-0.021973,1.038086,1.351145,2.59542,-0.015267,1.039026,2.926094,475,811,336,475,1,92.857,15,load
1780605218.0807068,7.228375999999116,7376,0.072998,-0.071045,1.056885,2.320611,2.839695,-0.740458,1.061782,3.741307,480,818,338,480,0,92.857,6,load
1780605218.1154115,7.263080699995044,7407,0.055664,-0.038086,1.039062,1.954198,4.152672,-1.603053,1.041249,4.861415,481,820,339,481,0,92.857,5,load
1780605218.1433053,7.290974300005473,7438,0.040527,-0.041016,1.058106,1.564886,3.358779,-0.534351,1.059675,3.743767,482,822,340,482,0,92.857,5,load
1780605218.1745434,7.322212400002172,7470,0.030762,-0.008301,1.044678,1.572519,3.282443,0.198473,1.045164,3.645084,485,826,341,485,0,92.857,6,load
1780605218.2054117,7.353080700006103,7501,0.071045,-0.010986,1.069092,1.08397,2.10687,-0.198473,1.071506,2.377663,487,830,343,487,0,92.857,6,load
1780605218.2370355,7.384704700001748,7532,0.051758,-0.035645,1.054199,1.396947,2.396947,-1.473282,1.056071,3.141238,488,832,344,488,0,92.857,5,load
1780605218.267503,7.41517200000817,7563,0.045654,-0.017578,1.059326,2.267176,3.557252,-0.259542,1.060455,4.226286,490,837,347,490,1,92.857,15,load
1780605218.2993681,7.447037300007651,7594,0.032227,-0.049561,1.044922,3.496183,3.687023,-1.984733,1.046593,5.454962,493,842,349,493,0,92.857,6,load
1780605218.3293972,7.477066200008267,7625,0.072266,-0.039795,1.044434,2.022901,3.862595,-1.053435,1.047687,4.485699,494,844,350,494,0,67.857,6,load
1780605218.3597555,7.507424700001138,7656,0.027832,-0.0271,1.049316,1.816794,2.70229,-0.824427,1.050035,3.358987,495,846,351,495,0,67.857,7,load
1780605218.391942,7.539611100000911,7687,0.043701,0.000488,1.060303,1.80916,2.152672,-1.229008,1.061203,3.068797,498,850,352,498,0,67.857,6,load
1780605218.421841,7.5695100000011735,7718,0.035645,-0.001709,1.0354,1.389313,2.832061,-0.251908,1.036015,3.164525,499,852,353,499,0,67.857,7,load
1780605218.4539557,7.60162470000796,7749,0.054199,-0.014404,1.067383,1.183206,3.305344,0.419847,1.068855,3.535752,500,854,354,500,0,67.857,5,load
1780605218.4842925,7.631961699997191,7780,0.040771,0.010254,1.054443,0.458015,3.549618,-0.389313,1.055281,3.600157,501,856,355,501,0,67.857,5,load
1780605218.5152013,7.662870400003158,7811,0.040283,0.08252,1.04248,2.282443,2.946565,-0.748092,1.046517,3.801504,502,858,356,502,0,67.857,8,load
1780605218.5467713,7.694440300008864,7842,0.027344,-0.106201,1.028809,2.534351,3.641221,0.267176,1.034637,4.444413,503,860,357,503,0,67.857,9,load
1780605218.5776567,7.725325799998245,7873,0.042725,-0.196289,1.054443,0.099237,3.038168,-1.381679,1.073408,3.339064,503,861,358,503,1,67.857,34,load
1780605218.6096132,7.757282200007467,7904,0.032227,0.020264,1.052246,2.015267,2.870229,-0.419847,1.052934,3.532108,504,862,358,504,0,35.842,15,load
1780605218.6414013,7.789070300001185,7936,0.039062,-0.065674,1.05835,1.572519,2.89313,-2.709924,1.061104,4.264587,505,864,359,505,0,35.842,14,load
1780605218.6700122,7.817681200001971,7967,0.063477,-0.02002,1.045166,2.076336,3.48855,0.0,1.047283,4.059698,505,864,359,505,0,35.842,14,load
1780605218.7016358,7.849304899995332,7997,0.042725,-0.0896,1.064941,1.473282,3.091603,-0.778626,1.069558,3.512098,505,865,360,505,1,35.842,52,load
1780605218.7328045,7.880473700002767,8028,0.044922,-0.14502,1.048828,1.015267,3.221374,-1.129771,1.059759,3.561516,506,866,360,506,0,35.842,21,load
1780605218.7642787,7.911947800006601,8059,0.04126,-0.031738,1.052246,0.908397,4.045802,0.145038,1.053533,4.149064,506,867,361,506,1,35.842,50,load
1780605218.794748,7.942417199999909,8090,0.042725,-0.044678,1.055908,2.122137,2.877863,-1.70229,1.057716,3.960221,507,868,361,507,0,35.842,15,load
1780605218.8270583,7.97472729999572,8121,0.030762,-0.124512,1.053711,1.587786,3.083969,-1.442748,1.061488,3.756788,507,868,361,507,0,35.842,15,load
1780605218.8576312,8.0053004000074,8153,0.045654,-0.04248,1.061279,0.954198,2.335878,-0.274809,1.06311,2.538176,508,870,362,508,0,35.842,12,load
1780605218.8888822,8.0365512999997,8184,0.051514,-0.038818,1.051025,0.916031,3.396947,-0.10687,1.053003,3.519912,508,870,362,508,0,14.286,12,load
1780605218.920571,8.068240199994761,8215,0.046631,0.032715,1.048096,2.320611,3.114504,-0.564886,1.049642,3.924852,508,871,363,508,1,14.286,57,load
1780605218.9518187,8.099487700004829,8247,0.043213,0.099121,1.045898,2.763359,2.534351,-0.687023,1.051473,3.811966,509,872,363,509,0,14.286,25,load
1780605218.9834988,8.131167900006403,8279,0.040527,0.07251,1.071289,2.954198,2.854962,-1.419847,1.074505,4.34673,509,873,364,509,1,14.286,50,load
1780605219.0147398,8.162408799995319,8310,0.040527,-0.009521,1.064697,1.450382,3.145038,-1.40458,1.065511,3.737341,510,874,364,510,0,14.286,16,load
1780605219.0467184,8.19438739999896,8341,0.033203,-0.121094,1.060303,1.816794,2.916031,-0.641221,1.067712,3.495016,510,874,364,510,0,14.286,16,load
1780605219.0769672,8.224636400002055,8372,0.042969,-0.031494,1.045654,0.549618,2.931298,-0.992366,1.047011,3.143148,511,876,365,511,0,14.286,12,load
1780605219.1093252,8.25699419999728,8404,0.042236,0.040527,1.05542,1.48855,3.564885,-0.458015,1.057042,3.89024,511,876,365,511,0,14.286,12,load
1780605219.1394355,8.287104500006535,8435,0.042236,-0.085693,1.050537,1.007634,2.801527,-1.152672,1.054872,3.192574,512,878,366,512,0,15.936,15,load
1780605219.1709092,8.318578300008085,8466,0.043945,0.081055,1.063232,2.916031,2.717557,-0.78626,1.067223,4.062826,512,878,366,512,0,15.936,15,load
1780605219.2021666,8.349835700006224,8497,0.061768,-0.105957,1.048828,1.068702,3.419847,-0.778626,1.055975,3.66657,512,879,367,512,1,15.936,53,load
1780605219.2321894,8.379858500004048,8528,0.032227,0.071777,1.054932,2.40458,2.496183,-0.946565,1.057862,3.592899,513,880,367,513,0,15.936,21,load
1780605219.2646368,8.412305899997591,8559,0.031738,-0.042969,1.059082,2.320611,2.679389,-0.48855,1.060428,3.578134,513,881,368,513,1,15.936,45,load
1780605219.294336,8.44200510000519,8590,0.032471,-0.018555,1.051514,1.221374,2.351145,-0.900763,1.052178,2.798395,514,882,368,514,0,15.936,17,load
1780605219.326309,8.473978099995293,8621,0.042725,-0.071045,1.05542,0.687023,2.587786,-0.633588,1.058671,2.751376,514,883,369,514,1,15.936,46,load
1780605219.3575065,8.505175700003747,8653,0.037109,-0.009521,1.047119,2.770992,2.78626,-1.091603,1.04782,4.078387,515,884,369,515,0,15.936,17,load
1780605219.3895745,8.537243600003421,8684,0.04248,0.067383,1.051514,3.282443,2.450382,-0.320611,1.054526,4.108721,515,885,370,515,1,15.936,45,load
1780605219.421967,8.569636000000173,8716,0.036865,-0.108398,1.056885,1.038168,2.526718,-1.580153,1.063068,3.155785,516,886,370,516,0,14.235,18,load
1780605219.452988,8.600656900001923,8748,0.049072,-0.000977,1.053467,1.580153,2.916031,-0.068702,1.05461,3.317354,516,887,371,516,1,14.235,42,load
1780605219.4846685,8.632337600007304,8779,0.030273,-0.09668,1.062256,1.435114,2.633588,-0.969466,1.067076,3.152016,517,888,371,517,0,14.235,21,load
1780605219.5157294,8.663398500008043,8811,0.05957,0.038574,1.068604,3.099237,2.89313,-0.244275,1.070958,4.24678,518,890,372,518,0,14.235,12,load
1780605219.5467112,8.694380400003865,8842,0.038574,-0.002686,1.057373,2.427481,2.89313,0.030534,1.05808,3.776744,518,890,372,518,0,14.235,12,load
1780605219.5774941,8.725163299997803,8873,0.059082,-0.088379,1.041992,0.229008,3.732824,-0.587786,1.047401,3.785751,519,892,373,519,0,14.235,9,load
1780605219.6091442,8.756813200001488,8904,0.058838,-0.037598,1.042969,1.740458,2.442748,-0.305344,1.045304,3.014871,519,893,374,519,1,14.235,42,load
1780605219.641146,8.788815100007923,8936,0.043457,-0.018799,1.054932,1.824428,2.458015,-1.480916,1.055994,3.400513,520,894,374,520,0,14.235,12,load
1780605219.6715868,8.819255900001735,8967,0.026855,0.031494,1.048096,2.748092,2.526718,-0.610687,1.048912,3.782756,521,896,375,521,0,19.92,10,load
1780605219.7030017,8.8506708000059,8998,0.045166,-0.031738,1.070801,-0.740458,3.236641,0.312977,1.072223,3.334978,521,897,376,521,1,19.92,33,load
1780605219.7329628,8.880631899999571,9029,0.047607,0.001953,1.078613,0.129771,2.312977,-0.022901,1.079665,2.316728,522,898,376,522,0,19.92,12,load
1780605219.7648013,8.912470299997949,9060,0.02002,-0.011475,1.062988,0.839695,2.10687,-0.656489,1.063239,2.361137,523,900,377,523,0,19.92,1,load
1780605219.7960663,8.943735299995751,9091,0.044189,-0.078857,1.047852,0.061069,2.183206,-0.259542,1.051743,2.199427,524,902,378,524,0,19.92,0,load
1780605219.8273795,8.975048499996774,9122,0.032227,-0.031494,1.05249,0.977099,2.541985,-1.229008,1.053454,2.987787,527,907,380,527,1,19.92,16,load
1780605219.8578267,9.005495799996424,9153,0.033936,-0.057129,1.036865,2.320611,2.328244,-2.557252,1.038992,4.164792,529,910,381,529,0,19.92,6,load
1780605219.888277,9.035946100004367,9184,0.044678,-0.024414,1.041016,0.946565,3.183206,-1.229008,1.04226,3.54108,533,916,383,533,0,19.92,0,load
1780605219.9199815,9.067650600001798,9215,0.020508,-0.034912,1.067871,0.587786,2.320611,-1.51145,1.068638,2.831114,535,920,385,535,0,19.92,0,load
1780605219.9515233,9.099192299996503,9247,0.045166,0.000244,1.040283,2.656489,3.954198,-1.259542,1.041263,4.927379,539,926,387,539,0,64.286,5,load
1780605219.981973,9.129641999999876,9278,0.030762,0.001709,1.071777,1.312977,2.496183,-0.78626,1.07222,2.927976,542,930,388,542,0,64.286,5,load
1780605220.0146737,9.162342900002841,9309,0.040771,-0.0271,1.054443,2.160305,2.625954,-0.21374,1.055579,3.407086,544,935,391,544,1,64.286,3,load
1780605220.0460856,9.193754699997953,9341,0.049072,-0.027832,1.056641,3.541985,2.748092,-1.038168,1.058146,4.60168,548,940,392,548,0,64.286,1,load
1780605220.0765529,9.224222000004374,9372,0.039307,-0.041748,1.05835,1.603053,2.778626,-0.458015,1.059902,3.24042,550,944,394,550,0,64.286,0,load
1780605220.1082013,9.255870399996638,9403,0.022461,-0.032959,1.050537,1.717557,2.435115,-1.236641,1.051294,3.226309,552,947,395,552,1,64.286,16,load
1780605220.1387916,9.28646070000832,9434,0.026855,-0.025879,1.069336,0.129771,2.541985,-0.465649,1.069986,2.587538,557,954,397,557,0,64.286,0,load
1780605220.1693006,9.31696959999681,9465,0.042236,-0.072998,1.044922,0.862595,2.778626,-1.076336,1.04832,3.10215,559,958,399,559,0,64.286,1,load
1780605220.200594,9.348263000007137,9496,0.056396,-0.033447,1.049805,1.89313,3.259542,-0.80916,1.05185,3.855294,565,966,401,565,0,64.286,5,load
1780605220.231429,9.37909820000641,9527,0.029785,-0.010498,1.048584,0.59542,3.435115,-0.152672,1.049059,3.489677,569,972,403,569,0,107.143,0,load
1780605220.2633936,9.411062800005311,9558,0.046387,-0.03833,1.054932,1.91603,3.221374,-0.969466,1.056646,3.871471,571,977,406,571,1,107.143,14,load
1780605220.2944164,9.442085400005453,9589,0.043213,0.010742,1.061768,1.335878,3.198473,-0.419847,1.062701,3.491572,573,980,407,573,0,107.143,5,load
1780605220.3249013,9.472570400001132,9620,0.033203,-0.041504,1.052978,1.534351,2.442748,-1.335878,1.054319,3.178965,575,984,409,575,0,107.143,0,load
1780605220.3558555,9.503524600004312,9651,0.053711,-0.025391,1.047119,2.679389,3.40458,-0.610687,1.048803,4.375298,579,990,411,579,0,107.143,6,load
1780605220.3866906,9.534359700002824,9682,0.054443,-0.003662,1.060547,0.916031,3.137405,-0.305344,1.06195,3.28263,583,996,413,583,0,107.143,0,load
1780605220.4177527,9.565421799998148,9713,0.021484,0.003418,1.041992,2.412214,2.854962,-0.717557,1.042219,3.805847,585,1003,418,585,1,107.143,14,load
1780605220.4491272,9.596796300000278,9744,0.050781,-0.011963,1.060303,2.015267,2.610687,-0.709924,1.061585,3.373571,590,1010,420,590,0,107.143,0,load
1780605220.4807863,9.628455300000496,9776,0.025391,-0.02002,1.055664,1.694656,2.48855,-0.908397,1.056159,3.144825,591,1012,421,591,0,107.143,5,load
1780605220.511226,9.658895100001246,9807,0.05249,-0.000244,1.046143,2.282443,3.938931,-0.78626,1.047459,4.61984,595,1018,423,595,0,92.857,6,load
1780605220.543359,9.691028000001097,9838,0.062744,-0.026367,1.055908,0.694656,3.053435,-0.580153,1.058099,3.184744,599,1024,425,599,0,92.857,0,load
1780605220.573792,9.721461000008276,9869,0.018799,0.007813,1.040527,2.412214,2.923664,-0.435114,1.040726,3.815221,602,1031,429,602,1,92.857,2,load
1780605220.6051874,9.752856599996448,9900,0.032471,-0.027344,1.05127,1.633588,2.824427,-0.641221,1.052126,3.325232,608,1038,430,608,0,92.857,0,load
1780605220.6354394,9.783108400006313,9931,0.039795,-0.039551,1.051514,1.145038,2.961832,-0.641221,1.053009,3.239556,610,1042,432,610,0,92.857,1,load
1780605220.6660645,9.813733500006492,9962,0.052002,-0.062988,1.045898,2.0,3.114504,-1.21374,1.049083,3.895292,612,1045,433,612,1,92.857,16,load
1780605220.6966612,9.844330299994908,9992,0.052002,-0.032471,1.070801,0.709924,2.152672,-0.931298,1.072554,2.450572,615,1050,435,615,0,92.857,1,load
1780605220.7281363,9.875805400006357,10023,0.05249,-0.074707,1.054688,0.938931,2.374046,-1.343511,1.058632,2.88491,617,1054,437,617,0,92.857,0,load
1780605220.7596276,9.90729669999564,10054,0.04126,-0.055908,1.05127,1.908397,3.557252,-0.832061,1.053563,4.121692,622,1060,438,622,0,92.857,5,load
1780605220.7900004,9.937669399994775,10085,0.047119,-0.0271,1.047119,0.938931,3.473282,-0.129771,1.048529,3.600295,627,1068,441,627,0,115.108,0,load
1780605220.8228993,9.970568300006562,10117,0.047363,-0.063232,1.048828,1.343511,4.167938,-1.435114,1.051799,4.608285,629,1073,444,629,1,115.108,14,load
1780605220.8546505,10.002319499995792,10149,0.037354,-0.026855,1.056641,0.572519,2.557252,-0.725191,1.057642,2.719047,634,1080,446,634,0,115.108,0,load
1780605220.8856316,10.033300700000837,10180,0.052734,-0.07251,1.051025,1.801527,2.679389,-0.671756,1.054843,3.29786,636,1084,448,636,0,115.108,1,load
1780605220.9162223,10.06389130000025,10211,0.023438,-0.03833,1.055664,1.816794,3.274809,-0.946565,1.05662,3.862784,642,1092,450,642,0,115.108,0,load
1780605220.9475098,10.095178799994756,10243,0.049561,-0.043213,1.048584,1.167939,2.78626,-0.641221,1.050644,3.088444,644,1096,452,644,0,115.108,1,load
1780605220.9807806,10.12844970000151,10274,0.05957,-0.05127,1.051514,1.870229,3.152672,-1.068702,1.054447,3.818274,649,1103,454,649,1,115.108,13,load
1780605221.0106297,10.15829870000016,10305,0.019531,-0.024414,1.056641,0.709924,2.78626,-0.793893,1.057103,2.982868,654,1110,456,654,0,115.108,0,load
1780605221.0431812,10.190850200000568,10336,0.045654,-0.074219,1.050049,0.854962,2.80916,-1.076336,1.053658,3.127434,656,1114,458,656,0,115.538,0,load
1780605221.072102,10.219771100004436,10367,0.063477,-0.041016,1.053223,2.099237,3.236641,-1.030534,1.055931,3.993074,659,1118,459,659,0,115.538,5,load
1780605221.1036358,10.251304799996433,10399,0.04126,-0.020508,1.05957,0.480916,2.954198,-0.610687,1.060572,3.054751,663,1124,461,663,0,115.538,0,load
1780605221.134783,10.282451999999466,10430,0.052002,-0.050293,1.045898,2.076336,2.732824,-1.099237,1.048397,3.603862,664,1127,463,664,1,115.538,17,load
1780605221.1651313,10.312800300001982,10461,0.055908,-0.024414,1.063965,0.832061,2.59542,-1.015267,1.065712,2.908487,670,1136,466,670,0,115.538,0,load
1780605221.199331,10.347000199995819,10492,0.027588,-0.039795,1.053711,1.236641,2.763359,-1.167939,1.054823,3.244922,672,1140,468,672,0,115.538,0,load
1780605221.2276812,10.375350300004357,10523,0.065918,-0.024902,1.047852,2.21374,3.465649,-0.78626,1.050218,4.186834,676,1146,470,676,0,115.538,6,load
1780605221.2592552,10.406924199996865,10554,0.064697,-0.026367,1.064941,0.648855,3.984733,0.045802,1.067231,4.037475,678,1150,472,678,0,115.538,1,load
1780605221.290294,10.437963000003947,10585,0.056885,-0.008057,1.05249,2.167939,2.992366,-0.854962,1.054057,3.792779,680,1155,475,680,1,115.538,13,load
1780605221.321786,10.469455099999323,10616,0.047119,-0.014648,1.060791,1.48855,2.938931,-0.709924,1.061938,3.370028,685,1162,477,685,0,103.571,0,load
1780605221.3535187,10.501187900008517,10648,0.035645,-0.014648,1.056641,1.320611,2.717557,-1.21374,1.057343,3.256117,689,1168,479,689,0,103.571,0,load
1780605221.3848276,10.532496800005902,10679,0.072021,-0.030518,1.05249,2.061069,3.259542,-0.78626,1.055393,3.935838,693,1174,481,693,0,103.571,6,load
1780605221.4162235,10.563892499994836,10711,0.046875,-0.026611,1.054932,0.900763,3.015267,-0.099237,1.056308,3.148501,697,1180,483,697,0,103.571,0,load
1780605221.4473562,10.595025200003874,10742,0.048584,-0.000244,1.053223,1.847328,3.435115,-1.08397,1.054343,4.048163,698,1183,485,698,1,103.571,17,load
1780605221.4776504,10.62531950000266,10773,0.041504,-0.00293,1.05957,1.587786,2.748092,-0.122137,1.060387,3.17616,701,1188,487,701,0,103.571,0,load
1780605221.5090497,10.656718700003694,10804,0.051758,-0.01709,1.066162,1.465649,2.473282,-1.122137,1.067554,3.08617,703,1192,489,703,0,103.571,0,load
1780605221.540217,10.687885999999708,10835,0.041504,0.007568,1.035644,2.839695,3.328244,-0.854962,1.036503,4.457806,708,1200,492,708,0,103.571,6,load
1780605221.5704505,10.718119600001955,10866,0.031494,-0.004883,1.050049,0.969466,3.030534,-0.099237,1.050532,3.183371,712,1206,494,712,0,108.0,0,load
1780605221.6021307,10.749799700002768,10897,0.015625,0.012695,1.040772,2.541985,2.51145,-0.51145,1.040966,3.609799,714,1211,497,714,1,108.0,14,load
1780605221.6334853,10.781154299998889,10928,0.043213,-0.015381,1.063965,2.320611,2.290076,-1.015267,1.064953,3.41474,717,1216,499,717,0,108.0,1,load
1780605221.66516,10.812829000002239,10960,0.040039,-0.033936,1.065918,1.694656,2.862595,-0.671756,1.067209,3.393754,719,1220,501,719,0,108.0,0,load
1780605221.6960745,10.843743599994923,10991,0.053955,0.006348,1.052978,2.862595,3.618321,-0.900763,1.054379,4.700858,723,1226,503,723,0,108.0,5,load
1780605221.7266037,10.874272900007782,11022,0.045166,-0.011963,1.0625,0.717557,3.045802,-0.366412,1.063527,3.150564,726,1232,506,726,0,108.0,0,load
1780605221.7576818,10.905351000008523,11052,0.066895,-0.070801,1.052734,1.503817,2.839695,-1.167939,1.057231,3.418978,727,1235,508,727,1,108.0,17,load
1780605221.7893226,10.936991700000362,11084,0.032715,-0.0354,1.061523,1.78626,2.89313,-0.801527,1.062617,3.493332,732,1241,509,732,0,108.0,3,load
1780605221.8206108,10.968279799999436,11115,0.055908,-0.051514,1.059814,0.78626,2.458015,-0.152672,1.062538,2.585218,733,1243,510,733,0,108.0,5,load
1780605221.8516235,10.999292599997716,11146,0.043701,-0.046631,1.043213,1.305344,3.312977,-1.08397,1.045168,3.722194,734,1246,512,734,1,78.571,16,load
1780605221.882716,11.03038490000472,11177,0.059326,-0.039307,1.071289,0.564886,2.908397,-0.48855,1.07365,3.002757,739,1253,514,739,0,78.571,0,load
1780605221.9196143,11.067283299998962,11208,0.047119,-0.083496,1.047119,1.160305,3.137405,-0.854962,1.051499,3.452619,742,1259,517,742,0,78.571,1,load
1780605221.9510596,11.098728700002539,11245,0.036377,-0.04248,1.062988,0.206107,2.572519,-0.343511,1.064458,2.603524,747,1265,518,747,0,78.571,5,load
1780605221.9826486,11.130317600007402,11277,0.0354,-0.030518,1.039307,2.427481,2.496183,-0.465649,1.040357,3.512894,749,1270,521,749,1,78.571,14,load
1780605222.0128078,11.160476999997627,11308,0.041016,-0.03125,1.063721,1.877863,2.396947,-0.916031,1.06497,3.179754,752,1275,523,752,0,78.571,0,load
1780605222.0449462,11.19261529999494,11339,0.042725,-0.039307,1.062256,1.282443,2.526718,-0.694656,1.063841,2.917449,754,1279,525,754,0,78.571,0,load
1780605222.075587,11.223256199999014,11370,0.043945,-0.05542,1.039062,2.007634,3.343511,-1.175572,1.041467,4.073283,757,1284,527,757,1,78.571,14,load
1780605222.1076617,11.25533080000605,11402,0.043945,-0.038086,1.05835,0.061069,3.160305,-0.40458,1.059946,3.186682,763,1293,530,763,0,113.281,0,load
1780605222.1381347,11.285803699996904,11433,0.054443,-0.070068,1.05249,1.824428,2.435115,-0.854962,1.056224,3.160582,765,1298,533,765,1,113.281,13,load
1780605222.168453,11.316122000003816,11464,0.024414,-0.022949,1.058838,2.129771,3.0,-1.335878,1.059368,3.91414,769,1303,534,769,0,113.281,5,load
1780605222.200419,11.348088099999586,11495,0.032471,-0.037354,1.044434,0.740458,2.80916,-0.435114,1.045606,2.937513,770,1305,535,770,0,113.281,5,load
1780605222.2513647,11.399033800000325,11526,0.049316,-0.05957,1.050293,1.725191,3.610687,-1.221374,1.053136,4.18391,772,1310,538,772,1,113.281,14,load
1780605222.2626624,11.410331399994902,11557,0.056641,-0.014404,1.05835,0.931298,2.931298,-0.587786,1.059962,3.131344,777,1317,540,777,0,113.281,0,load
1780605222.293243,11.440912100006244,11588,0.042236,-0.052734,1.054932,0.977099,2.725191,-1.381679,1.057093,3.20787,779,1323,544,779,0,113.281,0,load
1780605222.3253577,11.473026699997718,11620,0.066406,-0.063965,1.061035,1.648855,3.160305,-0.687023,1.065034,3.630186,783,1330,547,783,0,113.281,3,load
1780605222.3576608,11.505329799998435,11652,0.050537,-0.036377,1.048096,1.091603,2.687023,-0.435114,1.049944,2.932748,786,1335,549,786,0,92.0,1,load
1780605222.3884888,11.536157800001092,11683,0.05127,-0.05127,1.049316,1.572519,3.801527,-1.10687,1.051818,4.260232,788,1338,550,788,1,92.0,17,load
1780605222.4186494,11.566318500001216,11714,0.044189,-0.025879,1.056396,0.564886,2.580153,-0.717557,1.057637,2.737001,793,1345,552,793,0,92.0,1,load
1780605222.4505212,11.598190300006536,11745,0.064209,-0.040039,1.051758,1.259542,3.167939,-1.030534,1.054476,3.5615,795,1349,554,795,0,92.0,0,load
1780605222.4814,11.629069100003107,11776,0.04541,-0.023193,1.055176,1.938931,2.908397,-0.748092,1.056407,3.574614,800,1357,557,800,0,92.0,6,load
1780605222.5116522,11.659321300001466,11807,0.04248,-0.010742,1.049561,0.847328,3.305344,-0.580153,1.050475,3.46119,804,1363,559,804,0,92.0,0,load
1780605222.5430682,11.690737299999455,11838,0.022705,0.018555,1.051025,1.80916,2.885496,-0.48855,1.051434,3.440615,806,1368,562,806,1,92.0,14,load
1780605222.5732856,11.720954699994763,11869,0.039062,-0.008057,1.062744,1.816794,2.80916,-0.564886,1.063492,3.392818,809,1373,564,809,0,92.0,1,load
1780605222.6059282,11.753597300004913,11900,0.062988,-0.028076,1.062256,1.664122,2.854962,-0.534351,1.064492,3.347483,811,1377,566,811,0,92.0,0,load
1780605222.6363356,11.784004600005574,11931,0.051025,-0.001465,1.044678,3.030534,4.129771,-0.679389,1.045924,5.167274,815,1383,568,815,0,103.943,6,load
1780605222.667649,11.81531800000812,11962,0.048584,-0.04126,1.07666,0.816794,2.648855,-0.435114,1.078545,2.80587,820,1391,571,820,0,103.943,0,load
1780605222.6991315,11.846800600003917,11993,0.033936,-0.058838,1.052978,1.183206,2.450382,-1.137405,1.055167,2.949243,822,1396,574,822,1,103.943,14,load
1780605222.7294414,11.877110500005074,12025,0.0271,-0.00708,1.062988,2.183206,2.229008,-2.053435,1.063357,3.735165,826,1401,575,826,0,103.943,5,load
1780605222.7613678,11.90903690000414,12056,0.045654,-0.045654,1.055908,0.801527,2.870229,-0.267176,1.05788,2.991996,828,1405,577,828,0,103.943,0,load
1780605222.792824,11.940493200003402,12087,0.055176,-0.058594,1.051758,1.91603,3.908397,-1.045802,1.054833,4.476655,831,1410,579,831,1,103.943,13,load
1780605222.8238935,11.971562699996866,12118,0.049316,-0.031006,1.067871,0.458015,2.770992,-0.427481,1.069459,2.840936,836,1417,581,836,0,103.943,0,load
1780605222.8552525,12.002921699997387,12150,0.051758,-0.043945,1.042969,1.549618,3.160305,-0.832061,1.045176,3.61679,838,1424,586,838,1,103.943,14,load
1780605222.887077,12.034746200006339,12182,0.034912,-0.01709,1.071777,2.045802,2.748092,-0.564886,1.072482,3.472234,842,1429,587,842,0,107.57,5,load
1780605222.918356,12.066025100008119,12213,0.039795,-0.047363,1.041748,1.167939,2.526718,-0.908397,1.043583,2.928066,843,1431,588,843,0,107.57,5,load
1780605222.9490635,12.096732599995448,12244,0.036133,-0.053467,1.040527,1.969466,4.19084,-0.824427,1.042526,4.703362,845,1434,589,845,1,107.57,16,load
1780605222.9802432,12.12791229999857,12275,0.041504,-0.041992,1.056152,0.725191,2.656489,-0.51145,1.057801,2.800788,850,1441,591,850,0,107.57,0,load
1780605223.01173,12.159398999996483,12306,0.037354,-0.062256,1.053955,0.900763,3.122137,-0.908397,1.056453,3.374063,853,1447,594,853,0,107.57,1,load
1780605223.0427406,12.190409700007876,12337,0.055176,-0.062988,1.066894,1.648855,2.977099,-0.679389,1.070176,3.470362,858,1453,595,858,0,107.57,5,load
1780605223.074993,12.222661899999366,12369,0.02124,-0.046875,1.043213,0.679389,2.473282,-0.816794,1.044481,2.691811,861,1457,596,861,0,107.57,6,load
1780605223.1056898,12.253358800007845,12400,0.04834,-0.05835,1.043457,1.396947,3.633588,-1.076336,1.046205,4.038926,863,1462,599,863,1,107.57,13,load
1780605223.145769,12.293438000007882,12431,0.037842,0.008545,1.051758,0.671756,3.061069,-0.496183,1.052473,3.172948,866,1467,601,866,0,107.57,0,load
1780605223.1673195,12.314988600002835,12462,0.056396,-0.053955,1.060303,1.19084,3.198473,-0.877863,1.063172,3.524056,868,1471,603,868,0,92.857,1,load
1780605223.1988518,12.346520999999484,12493,0.046143,-0.021729,1.05127,2.21374,3.137405,-1.076336,1.052506,3.987788,873,1477,604,873,0,92.857,5,load
1780605223.2290065,12.376675699997577,12524,0.051758,0.008545,1.058594,0.641221,2.755725,-0.687023,1.059893,2.911561,878,1485,607,878,0,92.857,0,load
1780605223.2608778,12.408546899998328,12555,0.056152,0.005127,1.063477,2.007634,2.80916,-0.877863,1.06497,3.56267,880,1490,610,880,1,92.857,15,load
1780605223.291537,12.439206099996227,12586,0.053223,-0.009033,1.056396,1.908397,2.648855,-0.732824,1.057775,3.34596,884,1495,611,884,0,92.857,6,load
1780605223.3228045,12.470473599998513,12617,0.063477,-0.028564,1.062012,1.778626,2.916031,-0.687023,1.06429,3.48407,886,1499,613,886,0,92.857,1,load
1780605223.3538861,12.501555199996801,12648,0.057129,-0.05249,1.048828,2.587786,3.51145,-0.931298,1.051694,4.460296,889,1504,615,889,1,92.857,14,load
1780605223.3846824,12.532351500005461,12679,0.047607,-0.035156,1.058594,0.374046,3.030534,-0.641221,1.060247,3.12013,894,1511,617,894,0,92.857,0,load
1780605223.415421,12.56308999999601,12710,0.044189,-0.054688,1.034912,1.725191,2.89313,-1.145038,1.037298,3.557752,896,1518,622,896,1,92.857,14,load
1780605223.4473653,12.595034400001168,12742,0.044678,-0.040283,1.070312,2.068702,2.358779,-0.694656,1.072002,3.213396,902,1525,623,902,0,121.429,0,load
1780605223.479127,12.62679599999683,12774,0.048828,-0.042236,1.058594,1.389313,2.618321,-1.19084,1.060561,3.194353,903,1527,624,903,0,121.429,5,load
1780605223.5095284,12.657197499996983,12805,0.064453,-0.009033,1.047363,2.969466,3.923664,-1.061069,1.049383,5.03376,906,1531,625,906,0,121.429,5,load
1780605223.5409203,12.688589299999876,12836,0.050537,-0.038574,1.067139,0.465649,3.083969,-0.671756,1.069031,3.190447,910,1537,627,910,0,121.429,1,load
1780605223.5729408,12.720610000003944,12867,0.055176,-0.068359,1.038574,2.022901,2.961832,-1.10687,1.042283,3.75363,913,1544,631,913,1,121.429,3,load
1780605223.6022902,12.74995929999568,12898,0.035889,-0.050049,1.05249,2.167939,2.755725,-1.0,1.05429,3.646091,917,1549,632,917,0,121.429,0,load
1780605223.6340818,12.781750900001498,12929,0.045654,-0.03833,1.046631,0.725191,2.824427,-0.549618,1.048327,2.967384,919,1553,634,919,0,121.429,0,load
1780605223.6652634,12.812932500004536,12961,0.037598,-0.050049,1.046387,2.0,3.29771,-1.519084,1.048257,4.145179,921,1558,637,921,1,121.429,13,load
1780605223.6976624,12.845331500007887,12991,0.03418,-0.031738,1.063232,0.480916,2.862595,-0.679389,1.064255,2.981158,923,1561,638,923,0,121.429,5,load
1780605223.727828,12.875497000000905,13023,0.022949,-0.027588,1.057129,0.89313,3.167939,-0.984733,1.057738,3.435581,925,1565,640,925,0,81.851,0,load
1780605223.759075,12.906744100007927,13054,0.059814,-0.044434,1.061768,1.51145,3.282443,-0.78626,1.064379,3.698259,930,1571,641,930,0,81.851,5,load
1780605223.7901762,12.937845199994626,13085,0.070801,-0.021729,1.064941,0.396947,2.969466,-0.335878,1.067514,3.014649,935,1579,644,935,0,81.851,0,load
1780605223.8203702,12.96803920000093,13116,0.045898,0.004639,1.054932,2.007634,2.648855,-1.160305,1.05594,3.520417,936,1582,646,936,1,81.851,17,load
1780605223.8511953,12.99886449999758,13147,0.03125,0.010742,1.05542,1.648855,2.89313,-0.78626,1.055937,3.421568,940,1587,647,940,0,81.851,5,load
1780605223.8825507,13.030219899999793,13178,0.035156,-0.017822,1.058838,1.435114,2.984733,-0.48855,1.059571,3.347666,942,1591,649,942,0,81.851,0,load
1780605223.9138038,13.061472800007323,13209,0.04126,-0.008789,1.037109,2.70229,3.145038,-1.08397,1.037967,4.285864,946,1597,651,946,0,81.851,6,load
1780605223.944037,13.091706000006525,13239,0.032471,-0.025391,1.048096,0.977099,3.068702,-0.625954,1.048906,3.280774,950,1603,653,950,0,81.851,0,load
1780605223.9746425,13.12231150000298,13270,0.056396,-0.070068,1.043701,0.977099,3.129771,-0.755725,1.04757,3.364715,952,1609,657,952,0,81.851,0,load
1780605224.0061572,13.15382619999582,13301,0.045166,-0.026367,1.050537,2.366412,2.931298,-0.564886,1.051838,3.809398,957,1615,658,957,0,115.108,5,load
1780605224.0362377,13.183906799997203,13332,0.067383,-0.008545,1.0625,0.80916,3.083969,-0.473282,1.064669,3.223291,960,1619,659,960,0,115.108,5,load
1780605224.0671732,13.214842300003511,13362,0.033936,-0.032471,1.041748,2.763359,2.358779,-0.389313,1.042806,3.653978,962,1624,662,962,1,115.108,14,load
1780605224.1175885,13.265257499995641,13394,0.033447,-0.028564,1.061035,2.473282,2.305344,-1.10687,1.061946,3.557653,967,1631,664,967,0,115.108,0,load
1780605224.1312273,13.278896300005727,13426,0.044434,-0.015137,1.052734,1.801527,3.961832,-0.465649,1.05378,4.377036,971,1637,666,971,0,115.108,0,load
1780605224.1627078,13.310376800000085,13458,0.028809,-0.035645,1.056152,2.221374,3.007634,-1.480916,1.057146,4.021626,975,1643,668,975,0,115.108,5,load
1780605224.1932068,13.340875900001265,13489,0.041016,-0.000732,1.063721,1.519084,3.687023,-1.137405,1.064511,4.146739,979,1649,670,979,0,115.108,0,load
1780605224.2251518,13.37282079999568,13520,0.012939,-0.020264,1.055176,2.091603,2.061069,-0.572519,1.05545,2.991753,980,1652,672,980,1,115.108,18,load
1780605224.2568476,13.404516599999624,13551,0.020264,-0.021729,1.066162,1.389313,2.610687,-1.732824,1.066576,3.427617,986,1659,673,986,0,116.0,0,load
1780605224.2879455,13.435614500005613,13582,0.032227,-0.012939,1.044678,0.946565,3.038168,0.450382,1.045255,3.213922,988,1663,675,988,0,116.0,1,load
1780605224.3187168,13.466385899999295,13613,0.036133,-0.068604,1.072754,1.725191,2.305344,-1.610687,1.075552,3.299274,989,1668,679,989,1,116.0,18,load
1780605224.3495975,13.497266599995783,13644,0.034668,-0.010254,1.05249,1.694656,3.328244,-0.725191,1.053111,3.804599,991,1671,680,991,0,116.0,6,load
1780605224.380495,13.52816420000454,13675,0.037598,-0.016357,1.049316,1.618321,3.847328,0.610687,1.050117,4.218274,992,1673,681,992,0,116.0,6,load
1780605224.4117877,13.559456899994984,13706,0.048828,-0.069336,1.068604,1.503817,3.068702,-1.755725,1.071963,3.842001,994,1676,682,994,1,116.0,16,load
1780605224.4423816,13.590050700004213,13737,0.042725,0.003662,1.045654,0.984733,2.862595,-0.129771,1.046533,3.030015,997,1681,684,997,0,116.0,0,load
1780605224.4729683,13.620637300002272,13768,0.062256,-0.017822,1.063965,1.770992,2.984733,-0.015267,1.065934,3.470631,1000,1685,685,1000,0,116.0,5,load
1780605224.504101,13.65177009999752,13799,0.04834,-0.023438,1.054932,2.374046,2.801527,-1.679389,1.056299,4.037944,1002,1688,686,1002,1,116.0,16,load
1780605224.5346878,13.682356799996342,13830,0.043213,-0.007813,1.049072,1.396947,3.923664,-0.389313,1.049991,4.18308,1004,1691,687,1004,0,64.516,5,load
1780605224.5655541,13.713223300001118,13861,0.004639,-0.052002,1.067383,1.206107,2.916031,-0.282443,1.068659,3.168233,1005,1693,688,1005,0,64.516,5,load
1780605224.5965106,13.74417980000726,13892,0.003906,-0.041992,1.064941,1.70229,2.343511,-0.480916,1.065776,2.936174,1006,1696,690,1006,1,64.516,19,load
1780605224.6271405,13.774809700000333,13922,0.043701,-0.022949,1.045898,1.839695,2.847328,0.671756,1.047062,3.455866,1008,1699,691,1008,0,64.516,6,load
1780605224.6577551,13.805424300007871,13953,0.028076,-0.032715,1.04248,2.312977,3.183206,1.328244,1.043371,4.152938,1009,1701,692,1009,0,64.516,6,load
1780605224.6888647,13.836533800000325,13984,0.015869,-0.019531,1.06665,1.801527,2.519084,-1.526718,1.066947,3.452846,1012,1705,693,1012,0,64.516,6,load
1780605224.720524,13.868193100002827,14015,0.065674,-0.011719,1.054688,2.290076,3.603053,-1.755725,1.056795,4.616168,1013,1707,694,1013,0,64.516,7,load
1780605224.7519233,13.899592400004622,14046,0.076172,0.05957,1.042969,1.236641,4.27481,-1.633588,1.047442,4.740452,1014,1709,695,1014,0,64.516,7,load
1780605224.7833316,13.931000700002187,14077,0.032471,-0.02002,1.051514,3.694656,2.801527,-1.19084,1.052205,4.787185,1015,1711,696,1015,0,64.516,10,load
1780605224.8152955,13.962964499994996,14109,0.034668,-0.158936,1.057129,-1.175572,2.908397,-1.045802,1.069572,3.306727,1015,1711,696,1015,0,39.427,10,load
1780605224.8459742,13.993643199995859,14141,0.054688,-0.007568,1.050293,1.778626,3.274809,-1.091603,1.051743,3.883231,1016,1713,697,1016,0,39.427,3,load
1780605224.8775465,14.025215700006811,14172,0.035889,-0.186768,1.039307,-0.648855,2.740458,-1.900763,1.056564,3.39765,1016,1714,698,1016,1,39.427,40,load
1780605224.9089656,14.05663469999854,14203,0.042969,0.110352,1.061279,5.221374,3.015267,-0.70229,1.067866,6.070238,1017,1715,698,1017,0,39.427,20,load
1780605224.93962,14.087289000002784,14234,0.031982,0.100586,1.064209,2.664122,3.236641,-0.877863,1.06943,4.282994,1018,1717,699,1018,0,39.427,14,load
1780605224.969879,14.117548099995474,14265,0.023193,0.086426,1.054443,4.152672,3.396947,-1.221374,1.058234,5.502334,1018,1717,699,1018,0,39.427,14,load
1780605225.001103,14.148771899999701,14296,0.050293,-0.100342,1.060791,1.160305,3.572519,-1.290076,1.066712,3.971586,1018,1718,700,1018,1,39.427,49,load
1780605225.032993,14.18066220000037,14327,0.023438,0.082764,1.068359,2.083969,1.78626,0.175573,1.071817,2.75036,1019,1719,700,1019,0,39.427,23,load
1780605225.0633895,14.211058700006106,14358,0.03833,0.035156,1.059814,2.419847,3.442748,-1.427481,1.06109,4.443634,1019,1720,701,1019,1,39.427,47,load
1780605225.0942419,14.24191100000462,14389,0.029297,0.130859,1.061523,2.541985,2.854962,-0.969466,1.06996,3.943648,1020,1721,701,1020,0,17.857,18,load
1780605225.1253664,14.273035599995637,14420,0.036133,0.022461,1.052978,2.015267,2.770992,0.343511,1.053838,3.443501,1020,1721,701,1020,0,17.857,18,load
1780605225.15647,14.304139100000612,14451,0.052002,-0.181641,1.035156,1.473282,3.564885,-1.114504,1.052258,4.015108,1021,1723,702,1021,0,17.857,19,load
1780605225.1869996,14.334668700001203,14482,0.0354,-0.073975,1.056152,0.435114,2.977099,-0.938931,1.059332,3.15183,1021,1723,702,1021,0,17.857,19,load
1780605225.2173805,14.365049600004568,14513,0.045166,0.121338,1.053223,3.59542,3.137405,-0.290076,1.061151,4.780638,1021,1723,702,1021,0,17.857,19,load
1780605225.2481296,14.395798600002308,14544,0.044189,-0.092285,1.035644,2.0,3.045802,-1.29771,1.040687,3.86794,1022,1725,703,1022,0,17.857,13,load
1780605225.2798457,14.427514700000756,14574,0.041504,-0.037842,1.050537,0.458015,2.870229,-0.610687,1.052037,2.970005,1022,1725,703,1022,0,17.857,13,load
1780605225.3109875,14.458656500006327,14606,0.047607,-0.064697,1.044922,0.091603,2.687023,-0.580153,1.048005,2.750465,1022,1726,704,1022,1,17.857,62,load
1780605225.3412802,14.488949400009005,14637,0.0625,-0.145508,1.038818,1.503817,3.244275,-1.572519,1.05082,3.906354,1023,1727,704,1023,0,17.857,19,load
1780605225.3723614,14.520030500003486,14667,0.033203,0.095215,1.066406,2.267176,3.099237,0.152672,1.071163,3.843002,1023,1727,704,1023,0,10.791,19,load
1780605225.4032917,14.55096069999854,14698,0.049561,0.018066,1.050049,3.0,2.778626,-1.541985,1.051373,4.37018,1024,1729,705,1024,0,10.791,16,load
1780605225.4342408,14.581909800006542,14729,0.042236,-0.000732,1.043457,0.328244,2.977099,-0.442748,1.044312,3.027687,1024,1729,705,1024,0,10.791,16,load
1780605225.465653,14.6133220000047,14760,0.036133,-0.032227,1.049805,0.328244,2.19084,-0.694656,1.050921,2.321653,1024,1730,706,1024,1,10.791,59,load
1780605225.4962764,14.643945400006487,14791,0.035645,-0.085693,1.059326,1.08397,2.854962,-1.259542,1.063384,3.303368,1025,1731,706,1025,0,10.791,18,load
1780605225.5271819,14.674850900002639,14822,0.039795,0.056152,1.065674,2.450382,3.0,-0.038168,1.067894,3.873736,1025,1731,706,1025,0,10.791,18,load
1780605225.5585525,14.706221600004937,14853,0.036621,-0.168945,1.036621,0.603053,2.641221,-0.671756,1.050936,2.791232,1026,1733,707,1026,0,10.791,19,load
1780605225.5885541,14.736223200001405,14884,0.030029,0.133301,1.07373,3.610687,2.244275,-1.061069,1.08239,4.381746,1026,1733,707,1026,0,10.791,19,load
1780605225.6205468,14.768215799995232,14914,0.039795,-0.057617,1.034668,0.557252,3.091603,-0.709924,1.037035,3.220641,1026,1734,708,1026,1,10.791,62,load
1780605225.6512215,14.798890599995502,14946,0.064697,-0.138916,1.053955,1.740458,3.366412,-0.679389,1.065037,3.850129,1027,1735,708,1027,0,14.337,18,load
1780605225.682096,14.829765000002226,14977,0.049561,-0.096191,1.053467,0.465649,2.877863,-0.068702,1.05901,2.916101,1027,1735,708,1027,0,14.337,18,load
1780605225.7130413,14.860710499997367,15008,0.050049,-0.161621,1.056885,0.832061,2.648855,-0.725191,1.070342,2.86961,1028,1737,709,1028,0,14.337,17,load
1780605225.7443826,14.892051700007869,15039,0.044434,-0.161865,1.057617,0.587786,3.007634,-0.335878,1.070854,3.082883,1028,1737,709,1028,0,14.337,17,load
1780605225.7766302,14.924299300007988,15071,0.03833,-0.057617,1.04834,0.122137,2.236641,-0.603053,1.050621,2.319732,1028,1738,710,1028,1,14.337,57,load
1780605225.8071089,14.95477789999859,15102,0.053711,-0.015381,1.050537,0.259542,3.374046,-0.526718,1.052022,3.42476,1029,1739,710,1029,0,14.337,17,load
1780605225.8381674,14.985836599997128,15133,0.040771,-0.026367,1.048828,0.160305,3.045802,-0.10687,1.049951,3.051889,1029,1739,710,1029,0,14.337,17,load
1780605225.8695643,15.017233300008229,15164,0.040039,-0.122314,1.05542,0.671756,2.496183,-1.564886,1.063238,3.021763,1030,1741,711,1030,0,14.337,13,load
1780605225.900372,15.048041000001831,15195,0.032715,0.109131,1.068115,2.832061,2.343511,-1.030534,1.074174,3.817672,1030,1741,711,1030,0,14.337,13,load
1780605225.9309487,15.078617799998028,15226,0.04834,-0.057861,1.04541,2.29771,2.763359,-0.938931,1.048126,3.71446,1030,1742,712,1030,1,10.714,64,load
1780605225.9640603,15.111729500000365,15257,0.053223,-0.094971,1.044434,2.320611,3.206107,-0.59542,1.050092,4.00236,1031,1743,712,1031,0,10.714,21,load
1780605225.993656,15.141325100004906,15288,0.040283,-0.116943,1.044189,2.442748,2.480916,-0.114504,1.05149,3.483543,1031,1743,712,1031,0,10.714,21,load
1780605226.024278,15.171947099996032,15319,0.041992,-0.071045,1.055176,0.48855,3.244275,-1.320611,1.058398,3.536667,1031,1744,713,1031,1,10.714,70,load
1780605226.0557017,15.203370800008997,15351,0.037598,-0.09082,1.057129,0.083969,3.022901,-1.122137,1.061689,3.22555,1032,1745,713,1032,0,10.714,22,load
1780605226.0879223,15.23559130000649,15382,0.041504,-0.072754,1.062744,0.801527,3.045802,0.015267,1.06604,3.149538,1032,1745,713,1032,0,10.714,22,load
1780605226.1185503,15.26621940000041,15413,0.039062,0.110107,1.063721,3.961832,2.435115,-1.328244,1.070117,4.836334,1032,1746,714,1032,1,10.714,69,load
1780605226.1495786,15.297247700000298,15444,0.040283,-0.177246,1.054443,1.679389,2.900763,-1.091603,1.069995,3.525106,1033,1747,714,1033,0,10.714,21,load
1780605226.1798444,15.32751350000035,15475,0.046631,0.074707,1.060547,3.007634,2.549618,0.045802,1.064197,3.94316,1033,1747,714,1033,0,10.714,21,load
1780605226.211846,15.3595151000045,15506,0.045654,-0.151611,1.055176,0.450382,2.549618,-1.549618,1.066989,3.017402,1034,1749,715,1034,0,14.286,14,load
1780605226.243659,15.391327999997884,15538,0.051025,0.042236,1.037354,3.916031,2.870229,-0.007634,1.039466,4.855262,1034,1750,716,1034,1,14.286,39,load
1780605226.2745616,15.422230700001819,15569,0.05127,-0.102295,1.052978,0.221374,2.061069,-0.343511,1.059177,2.101193,1035,1751,716,1035,0,14.286,10,load
1780605226.3056755,15.453344599998672,15600,0.044922,0.033203,1.06543,0.038168,2.48855,0.725191,1.066893,2.592342,1036,1753,717,1036,0,14.286,4,load
1780605226.3369617,15.48463079999783,15631,0.059326,-0.05249,1.047363,-1.076336,1.80916,-1.198473,1.050355,2.422375,1037,1755,718,1037,0,14.286,1,load
1780605226.3680649,15.51573400000052,15662,0.013428,-0.06665,1.058106,3.022901,2.587786,-2.19084,1.060288,4.542504,1040,1760,720,1040,1,14.286,15,load
1780605226.398708,15.546377100006794,15693,0.041992,-0.036133,1.035156,1.022901,3.114504,-5.08397,1.036638,6.049232,1042,1763,721,1042,0,14.286,5,load
1780605226.4298134,15.57748239999637,15724,0.018799,-0.054199,1.054932,1.458015,2.091603,-1.465649,1.05649,2.940874,1044,1767,723,1044,0,14.286,0,load
1780605226.4616942,15.60936319999746,15755,0.033936,-0.049072,1.050293,1.068702,2.648855,-2.198473,1.051986,3.60442,1047,1772,725,1047,1,14.286,14,load
1780605226.4911325,15.638801499997498,15786,0.036865,-0.005615,1.065186,1.473282,2.793893,-0.389313,1.065838,3.182446,1052,1779,727,1052,0,64.286,0,load
1780605226.5230153,15.670684400000027,15817,0.050049,-0.032471,1.042725,1.931298,2.664122,-1.618321,1.04443,3.666936,1053,1781,728,1053,0,64.286,5,load
1780605226.5528235,15.700492600008147,15848,0.063477,-0.009521,1.035644,2.198473,3.763359,-0.015267,1.037632,4.358485,1057,1787,730,1057,0,64.286,6,load
1780605226.5852385,15.732907500001602,15879,0.068604,-0.011475,1.074219,0.175573,2.419847,-0.267176,1.076468,2.440875,1061,1793,732,1061,0,64.286,0,load
1780605226.6159554,15.763624500003061,15910,0.047363,-0.03418,1.044189,1.89313,2.984733,-1.778626,1.045822,3.956777,1063,1800,737,1063,1,64.286,13,load
1780605226.6464963,15.794165400002385,15941,0.030762,-0.031494,1.068359,1.763359,3.129771,-1.076336,1.069266,3.75012,1068,1807,739,1068,0,64.286,1,load
1780605226.6780515,15.82572049999726,15972,0.044678,-0.045898,1.05542,1.374046,3.076336,-0.435114,1.057362,3.39723,1070,1811,741,1070,0,64.286,1,load
1780605226.7088592,15.856528400006937,16003,0.047607,-0.071533,1.046143,1.091603,3.236641,-2.412214,1.049666,4.181652,1072,1814,742,1072,1,64.286,16,load
1780605226.7401419,15.887811000007787,16034,0.041016,-0.031738,1.065674,0.801527,2.549618,-1.328244,1.066935,2.984498,1077,1821,744,1077,0,64.286,0,load
1780605226.770672,15.918341199998395,16065,0.034424,-0.054443,1.02832,1.687023,2.801527,-1.183206,1.030336,3.477726,1079,1826,747,1079,1,96.774,14,load
1780605226.8024712,15.950140200002352,16097,0.040039,-0.038818,1.053223,1.709924,2.59542,-0.793893,1.054698,3.207851,1085,1835,750,1085,0,96.774,1,load
1780605226.8337886,15.981457700007013,16128,0.04126,-0.038818,1.059082,0.908397,3.229008,-0.412214,1.060596,3.379585,1087,1839,752,1087,0,96.774,1,load
1780605226.8648772,16.012546300000395,16159,0.028564,-0.042969,1.046875,1.885496,3.641221,-1.259542,1.048146,4.289526,1090,1844,754,1090,1,96.774,14,load
1780605226.8950815,16.042750499997055,16190,0.025391,-0.018066,1.062744,0.839695,2.541985,-0.748092,1.063201,2.779643,1093,1849,756,1093,0,96.774,0,load
1780605226.9261918,16.073860999997123,16221,0.031738,-0.040771,1.060547,1.549618,2.259542,-1.251908,1.061805,3.012328,1095,1853,758,1095,0,96.774,0,load
1780605226.957738,16.105406999995466,16252,0.06543,-0.028076,1.049561,2.870229,3.839695,-0.664122,1.051973,4.839682,1100,1859,759,1100,0,96.774,6,load
1780605226.988531,16.136200299995835,16283,0.05542,-0.013184,1.062256,1.442748,3.374046,-0.038168,1.063782,3.669764,1105,1867,762,1105,0,96.774,0,load
1780605227.0196106,16.167279800007236,16314,0.043213,-0.005127,1.05542,2.450382,3.21374,-0.755725,1.056317,4.111401,1107,1872,765,1107,1,96.774,13,load
1780605227.0510638,16.198732899996685,16345,0.024658,-0.014404,1.067627,1.748092,2.435115,-0.778626,1.068009,3.097074,1111,1877,766,1111,0,114.286,5,load
1780605227.0824473,16.230116399994586,16376,0.024658,-0.028564,1.059326,1.320611,2.770992,-1.251908,1.059998,3.31507,1112,1879,767,1112,0,114.286,5,load
1780605227.1124854,16.260154500007047,16407,0.056152,-0.003662,1.036377,2.709924,3.015267,-1.236641,1.037903,4.23849,1116,1885,769,1116,0,114.286,5,load
1780605227.144663,16.292332199998782,16438,0.056152,-0.024658,1.068848,0.366412,2.473282,-0.335878,1.070606,2.522736,1120,1891,771,1120,0,114.286,0,load
1780605227.1758292,16.32349830000021,16469,0.033203,-0.036865,1.044678,1.687023,2.870229,-0.732824,1.045855,3.409002,1123,1900,777,1123,1,114.286,3,load
1780605227.2070363,16.354705400008243,16501,0.064697,-0.038086,1.07666,1.748092,3.244275,-0.793893,1.079274,3.769802,1128,1907,779,1128,0,114.286,1,load
1780605227.2396033,16.38727239999571,16533,0.015625,-0.053223,1.063477,1.687023,2.236641,-0.832061,1.064922,2.922488,1130,1911,781,1130,0,114.286,1,load
1780605227.2695847,16.417253699997673,16564,0.052002,0.005371,1.037354,2.427481,4.08397,-0.709924,1.03867,4.803693,1133,1915,782,1133,0,114.286,5,load
1780605227.3006468,16.44831580000755,16594,0.025146,-0.013916,1.057861,0.793893,2.862595,-0.48855,1.058252,3.010548,1137,1921,784,1137,0,114.286,1,load
1780605227.3326044,16.480273499997566,16625,0.039062,-0.047852,1.039062,1.977099,2.862595,-1.061069,1.040897,3.637202,1139,1926,787,1139,1,100.0,14,load
1780605227.361733,16.509402099996805,16656,0.042725,-0.042969,1.058106,1.938931,3.259542,-0.847328,1.059839,3.886134,1145,1934,789,1145,0,100.0,3,load
1780605227.392373,16.540042100008577,16687,0.061768,-0.028076,1.054688,0.656489,3.10687,-0.473282,1.056868,3.210548,1148,1939,791,1148,0,100.0,0,load
1780605227.424488,16.572157100003096,16718,0.037598,-0.049561,1.05249,1.80916,3.870229,-1.129771,1.054327,4.419062,1150,1944,794,1150,1,100.0,13,load
1780605227.4558117,16.603480699996,16749,0.046875,-0.032227,1.062744,0.824427,2.656489,-0.694656,1.064265,2.866908,1152,1947,795,1152,0,100.0,5,load
1780605227.4859483,16.633617300001788,16780,0.043457,-0.032959,1.066406,1.557252,2.916031,-1.290076,1.0678,3.5486,1154,1951,797,1154,0,100.0,1,load
1780605227.5207636,16.66843269999663,16810,0.036377,-0.008789,1.03833,2.78626,3.412214,-0.992366,1.039004,4.515666,1158,1957,799,1158,0,100.0,5,load
1780605227.554147,16.70181600000069,16847,0.040039,-0.037354,1.060547,1.534351,2.694656,-1.038168,1.06196,3.270046,1163,1965,802,1163,0,100.0,1,load
1780605227.5841944,16.731863399996655,16878,0.055908,-0.020508,1.048584,2.564885,4.015268,-0.80916,1.050274,4.832778,1167,1971,804,1167,0,110.672,5,load
1780605227.6139853,16.761654400004772,16909,0.039551,0.00708,1.055908,0.748092,3.198473,-0.167939,1.056672,3.289084,1171,1977,806,1171,0,110.672,0,load
1780605227.6466432,16.794312300000456,16940,0.042725,-0.014404,1.058106,2.175573,3.068702,-0.992366,1.059066,3.890352,1172,1980,808,1172,1,110.672,17,load
1780605227.677617,16.825286200008122,16972,0.046631,-0.009277,1.068115,1.045802,2.916031,-0.618321,1.069173,3.158996,1177,1987,810,1177,0,110.672,0,load
1780605227.7077007,16.855369800003245,17003,0.051758,-0.0354,1.062744,1.389313,2.70229,-1.519084,1.064592,3.397084,1179,1991,812,1179,0,110.672,0,load
1780605227.7390213,16.886690300001646,17034,0.061035,-0.004639,1.04248,2.114504,3.877863,-0.564886,1.044276,4.452869,1184,1999,815,1184,0,110.672,6,load
1780605227.7709835,16.918652499996824,17065,0.063477,-0.012695,1.05957,0.48855,2.732824,-0.725191,1.061546,2.869305,1188,2005,817,1188,0,110.672,1,load
1780605227.8010924,16.94876149999618,17096,0.025635,-0.003906,1.037354,2.122137,3.419847,-0.51145,1.037678,4.057142,1190,2010,820,1190,1,110.672,13,load
1780605227.83183,16.979499000008218,17127,0.036865,-0.011719,1.0625,2.099237,3.137405,-0.351145,1.063204,3.791227,1193,2015,822,1193,0,110.672,1,load
1780605227.8627396,17.010408600006485,17158,0.037354,-0.040771,1.046143,1.320611,3.480916,-0.519084,1.047603,3.759021,1195,2019,824,1195,0,100.0,0,load
1780605227.8945782,17.042247300007148,17189,0.028809,-0.024414,1.040527,3.099237,4.244274,-0.725191,1.041212,5.30519,1198,2024,826,1198,1,100.0,14,load
1780605227.9256651,17.073334300002898,17221,0.071777,-0.01709,1.063721,0.557252,2.641221,-0.351145,1.066277,2.72211,1204,2033,829,1204,0,100.0,0,load
1780605227.9571366,17.104805700000725,17251,0.048096,-0.071045,1.047852,1.40458,2.80916,-0.908397,1.051358,3.269466,1206,2037,831,1206,1,100.0,0,load
1780605227.9882002,17.13586930000747,17282,0.04541,-0.037842,1.067871,1.832061,3.167939,-0.793893,1.069506,3.74467,1211,2043,832,1211,0,100.0,6,load
1780605228.0182917,17.16596070000378,17313,0.05127,-0.021973,1.056641,0.671756,3.129771,-0.183206,1.058112,3.206288,1212,2045,833,1212,0,100.0,5,load
1780605228.0485165,17.196185499997227,17344,0.054443,-0.050049,1.058594,1.992366,3.557252,-1.274809,1.061174,4.27185,1213,2048,835,1213,1,100.0,17,load
1780605228.0791152,17.226784300000872,17374,0.042725,-0.015869,1.063232,1.778626,2.984733,-0.625954,1.064209,3.530434,1218,2055,837,1218,0,100.0,1,load
1780605228.111487,17.259155899999314,17405,0.046143,-0.022705,1.054932,1.473282,2.450382,-0.671756,1.056184,2.937037,1221,2061,840,1221,0,100.0,0,load
1780605228.1427863,17.29045529999712,17437,0.062744,-0.022949,1.049805,2.389313,3.534351,-0.694656,1.051928,4.322384,1225,2067,842,1225,0,107.527,6,load
1780605228.1745112,17.322180200004368,17469,0.051025,-0.01709,1.058838,1.427481,3.625954,0.091603,1.060204,3.897902,1229,2073,844,1229,0,107.527,0,load
1780605228.204543,17.352212300000247,17500,0.050537,-0.006836,1.054443,2.259542,3.076336,-0.748092,1.055676,3.889603,1230,2076,846,1230,1,107.527,17,load
1780605228.2358918,17.383560800008127,17531,0.042236,-0.00708,1.072266,1.748092,3.091603,-0.824427,1.07312,3.646027,1234,2081,847,1234,0,107.527,5,load
1780605228.2680779,17.415747000006377,17562,0.025391,-0.027344,1.051025,1.541985,1.801527,-1.206107,1.051688,2.660434,1236,2085,849,1236,0,107.527,0,load
1780605228.2998793,17.447548500000266,17593,0.05249,0.011475,1.044189,2.48855,3.992366,-1.198473,1.045571,4.85471,1241,2093,852,1241,0,107.527,5,load
1780605228.3289099,17.476578900008462,17624,0.040283,-0.009277,1.055176,0.732824,3.122137,-0.778626,1.055985,3.300156,1245,2099,854,1245,0,107.527,0,load
1780605228.3599207,17.507589900007588,17655,0.046875,0.000977,1.053467,1.70229,2.656489,-0.015267,1.05451,3.155148,1247,2104,857,1247,1,107.527,14,load
1780605228.3928595,17.54052860000229,17687,0.038574,-0.038086,1.067383,2.618321,3.030534,-0.839695,1.068758,4.092045,1257,2115,858,1257,0,128.0,0,load
1780605228.4231591,17.570828099997016,17718,0.036865,-0.011963,1.057617,1.610687,2.877863,-0.694656,1.058327,3.370305,1258,2117,859,1258,0,128.0,5,load
1780605228.4541981,17.601867300007143,17749,0.036133,-0.056152,1.042969,3.030534,3.709924,-1.030534,1.045104,4.899967,1261,2122,861,1261,0,128.0,14,load
1780605228.4858503,17.633519499999238,17780,0.031738,-0.042725,1.067871,0.70229,2.526718,-0.641221,1.069197,2.699755,1267,2131,864,1267,0,128.0,1,load
1780605228.516293,17.663962100006756,17811,0.056641,-0.062256,1.052734,1.328244,2.374046,-0.977099,1.056094,2.89051,1269,2135,866,1269,0,128.0,0,load
1780605228.5476694,17.695338500008802,17842,0.032715,-0.045898,1.062744,1.748092,2.870229,-1.0,1.064238,3.506286,1274,2141,867,1274,0,128.0,6,load
1780605228.5788155,17.726484500002698,17873,0.041748,-0.022217,1.046875,0.175573,3.244275,-0.152672,1.047943,3.252607,1275,2143,868,1275,0,128.0,5,load
1780605228.6096754,17.757344500001636,17904,0.057861,-0.061035,1.054932,1.038168,2.854962,-1.21374,1.058279,3.271355,1277,2148,871,1277,1,128.0,14,load
1780605228.6403215,17.78799060000165,17935,0.046631,-0.006592,1.066406,1.557252,2.709924,-0.709924,1.067446,3.205107,1282,2155,873,1282,0,128.0,0,load
1780605228.6720948,17.819763799998327,17966,0.053467,-0.020996,1.058594,1.687023,2.748092,-1.435114,1.060151,3.529534,1286,2161,875,1286,0,103.943,0,load
1780605228.7041082,17.85177730000578,17998,0.068604,-0.047363,1.045898,1.839695,3.656489,-0.687023,1.049216,4.150468,1289,2167,878,1289,0,103.943,6,load
1780605228.735691,17.88336020000861,18030,0.041992,-0.028076,1.058838,0.679389,2.862595,-0.587786,1.060042,3.000252,1293,2173,880,1293,0,103.943,1,load
1780605228.767108,17.9147770999989,18061,0.065186,-0.045898,1.038574,1.931298,4.076336,-0.625954,1.04163,4.553926,1294,2176,882,1294,1,103.943,17,load
1780605228.7974854,17.94515450000472,18092,0.027588,0.000244,1.062012,1.70229,2.541985,-0.358779,1.06237,3.080292,1299,2183,884,1299,0,103.943,0,load
1780605228.827489,17.97515790000034,18122,0.045654,-0.033691,1.046875,0.641221,2.526718,-0.122137,1.048412,2.609671,1301,2187,886,1301,0,103.943,1,load
1780605228.8587403,18.00640929999645,18153,0.018799,-0.044678,1.050537,2.236641,3.068702,-1.587786,1.051655,4.115892,1306,2194,888,1306,1,103.943,14,load
1780605228.8906455,18.03831469999568,18185,0.050537,-0.036865,1.048584,1.389313,4.007634,0.076336,1.050448,4.242304,1311,2201,890,1311,0,103.943,1,load
1780605228.922184,18.069853100008913,18216,0.023926,-0.081299,1.05249,1.748092,2.862595,-0.80916,1.055896,3.450365,1312,2203,891,1312,0,104.0,5,load
1780605228.9521463,18.09981539999717,18247,0.057373,-0.023682,1.045654,2.351145,3.51145,-0.709924,1.047495,4.285109,1317,2209,892,1317,0,104.0,6,load
1780605228.9827988,18.130467800001497,18278,0.054443,0.006348,1.046875,1.48855,4.160306,0.572519,1.048309,4.455524,1321,2215,894,1321,0,104.0,0,load
1780605229.0140426,18.161711699998705,18309,0.047607,-0.029053,1.056152,1.435114,2.442748,-0.748092,1.057624,2.930224,1323,2220,897,1323,1,104.0,14,load
1780605229.0462604,18.19392940000398,18340,0.05249,-0.061279,1.042236,3.145038,3.633588,-0.412214,1.045355,4.823292,1327,2225,898,1327,0,104.0,6,load
1780605229.0761998,18.2238689000078,18371,0.071045,0.004639,1.044189,1.961832,4.32061,-0.984733,1.046614,4.846252,1328,2227,899,1328,0,104.0,6,load
1780605229.1257286,18.273397700002533,18402,0.044678,-0.071289,1.052246,1.244275,2.793893,0.145038,1.055604,3.061878,1329,2229,900,1329,0,104.0,4,load
1780605229.139098,18.286767099998542,18433,0.015869,-0.002686,1.041748,2.320611,3.412214,1.007634,1.041872,4.247795,1331,2232,901,1331,1,104.0,16,load
1780605229.1696777,18.31734690000303,18464,0.031006,-0.041748,1.061768,2.137405,2.931298,-0.40458,1.06304,3.6503,1333,2235,902,1333,0,104.0,5,load
1780605229.199568,18.347236999994493,18494,0.040527,-0.042969,1.048828,2.236641,4.389313,-0.969466,1.05049,5.020806,1334,2237,903,1334,0,79.137,6,load
1780605229.2303565,18.37802560000273,18524,0.059326,-0.044678,1.038818,2.328244,3.450382,-1.908397,1.04147,4.579065,1335,2239,904,1335,0,79.137,6,load
1780605229.2613027,18.408971900003962,18555,0.025635,-0.048096,1.04834,2.152672,2.694656,-1.664122,1.049756,3.829422,1336,2241,905,1336,0,79.137,7,load
1780605229.2910738,18.438742800004547,18586,0.006836,0.020752,1.064209,1.229008,2.648855,-1.022901,1.064433,3.094062,1337,2243,906,1337,0,79.137,6,load
1780605229.322694,18.470363100001123,18617,0.050293,-0.075439,1.064209,1.839695,2.778626,-0.282443,1.068064,3.3444,1338,2245,907,1338,0,79.137,5,load
1780605229.3538215,18.50149049999891,18648,0.04834,-0.022949,1.057617,1.076336,3.519084,-1.48855,1.05897,3.969664,1339,2247,908,1339,0,79.137,5,load
1780605229.385102,18.53277099999832,18679,0.034912,0.035889,1.059082,0.847328,3.671756,0.259542,1.060265,3.777184,1340,2249,909,1340,0,79.137,6,load
1780605229.416172,18.563841199997114,18710,0.02124,-0.074707,1.06958,1.091603,2.740458,0.122137,1.072396,2.952393,1341,2251,910,1341,0,79.137,6,load
1780605229.447453,18.59512199999881,18741,0.032959,-0.088867,1.056152,1.519084,1.687023,0.076336,1.060397,2.271451,1342,2253,911,1342,0,79.137,7,load
1780605229.4775307,18.625199700007215,18772,0.049072,-0.006836,1.065186,0.89313,2.534351,-0.083969,1.066337,2.688432,1343,2255,912,1343,0,32.374,7,load
1780605229.509138,18.65680720000819,18803,0.02832,-0.036377,1.056152,1.709924,2.358779,-0.969466,1.057158,3.07043,1344,2257,913,1344,0,32.374,7,load
1780605229.5402877,18.687956900001154,18834,0.023682,-0.059814,1.064209,1.80916,2.671756,-1.519084,1.066152,3.566365,1345,2259,914,1345,0,32.374,7,load
1780605229.5713055,18.71897450000688,18865,0.024658,-0.05957,1.059326,1.969466,2.450382,-1.412214,1.061286,3.446377,1346,2261,915,1346,0,32.374,7,load
1780605229.6033561,18.751025300007313,18897,0.029053,-0.046387,1.059814,1.145038,3.587786,-1.099237,1.061227,3.923218,1347,2263,916,1347,0,32.374,7,load
1780605229.6344154,18.7820844000089,18928,0.035889,0.014404,1.049805,1.51145,3.679389,-0.564886,1.050517,4.017646,1348,2265,917,1348,0,32.374,7,load
1780605229.6661944,18.813863500006846,18960,0.061523,-0.087402,1.063232,2.396947,3.709924,-0.038168,1.068591,4.417052,1349,2267,918,1349,0,32.374,7,load
1780605229.6963975,18.84406659999513,18991,0.060303,-0.033936,1.055908,0.938931,4.389313,-0.160305,1.058173,4.491476,1350,2269,919,1350,0,32.374,7,load
1780605229.7275329,18.875201999995625,19022,0.055176,-0.083984,1.060303,1.480916,2.671756,-1.564886,1.065054,3.432238,1351,2271,920,1351,0,32.0,7,load
1780605229.7588105,18.906479500001296,19053,0.0271,-0.094971,1.082275,2.076336,1.938931,-1.603053,1.086772,3.261963,1352,2273,921,1352,0,32.0,7,load
1780605229.7895532,18.937222299995483,19084,0.063965,-0.088135,1.03125,2.129771,4.236642,-0.419847,1.036984,4.760392,1353,2275,922,1353,0,32.0,8,load
1780605229.820896,18.968565100003616,19115,0.031738,-0.057861,1.050781,1.206107,2.320611,-1.389313,1.052852,2.961439,1353,2276,923,1353,1,32.0,26,load
1780605229.851361,18.999030000006314,19146,0.06665,-0.093506,1.051758,2.251908,3.412214,-0.328244,1.058008,4.101468,1354,2278,924,1354,1,32.0,21,load
1780605229.8820455,19.029714500007685,19177,0.046387,-0.121094,1.057861,1.442748,2.664122,0.244275,1.065779,3.039529,1355,2279,924,1355,0,32.0,10,load
1780605229.9136653,19.061334300000453,19208,0.031982,-0.158936,1.044434,0.816794,2.839695,-0.977099,1.056941,3.112193,1356,2281,925,1356,0,32.0,5,load
1780605229.9443545,19.092023599994718,19239,0.055908,-0.036133,1.035156,2.48855,3.183206,-0.664122,1.037294,4.094721,1357,2283,926,1357,0,32.0,8,load
1780605229.975516,19.123185200005537,19270,0.035889,0.136963,1.051514,1.938931,2.854962,-1.21374,1.061003,3.658337,1357,2284,927,1357,1,32.0,32,load
1780605230.0066104,19.154279499998665,19301,0.036865,0.124512,1.056152,1.694656,3.160305,0.526718,1.064105,3.624476,1358,2285,927,1358,0,25.09,17,load
1780605230.0373657,19.18503469999996,19332,0.03418,0.125977,1.077148,1.931298,3.114504,-1.312977,1.085029,3.892808,1359,2287,928,1359,0,25.09,1,load
1780605230.0691907,19.21685989999969,19363,0.047852,0.134277,1.065674,1.335878,2.992366,-0.587786,1.075166,3.329312,1360,2289,929,1360,0,25.09,9,load
1780605230.118382,19.266050999998697,19394,0.058838,0.161133,1.060303,0.755725,3.717557,-0.572519,1.074089,3.836552,1360,2290,930,1360,1,25.09,32,load
1780605230.1318858,19.27955479999946,19426,0.047852,-0.179443,1.05249,0.053435,3.435115,-0.167939,1.068749,3.439632,1361,2291,930,1361,0,25.09,19,load
1780605230.163331,19.311000200003036,19457,0.033691,-0.224365,1.045654,1.503817,3.160305,-1.251908,1.069985,3.717024,1362,2293,931,1362,0,25.09,0,load
1780605230.1941185,19.341787500001374,19489,0.03125,-0.029785,1.040039,2.534351,3.038168,-0.519084,1.040935,3.990344,1363,2295,932,1363,0,25.09,9,load
1780605230.2255807,19.373249700001907,19519,0.031738,-0.102539,1.039551,0.977099,3.633588,-0.312977,1.045078,3.775664,1364,2297,933,1364,0,25.09,9,load
1780605230.255995,19.403664199999184,19550,0.044189,-0.15918,1.045654,1.282443,2.351145,-0.083969,1.058623,2.679476,1364,2297,933,1364,0,25.09,9,load
1780605230.2869,19.43456910000532,19581,0.037598,-0.160156,1.049561,1.961832,3.381679,-0.89313,1.062375,4.010264,1366,2299,933,1366,0,28.571,1,load
1780605230.3174415,19.46511059999466,19612,0.035645,-0.16333,1.045654,1.19084,3.038168,-0.312977,1.058934,3.278188,1367,2301,934,1367,0,28.571,9,load
1780605230.3482487,19.495917699998245,19643,0.003662,-0.172363,1.040772,2.954198,2.374046,-0.381679,1.054954,3.809076,1368,2303,935,1368,0,28.571,10,load
1780605230.3806753,19.52834430000803,19674,0.018066,0.126221,1.059326,3.419847,2.694656,0.412214,1.066972,4.373379,1368,2304,936,1368,1,28.571,32,load
1780605230.4123502,19.56001919999835,19706,0.035156,0.188721,1.072754,1.89313,2.587786,-1.114504,1.089795,3.39451,1369,2305,936,1369,0,28.571,10,load
1780605230.4440608,19.591729899999336,19738,0.048828,0.167725,1.058838,1.625954,3.206107,-0.603053,1.073151,3.645068,1370,2307,937,1370,0,28.571,9,load
1780605230.474427,19.622096100007184,19769,0.048584,0.139893,1.067139,3.961832,3.0,-0.221374,1.077365,4.974447,1371,2309,938,1371,0,28.571,10,load
1780605230.5053837,19.653052800000296,19800,0.044922,-0.15625,1.057373,-0.564886,3.160305,-0.625954,1.069799,3.270848,1371,2309,938,1371,0,28.571,10,load
1780605230.536595,19.684264199997415,19831,0.034912,-0.090332,1.041504,3.274809,2.030534,-0.778626,1.045997,3.93112,1372,2311,939,1372,0,24.0,3,load
1780605230.5660968,19.7137659,19861,0.046387,-0.081787,1.041748,2.916031,2.885496,-0.29771,1.045983,4.113144,1373,2313,940,1373,0,24.0,10,load
1780605230.5979695,19.74563859999762,19892,0.039795,0.103271,1.059814,2.580153,3.030534,-0.099237,1.065577,3.981353,1373,2314,941,1373,1,24.0,35,load
1780605230.6306026,19.77827170000819,19924,0.04248,-0.275146,1.046631,0.610687,3.267176,-1.358779,1.083026,3.590773,1374,2315,941,1374,0,24.0,11,load
1780605230.6606898,19.808358900001622,19955,0.04834,-0.235352,1.031982,0.51145,3.587786,-1.10687,1.059582,3.789321,1375,2317,942,1375,0,24.0,10,load
1780605230.6929476,19.840616600005887,19986,0.050049,-0.258057,1.05249,0.984733,3.015267,-0.465649,1.08482,3.205989,1375,2318,943,1375,1,24.0,36,load
1780605230.72266,19.870329099998344,20017,0.079102,-0.27124,1.057129,-0.992366,3.48855,-1.587786,1.094235,3.959272,1376,2319,943,1376,0,24.0,13,load
1780605230.753551,19.9012201000005,20048,0.023682,-0.11499,1.050293,0.618321,2.824427,-1.541985,1.056834,3.276801,1377,2321,944,1377,0,24.0,10,load
1780605230.7849534,19.932622399996035,20079,0.043701,0.17041,1.060059,-1.435114,2.969466,-1.748092,1.074557,3.732708,1377,2322,945,1377,1,24.0,37,load
1780605230.8179474,19.965616500005126,20111,0.05957,-0.288818,1.04126,-0.748092,4.122138,-2.198473,1.082214,4.731272,1378,2323,945,1378,0,21.429,11,load
1780605230.8487644,19.996433499996783,20143,0.054443,-0.078125,1.040283,1.91603,3.557252,-0.59542,1.044632,4.084084,1379,2325,946,1379,0,21.429,11,load
1780605230.8787918,20.026460799999768,20174,0.049072,-0.139893,1.047607,2.099237,3.610687,-0.129771,1.058045,4.1786,1379,2326,947,1379,1,21.429,36,load
1780605230.9106324,20.058301500001107,20204,0.045166,-0.187012,1.046143,3.389313,3.366412,-0.572519,1.063686,4.811232,1380,2327,947,1380,0,21.429,12,load
1780605230.9400518,20.08772080000199,20235,0.042725,0.171875,1.050293,3.625954,2.709924,0.007634,1.06512,4.52673,1381,2329,948,1381,0,21.429,10,load
1780605230.972865,20.12053410000226,20266,0.024658,-0.220703,1.033936,0.076336,3.206107,-1.007634,1.057516,3.361588,1381,2330,949,1381,1,21.429,34,load
1780605231.0033405,20.15100959999836,20297,0.026855,0.020508,1.063721,0.320611,2.358779,-0.78626,1.064257,2.506957,1382,2331,949,1382,0,21.429,15,load
1780605231.0339887,20.18165779999981,20328,0.036133,0.153809,1.067139,2.89313,3.480916,-0.229008,1.078771,4.532044,1383,2333,950,1383,0,21.429,5,load
1780605231.0693343,20.217003400000976,20359,0.032715,-0.084961,1.039062,3.053435,3.0,-0.320611,1.043043,4.292582,1384,2335,951,1384,0,21.429,9,load
1780605231.0954535,20.243122600004426,20390,0.0354,0.04248,1.044922,3.022901,2.412214,-0.076336,1.046384,3.868143,1384,2336,952,1384,1,21.505,32,load
1780605231.1264684,20.274137400003383,20421,0.039795,-0.19873,1.044189,1.343511,3.19084,-0.564886,1.063677,3.50793,1385,2337,952,1385,0,21.505,13,load
1780605231.1577923,20.305461500000092,20452,0.037598,-0.131592,1.06958,-0.351145,3.152672,-1.198473,1.0783,3.391014,1386,2339,953,1386,0,21.505,8,load
1780605231.188536,20.33620499999961,20483,0.044922,0.179443,1.043701,1.954198,2.366412,-0.870229,1.059967,3.19,1387,2341,954,1387,0,21.505,10,load
1780605231.2207115,20.368380600004457,20514,0.040039,-0.169922,1.040527,2.427481,3.419847,-1.10687,1.05507,4.337416,1387,2341,954,1387,0,21.505,10,load
1780605231.2512822,20.39895129999786,20545,0.044189,0.177734,1.050781,2.954198,3.038168,-0.709924,1.066622,4.296714,1388,2343,955,1388,0,21.505,1,load
1780605231.2814312,20.429100299996207,20576,0.040039,-0.065918,1.057861,0.274809,2.694656,-1.022901,1.060669,2.895344,1389,2345,956,1389,0,21.505,10,load
1780605231.3127239,20.460393000001204,20607,0.034424,0.061523,1.044678,3.816794,2.358779,-0.358779,1.047054,4.501164,1389,2346,957,1389,1,21.505,35,load
1780605231.3451395,20.49280859999999,20638,0.059326,0.013672,1.065918,1.618321,2.946565,-1.045802,1.067655,3.52064,1390,2347,957,1390,0,21.505,13,load
1780605231.374725,20.522394200001145,20669,0.029297,-0.148438,1.031494,1.358779,2.526718,-0.175573,1.042532,2.874266,1391,2349,958,1391,0,25.09,10,load
1780605231.4062586,20.55392770000617,20700,0.057129,0.126221,1.059814,0.656489,3.251908,-1.473282,1.068832,3.629938,1391,2350,959,1391,1,25.09,33,load
1780605231.4372864,20.58495540000149,20731,0.067627,0.101807,1.070068,2.450382,3.412214,-0.51145,1.077026,4.231921,1392,2351,959,1392,0,25.09,18,load
1780605231.4684694,20.616138400000636,20762,0.05542,-0.019775,1.082764,0.358779,2.526718,-1.335878,1.084361,2.880554,1393,2353,960,1393,0,25.09,2,load
1780605231.4985373,20.64620640000794,20793,0.04248,0.015381,1.064453,0.694656,3.358779,-0.274809,1.065411,3.440852,1394,2355,961,1394,0,25.09,8,load
1780605231.5305219,20.67819099999906,20824,0.039551,-0.015625,1.04834,1.076336,3.030534,-0.557252,1.049202,3.263919,1395,2357,962,1395,0,25.09,8,load
1780605231.5614865,20.70915560000867,20855,0.046875,-0.047363,1.067627,1.778626,2.854962,-0.923664,1.069704,3.48819,1396,2359,963,1396,0,25.09,6,load
1780605231.5907571,20.738426099997014,20886,0.047119,-0.025635,1.052734,0.923664,2.740458,-0.984733,1.0541,3.05499,1397,2361,964,1397,0,25.09,4,load
1780605231.6218526,20.76952159999928,20916,0.051758,-0.030762,1.0625,1.954198,2.793893,-1.305344,1.064205,3.650843,1400,2366,966,1400,1,25.09,15,load
1780605231.6533933,20.801062300000922,20947,0.054932,-0.021484,1.060547,1.870229,3.122137,-0.541985,1.062186,3.679572,1405,2373,968,1405,0,50.36,0,load
1780605231.6837766,20.83144560000801,20978,0.060791,-0.038574,1.057861,1.862595,3.732824,-0.083969,1.060308,4.172564,1407,2377,970,1407,0,50.36,0,load
1780605231.7142031,20.861872099994798,21009,0.036865,-0.044922,1.048584,2.038168,3.519084,-0.992366,1.050193,4.186033,1410,2382,972,1410,1,50.36,14,load
1780605231.7455957,20.893264800004545,21040,0.050537,-0.017578,1.061523,0.603053,3.21374,-0.381679,1.062871,3.292033,1415,2389,974,1415,0,50.36,1,load
1780605231.7769501,20.924619299999904,21071,0.020752,-0.014404,1.060547,0.78626,2.977099,-0.801527,1.060848,3.181787,1417,2393,976,1417,0,50.36,0,load
1780605231.8077476,20.955416700002388,21102,0.047363,-0.035156,1.062012,1.755725,2.832061,-0.618321,1.063648,3.389021,1421,2399,978,1421,0,50.36,5,load
1780605231.8384247,20.98609380000562,21133,0.052734,-0.008545,1.054932,1.076336,2.992366,-0.755725,1.056283,3.26862,1423,2403,980,1423,0,50.36,0,load
1780605231.8705914,21.018260500000906,21164,0.04248,-0.023926,1.053223,2.030534,3.145038,-0.977099,1.05435,3.868987,1425,2408,983,1425,1,50.36,15,load
1780605231.9019756,21.0496448000049,21196,0.037109,-0.017822,1.054199,1.641221,2.969466,-0.847328,1.055003,3.497042,1431,2417,986,1431,0,50.36,0,load
1780605231.933115,21.080784100005985,21227,0.059326,-0.048828,1.05542,2.038168,3.145038,-0.755725,1.058213,3.823155,1433,2421,988,1433,0,100.0,0,load
1780605231.9642558,21.11192480000318,21258,0.046387,-0.013428,1.040527,2.916031,3.076336,-1.10687,1.041647,4.380894,1437,2427,990,1437,0,100.0,6,load
1780605231.9944615,21.14213049999671,21289,0.047363,-0.028809,1.059814,0.610687,2.740458,-1.030534,1.061263,2.990828,1439,2431,992,1439,0,100.0,1,load
1780605232.026095,21.173763900005724,21320,0.030273,-0.036865,1.048828,1.21374,3.045802,-0.274809,1.049912,3.290227,1441,2435,994,1441,0,100.0,0,load
1780605232.0574455,21.205114700002014,21351,0.035889,-0.027344,1.056641,1.366412,3.480916,1.076336,1.057604,3.891318,1446,2441,995,1446,0,100.0,6,load
1780605232.0901117,21.237780700001167,21382,0.012939,-0.093262,1.058838,0.832061,3.534351,11.725191,1.063016,12.274529,1449,2445,996,1449,0,100.0,6,load
1780605232.12044,21.268109199998435,21415,0.011963,-0.047607,1.069336,1.832061,3.526718,-0.183206,1.070462,3.97841,1450,2447,997,1450,0,100.0,6,load
1780605232.150685,21.298354099999415,21446,0.036377,-0.033203,1.051758,2.572519,2.274809,-2.122137,1.05291,4.03684,1451,2449,998,1451,0,100.0,4,load
1780605232.1828873,21.33055630000308,21476,0.039551,-0.161621,1.05249,1.351145,3.053435,-1.198473,1.065562,3.54759,1452,2451,999,1452,0,100.0,7,load
1780605232.212654,21.360323300003074,21507,0.036621,0.054932,1.0625,2.648855,3.198473,-1.312977,1.064549,4.355522,1453,2453,1000,1453,0,71.429,11,load
1780605232.2440288,21.391697900005965,21538,0.036377,0.03833,1.050293,2.549618,2.793893,0.015267,1.051622,3.78241,1453,2453,1000,1453,0,71.429,11,load
1780605232.2752638,21.422932800007402,21569,0.041992,-0.015625,1.069092,2.259542,2.885496,-0.709924,1.07003,3.733043,1454,2455,1001,1454,0,71.429,13,load
1780605232.3064647,21.45413379999809,21600,0.050293,-0.076172,1.040772,0.694656,3.450382,-0.183206,1.044766,3.524379,1454,2455,1001,1454,0,71.429,13,load
1780605232.3386679,21.48633690000861,21632,0.053955,0.0354,1.05542,2.48855,3.183206,-0.450382,1.057391,4.065528,1455,2457,1002,1455,0,71.429,9,load
1780605232.3695874,21.51725639999495,21663,0.043945,0.066162,1.061035,2.954198,2.832061,0.145038,1.064004,4.094984,1455,2458,1003,1455,1,71.429,40,load
1780605232.4004312,21.54810030000226,21694,0.043945,-0.033691,1.046143,1.763359,2.954198,-0.374046,1.047607,3.460727,1456,2459,1003,1456,0,71.429,13,load
1780605232.431696,21.57936509999854,21725,0.040771,-0.155273,1.044189,1.358779,3.145038,-1.519084,1.056458,3.747687,1457,2461,1004,1457,0,71.429,11,load
1780605232.462723,21.610392100003082,21756,0.038818,-0.14917,1.068115,0.694656,2.89313,-0.59542,1.07918,3.034349,1457,2462,1005,1457,1,71.429,37,load
1780605232.4939933,21.641662299996824,21788,0.037598,-0.17749,1.060547,0.068702,3.51145,-1.244275,1.075954,3.72602,1458,2463,1005,1458,0,17.794,11,load
1780605232.526225,21.6738941000076,21820,0.040527,-0.075439,1.061279,0.923664,2.419847,-1.931298,1.064729,3.230902,1459,2465,1006,1459,0,17.794,12,load
1780605232.5572474,21.70491640000546,21851,0.030273,0.043457,1.064697,2.732824,3.015267,-0.748092,1.066014,4.137608,1459,2466,1007,1459,1,17.794,37,load
1780605232.588789,21.736457999999402,21883,0.052246,0.124268,1.049316,2.916031,2.862595,-0.366412,1.05794,4.102676,1460,2467,1007,1460,0,17.794,11,load
1780605232.6192544,21.76692350000667,21914,0.029785,-0.070801,1.048096,1.480916,2.664122,-0.908397,1.050907,3.180542,1461,2469,1008,1461,0,17.794,11,load
1780605232.6519222,21.799591300004977,21945,0.029785,-0.115967,1.056396,0.709924,2.801527,-1.091603,1.06316,3.089359,1461,2469,1008,1461,0,17.794,11,load
1780605232.6834567,21.831125800003065,21977,0.025879,-0.127197,1.038574,-0.267176,3.549618,-0.656489,1.046654,3.619689,1462,2471,1009,1462,0,17.794,3,load
1780605232.7145967,21.86226579999493,22009,0.055908,0.098145,1.055664,3.396947,2.709924,-1.137405,1.06169,4.49184,1463,2473,1010,1463,0,17.794,10,load
1780605232.7475376,21.895206600005622,22040,0.055908,0.018066,1.076172,0.526718,2.954198,-1.152672,1.077774,3.214556,1463,2474,1011,1463,1,19.841,35,load
1780605232.7782035,21.925872599997092,22072,0.060303,-0.08667,1.072998,1.312977,2.40458,-1.480916,1.07818,3.114326,1464,2475,1011,1464,0,19.841,11,load
1780605232.8094664,21.957135400007246,22102,0.037354,-0.055908,1.067139,0.854962,2.236641,-1.694656,1.069255,2.933494,1465,2477,1012,1465,0,19.841,6,load
1780605232.8388722,21.986541300007957,22134,0.04541,-0.006348,1.058838,0.954198,2.29771,-0.274809,1.05983,2.503095,1466,2479,1013,1466,0,19.841,7,load
1780605232.8694537,22.017122699995525,22164,0.038574,-0.043213,1.055664,1.312977,3.328244,0.083969,1.057252,3.57885,1467,2481,1014,1467,0,19.841,6,load
1780605232.9007282,22.048397200007457,22195,0.019775,-0.036133,1.051758,2.587786,2.015267,-1.145038,1.052564,3.474054,1468,2483,1015,1468,0,19.841,5,load
1780605232.9318953,22.079564300001948,22226,0.034912,-0.041504,1.055908,1.480916,2.770992,-1.274809,1.0573,3.390671,1470,2486,1016,1470,1,19.841,18,load
1780605232.9632134,22.110882499997388,22257,0.052246,-0.020508,1.056885,0.961832,2.473282,-0.70229,1.058374,2.745079,1473,2491,1018,1473,0,19.841,1,load
1780605232.9946296,22.14229879999766,22288,0.045166,-0.026367,1.046387,1.694656,3.244275,-0.671756,1.047693,3.721348,1475,2495,1020,1475,0,19.841,0,load
1780605233.025926,22.173595100000966,22319,0.048828,-0.005127,1.053955,1.412214,3.045802,-0.29771,1.055098,3.370443,1476,2498,1022,1476,1,46.595,18,load
1780605233.0558653,22.203534400003264,22350,0.043213,-0.026123,1.072022,1.274809,3.503817,-0.358779,1.07321,3.745743,1481,2505,1024,1481,0,46.595,1,load
1780605233.0867803,22.234449399998994,22381,0.022461,-0.025391,1.048096,1.267176,3.030534,-0.648855,1.048644,3.348266,1483,2509,1026,1483,0,46.595,0,load
1780605233.1392248,22.286893800002872,22412,0.075684,-0.043213,1.05542,1.137405,4.251908,-0.549618,1.059012,4.435594,1486,2516,1030,1486,1,46.595,14,load
1780605233.154616,22.30228530000022,22449,0.049072,-0.030273,1.054688,1.625954,3.244275,-1.08397,1.056262,3.787352,1491,2523,1032,1491,0,46.595,1,load
1780605233.1864111,22.334080200002063,22480,0.060059,-0.053955,1.062988,0.725191,2.832061,-1.381679,1.06605,3.233498,1492,2526,1034,1492,1,46.595,17,load
1780605233.2174501,22.365119299996877,22512,0.052246,-0.025879,1.061279,0.236641,2.961832,-0.412214,1.06288,2.999728,1497,2533,1036,1497,0,46.595,0,load
1780605233.2495537,22.397222800005693,22543,0.033447,-0.041504,1.052978,0.908397,2.969466,-1.038168,1.054327,3.274249,1499,2537,1038,1499,0,46.595,0,load
1780605233.2800748,22.427743799999007,22574,0.045898,-0.041016,1.046631,2.580153,3.664122,-0.854962,1.048439,4.56223,1503,2543,1040,1503,0,105.882,6,load
1780605233.3122087,22.459877700006473,22606,0.068115,-0.019531,1.054199,0.221374,2.984733,0.167939,1.056578,2.997639,1507,2549,1042,1507,0,105.882,1,load
1780605233.3419013,22.489570400008233,22637,0.037842,-0.02417,1.063965,1.740458,2.59542,-1.045802,1.064912,3.295314,1509,2554,1045,1509,1,105.882,14,load
1780605233.374453,22.522122199996375,22667,0.039307,-0.011719,1.062744,1.839695,2.458015,-0.274809,1.063535,3.082505,1512,2559,1047,1512,0,105.882,1,load
1780605233.405063,22.55273209999723,22699,0.054199,-0.028809,1.055176,1.557252,3.007634,-0.351145,1.05696,3.405025,1514,2563,1049,1514,0,105.882,0,load
1780605233.437016,22.584685099995113,22730,0.043945,0.011963,1.040039,2.396947,3.580153,-1.175572,1.041036,4.465962,1519,2571,1052,1519,0,105.882,6,load
1780605233.4673665,22.615035499999067,22762,0.042969,-0.009766,1.066162,1.206107,2.618321,-0.610687,1.067072,2.946733,1523,2577,1054,1523,0,105.882,1,load
1780605233.499875,22.64754420000827,22793,0.030762,-0.010254,1.052246,2.274809,2.648855,-0.618321,1.052746,3.545914,1525,2582,1057,1525,1,105.882,14,load
1780605233.5310345,22.678703500001575,22825,0.053711,-0.016846,1.047852,2.40458,3.160305,-0.603053,1.049362,4.016617,1529,2587,1058,1529,0,103.586,0,load
1780605233.5625281,22.710197100008372,22856,0.049805,-0.032959,1.062012,1.259542,2.549618,-0.969466,1.06369,3.004474,1531,2591,1060,1531,0,103.586,1,load
1780605233.5942795,22.741948499999125,22887,0.055908,-0.051514,1.049805,1.938931,3.610687,-1.389313,1.052554,4.327436,1534,2596,1062,1534,1,103.586,14,load
1780605233.624235,22.7719039000076,22918,0.054932,-0.028564,1.052978,0.816794,3.343511,-0.961832,1.054797,3.573701,1540,2605,1065,1540,0,103.586,0,load
1780605233.6549509,22.802620000002207,22949,0.039551,-0.060791,1.045654,1.068702,2.641221,-1.068702,1.048166,3.043074,1542,2609,1067,1542,0,103.586,0,load
1780605233.6869333,22.834602300004917,22981,0.039062,-0.058594,1.058106,2.351145,2.870229,-0.977099,1.060446,3.836772,1546,2615,1069,1546,0,103.586,6,load
1780605233.717772,22.8654411000025,23012,0.036133,-0.019775,1.057617,1.442748,2.992366,-0.29771,1.058419,3.335328,1548,2619,1071,1548,0,103.586,1,load
1780605233.7491646,22.896833699996932,23043,0.073486,-0.057617,1.061768,2.022901,3.236641,-1.183206,1.065866,3.995992,1550,2624,1074,1550,1,103.586,14,load
1780605233.7798517,22.927520700002788,23074,0.037354,-0.014893,1.052002,1.839695,2.694656,-0.664122,1.05277,3.329671,1555,2631,1076,1555,0,103.586,0,load
1780605233.8116012,22.95927030000894,23105,0.051758,-0.028809,1.071045,1.51145,2.603053,-0.847328,1.072682,3.127033,1559,2637,1078,1559,0,107.143,0,load
1780605233.8419015,22.989570599995204,23136,0.053955,-0.026367,1.043701,3.038168,4.374046,-0.709924,1.045427,5.372777,1563,2643,1080,1563,0,107.143,6,load
1780605233.8730586,23.02072770000086,23167,0.037598,-0.025146,1.063232,0.610687,3.183206,-0.374046,1.064194,3.262767,1566,2647,1081,1566,0,107.143,5,load
1780605233.9043214,23.051990499996464,23198,0.04126,-0.054443,1.048096,1.870229,2.793893,-1.183206,1.050319,3.564207,1568,2652,1084,1568,1,107.143,14,load
1780605233.9366462,23.084315200001583,23230,0.048828,-0.04248,1.06543,1.877863,3.267176,-0.648855,1.067394,3.823848,1574,2659,1085,1574,0,107.143,0,load
1780605233.9689574,23.116626600007294,23262,0.03833,-0.036865,1.05835,0.160305,2.572519,-0.305344,1.059685,2.595532,1576,2663,1087,1576,0,107.143,0,load
1780605233.9989238,23.146592799996142,23293,0.04248,-0.042969,1.042725,0.961832,2.709924,-1.40458,1.044474,3.200258,1581,2670,1089,1581,1,107.143,13,load
1780605234.029896,23.177565000005416,23324,0.038818,-0.033691,1.063232,0.580153,2.496183,-0.870229,1.064474,2.706438,1586,2677,1091,1586,0,107.143,1,load
1780605234.0617704,23.209439600002952,23355,0.041016,-0.040527,1.045898,0.770992,3.038168,-1.229008,1.047487,3.366802,1588,2681,1093,1588,0,116.0,0,load
1780605234.0913107,23.238979700006894,23386,0.062988,-0.009277,1.041016,2.70229,3.885496,-0.847328,1.042961,4.808058,1591,2685,1094,1591,0,116.0,6,load
1780605234.1220152,23.269684200000484,23416,0.056885,0.016602,1.061768,1.725191,3.358779,-0.244275,1.06342,3.783827,1595,2691,1096,1595,0,116.0,1,load
1780605234.1534855,23.301154500004486,23447,0.03833,-0.023682,1.047363,2.267176,2.480916,-0.671756,1.048332,3.427286,1598,2698,1100,1598,1,116.0,3,load
1780605234.1928654,23.34053450000647,23478,0.046143,-0.03418,1.053955,2.061069,3.030534,-0.770992,1.055518,3.745206,1603,2705,1102,1603,0,116.0,0,load
1780605234.2145784,23.362247400000342,23509,0.044922,-0.052246,1.058838,1.442748,2.442748,-0.664122,1.061077,2.913692,1605,2709,1104,1605,0,116.0,0,load
1780605234.2457063,23.393375400002697,23540,0.044678,-0.053955,1.046631,2.389313,3.854962,-1.358779,1.048972,4.734536,1606,2712,1106,1606,1,116.0,16,load
1780605234.2773964,23.425065400006133,23571,0.044678,-0.022949,1.057129,0.862595,2.671756,-0.656489,1.058322,2.883284,1611,2719,1108,1611,0,116.0,1,load
1780605234.3074858,23.455154800001765,23602,0.03833,-0.030029,1.048584,0.984733,3.244275,-0.984733,1.049714,3.530541,1613,2723,1110,1613,0,116.0,0,load
1780605234.3389857,23.486654699998326,23633,0.041504,-0.044189,1.052002,2.244275,3.320611,-0.839695,1.053747,4.094913,1617,2731,1114,1617,0,104.317,6,load
1780605234.3698587,23.51752779999515,23664,0.05127,-0.010742,1.056396,0.770992,2.587786,-0.603053,1.057694,2.76672,1621,2737,1116,1621,0,104.317,1,load
1780605234.4012291,23.548898199995165,23695,0.019775,0.005127,1.053955,1.572519,2.687023,-0.862595,1.054153,3.230631,1623,2742,1119,1623,1,104.317,14,load
1780605234.4328623,23.580531400002656,23726,0.032227,-0.020264,1.055176,1.679389,3.122137,-0.526718,1.055862,3.584065,1628,2749,1121,1628,0,104.317,1,load
1780605234.4633007,23.610969700006535,23757,0.039795,-0.033936,1.059326,0.992366,2.19084,-0.931298,1.060616,2.579125,1630,2753,1123,1630,0,104.317,0,load
1780605234.4941835,23.641852600005222,23788,0.051758,-0.021484,1.043213,3.206107,3.946565,-1.282443,1.044717,5.243964,1634,2759,1125,1634,0,104.317,6,load
1780605234.5257387,23.673407700000098,23820,0.046143,-0.006592,1.04834,1.931298,4.175572,-0.091603,1.049376,4.60149,1639,2767,1128,1639,0,104.317,1,load
1780605234.557453,23.70512189999863,23851,0.019531,-0.011475,1.063721,2.70229,1.641221,-0.374046,1.063962,3.183691,1641,2772,1131,1641,1,104.317,14,load
1780605234.58843,23.73609910000232,23882,0.02417,-0.044189,1.065186,2.916031,2.977099,-1.122137,1.066376,4.315732,1645,2777,1132,1645,0,104.317,5,load
1780605234.6188245,23.766493500006618,23913,0.033691,-0.028076,1.049316,1.221374,3.389313,-0.587786,1.050232,3.6503,1646,2779,1133,1646,0,103.571,6,load
1780605234.6506257,23.798294799998985,23944,0.022705,-0.033936,1.063477,1.969466,2.129771,-1.167939,1.06426,3.127107,1648,2784,1136,1648,1,103.571,14,load
1780605234.682837,23.830506199999945,23976,0.049805,-0.021729,1.065186,1.465649,2.48855,-1.160305,1.06657,3.112445,1653,2791,1138,1653,0,103.571,1,load
1780605234.7136161,23.861285200007842,24007,0.030029,-0.018555,1.044434,2.206107,2.832061,-1.08397,1.04503,3.749996,1655,2795,1140,1655,0,103.571,0,load
1780605234.745163,23.892831999997725,24038,0.053711,0.012939,1.047119,1.938931,3.687023,-0.320611,1.048576,4.178084,1659,2801,1142,1659,0,103.571,5,load
1780605234.7764947,23.924163799994858,24070,0.026611,-0.000732,1.060547,0.801527,3.038168,-0.221374,1.060881,3.149907,1661,2805,1144,1661,0,103.571,0,load
1780605234.8076792,23.955348300005426,24101,0.041504,-0.020508,1.050049,2.503817,2.503817,-0.465649,1.051069,3.571418,1663,2810,1147,1663,1,103.571,14,load
1780605234.837788,23.98545710000326,24132,0.057129,-0.015381,1.050049,1.70229,3.725191,-0.801527,1.051714,4.173402,1668,2817,1149,1668,0,103.571,0,load
1780605234.868882,24.016550900007132,24163,0.04541,-0.053955,1.060059,1.007634,2.885496,-0.541985,1.062402,3.104056,1671,2823,1152,1671,0,100.0,1,load
1780605234.898912,24.046581000002334,24194,0.062012,-0.056885,1.065918,1.755725,2.816794,-1.641221,1.069234,3.70277,1673,2828,1155,1673,1,100.0,14,load
1780605234.9302068,24.07787580000877,24224,0.052979,-0.015137,1.066406,1.099237,2.175573,-0.572519,1.067829,2.50384,1678,2835,1157,1678,0,100.0,0,load
1780605234.960608,24.10827720000816,24255,0.043457,-0.028809,1.050781,2.183206,3.221374,-1.08397,1.052074,4.039632,1680,2839,1159,1680,0,100.0,1,load
1780605234.991536,24.139204999999492,24286,0.051758,-0.003418,1.047363,2.0,3.366412,-0.847328,1.048647,4.006332,1684,2845,1161,1684,0,100.0,5,load
1780605235.022352,24.170020999998087,24316,0.056641,-0.043457,1.055908,0.618321,2.732824,-0.832061,1.058319,2.922837,1688,2851,1163,1688,0,100.0,0,load
1780605235.0638664,24.211535499998718,24347,0.062744,-0.070557,1.033691,1.557252,3.763359,-0.900763,1.037995,4.171244,1690,2857,1167,1690,0,100.0,0,load
1780605235.084562,24.232231200003298,24378,0.058838,-0.037354,1.047852,2.152672,3.946565,-0.21374,1.050167,4.500562,1694,2863,1169,1694,0,100.0,6,load
1780605235.1152515,24.262920599998324,24409,0.048828,-0.007324,1.068115,0.755725,2.755725,0.381679,1.069256,2.88285,1697,2867,1170,1697,0,100.0,5,load
1780605235.1464334,24.294102400002885,24440,0.042969,-0.029053,1.053955,1.366412,2.374046,-0.534351,1.055231,2.790825,1699,2872,1173,1699,1,101.083,13,load
1780605235.1781325,24.325801500002854,24472,0.050781,-0.019775,1.058594,2.458015,2.671756,-1.625954,1.059996,3.97792,1704,2879,1175,1704,0,101.083,0,load
1780605235.2093387,24.357007700004033,24503,0.026123,-0.042725,1.068848,1.541985,2.679389,-0.458015,1.07002,3.12516,1708,2885,1177,1708,0,101.083,1,load
1780605235.2418077,24.38947670000198,24535,0.056885,-0.033691,1.053955,2.496183,2.938931,-0.793893,1.056027,3.936815,1712,2891,1179,1712,0,101.083,6,load
1780605235.2715883,24.419257300003665,24566,0.049316,-0.040771,1.053711,1.877863,3.206107,-0.442748,1.055652,3.74186,1715,2895,1180,1715,0,101.083,5,load
1780605235.3025405,24.45020970000769,24597,0.05127,-0.049561,1.05835,1.152672,2.40458,-1.022901,1.060749,2.856043,1717,2899,1182,1717,0,101.083,1,load
1780605235.333074,24.480743200008874,24628,0.086914,-0.021484,1.032471,1.70229,4.328244,0.083969,1.036345,4.651724,1721,2905,1184,1721,0,101.083,6,load
1780605235.3655586,24.513227600007667,24659,0.057861,-0.00415,1.060303,1.419847,3.030534,-0.580153,1.061888,3.396569,1725,2911,1186,1725,0,101.083,0,load
1780605235.3962855,24.54395469999872,24690,0.075195,-0.049561,1.03833,1.740458,3.900763,0.038168,1.042228,4.271604,1727,2916,1189,1727,1,112.0,14,load
1780605235.426985,24.574654099997133,24721,0.045166,-0.031738,1.036865,2.10687,3.984733,-0.442748,1.038334,4.52913,1731,2921,1190,1731,0,112.0,6,load
1780605235.4581516,24.605820600001607,24752,0.052979,-0.036865,1.062012,1.564886,2.755725,-0.832061,1.063971,3.276464,1735,2927,1192,1735,0,112.0,0,load
1780605235.490062,24.637730999995256,24783,0.022705,-0.032227,1.064941,0.931298,1.80916,-1.251908,1.065671,2.389069,1739,2933,1194,1739,0,112.0,0,load
1780605235.5202045,24.667873600003077,24814,0.068848,-0.035645,1.056641,2.152672,3.862595,-0.450382,1.059481,4.444826,1742,2938,1196,1742,1,112.0,15,load
1780605235.5510268,24.69869600000675,24845,0.035889,-0.006836,1.05127,1.229008,3.335878,-0.832061,1.051904,3.651146,1746,2943,1197,1746,0,112.0,6,load
1780605235.580672,24.728340999994543,24875,0.009521,-0.026855,1.044922,1.603053,2.603053,-1.450382,1.04531,3.383678,1747,2945,1198,1747,0,112.0,6,load
1780605235.6121273,24.759796500002267,24906,0.020508,-0.022949,1.076172,1.08397,1.137405,-1.824428,1.076612,2.40774,1749,2950,1201,1749,1,112.0,15,load
1780605235.6437147,24.791383700008737,24937,0.033691,-0.012207,1.057861,1.748092,2.198473,-1.320611,1.058468,3.103727,1752,2955,1203,1752,0,112.0,1,load
1780605235.674388,24.822056999997585,24968,0.047852,-0.013184,1.058838,1.541985,3.419847,-0.946565,1.060001,3.868987,1753,2957,1204,1753,0,93.525,6,load
1780605235.704592,24.852261100008036,24999,0.065918,-0.041016,1.045166,0.931298,3.198473,0.801527,1.048046,3.426367,1755,2961,1206,1755,0,93.525,1,load
1780605235.7363417,24.884010800000397,25030,0.036621,-0.04834,1.048096,2.442748,2.564885,-1.198473,1.049849,3.73925,1759,2967,1208,1759,0,93.525,6,load
1780605235.7667043,24.914373499996145,25061,0.055176,0.00293,1.041748,1.19084,2.870229,-0.916031,1.043212,3.239664,1761,2971,1210,1761,0,93.525,1,load
1780605235.7985935,24.94626270000299,25092,0.020508,-0.026123,1.054199,1.08397,3.030534,-0.396947,1.054722,3.242946,1763,2975,1212,1763,0,93.525,0,load
