host_epoch_s,host_elapsed_s,time_ms,ax,ay,az,gx,gy,gz,acc_mag,gyro_mag,pulse_count,edge_count,rise_count,fall_count,state,pulse_rate_hz,last_edge_dt_ms,label
1780589778.4960804,0.008280200010631233,251,0.037842,-0.044434,1.029053,3.78626,3.145038,0.450382,1.030706,4.942658,16,30,14,16,0,63.745,0,normal
1780589778.5267344,0.03893429999880027,283,0.025635,0.016602,1.060303,0.816794,2.862595,0.137405,1.060742,2.980014,17,32,15,17,0,63.745,10,normal
1780589778.5585265,0.07072640000842512,314,0.052979,-0.027588,1.053467,0.877863,2.854962,-1.885496,1.055159,3.532215,18,35,17,18,1,63.745,14,normal
1780589778.5902376,0.10243749999790452,346,0.056152,-0.0625,1.040527,3.259542,2.618321,0.282443,1.043914,4.190464,28,47,19,28,0,63.745,0,normal
1780589778.6203132,0.13251300000410993,377,0.054688,0.025146,1.072022,1.030534,3.061069,0.259542,1.07371,3.240294,29,49,20,29,0,63.745,9,normal
1780589778.6532142,0.16541420000430662,407,0.050293,-0.033691,1.044434,-0.335878,2.977099,-2.030534,1.046186,3.619254,30,52,22,30,1,63.745,14,normal
1780589778.6827097,0.19490950000181329,438,0.03833,-0.044434,1.021973,2.854962,3.419847,0.305344,1.023656,4.465356,31,54,23,31,1,63.745,13,normal
1780589778.7138124,0.22601220000069588,469,0.069092,-0.017578,1.052734,2.343511,2.633588,0.610687,1.055146,3.577816,33,57,24,33,0,63.745,10,normal
1780589778.744752,0.2569519000098808,500,0.023682,0.037109,1.064453,0.122137,3.10687,-1.633588,1.065363,3.512288,34,59,25,34,0,63.745,8,normal
1780589778.779089,0.29128879999916535,531,0.044922,-0.054688,1.026123,1.580153,3.10687,-0.473282,1.028561,3.517602,35,62,27,35,1,67.857,14,normal
1780589778.8060458,0.3182457000075374,562,0.056885,-0.019287,1.048096,2.78626,2.442748,0.587786,1.049815,3.751767,37,65,28,37,0,67.857,10,normal
1780589778.837818,0.35001789999660105,593,0.025391,0.026367,1.05957,-0.099237,2.877863,-1.419847,1.060202,3.210593,38,67,29,38,0,67.857,9,normal
1780589778.868358,0.38055780000286177,624,0.042236,-0.069092,1.038574,1.290076,2.748092,-0.763359,1.041726,3.130339,39,70,31,39,1,67.857,15,normal
1780589778.8993475,0.41154739999910817,655,0.025635,-0.031982,1.042236,3.21374,2.732824,0.282443,1.043042,4.228029,41,73,32,41,0,67.857,9,normal
1780589778.930768,0.4429678000014974,686,0.033691,0.01416,1.052734,-0.282443,2.816794,-0.908397,1.053369,2.973094,42,75,33,42,0,67.857,10,normal
1780589778.9599612,0.47216109999862965,717,0.006836,-0.02124,1.052002,1.389313,2.59542,-1.328244,1.052238,3.229648,43,78,35,43,1,67.857,13,normal
1780589778.9925125,0.5047123999975156,748,0.035156,-0.045166,1.051025,3.59542,2.854962,0.030534,1.052583,4.591164,52,89,37,52,0,67.857,0,normal
1780589779.0241802,0.5363800000050105,779,0.02832,0.022217,1.05249,0.29771,3.21374,-0.175573,1.053106,3.232272,53,91,38,53,0,67.857,9,normal
1780589779.0548077,0.5670076000096742,810,0.046631,-0.03833,1.046387,0.137405,2.473282,-1.793893,1.048126,3.05844,54,94,40,54,1,68.1,14,normal
1780589779.0846083,0.5968083000043407,841,0.032471,-0.036621,1.036377,3.80916,3.137405,0.259542,1.037532,4.941697,55,96,41,55,1,68.1,12,normal
1780589779.116483,0.6286828000011155,872,0.030518,0.010742,1.05127,1.335878,2.78626,-0.129771,1.051767,3.092677,57,99,42,57,0,68.1,9,normal
1780589779.1474447,0.6596447000047192,903,0.034424,-0.010254,1.049805,-0.442748,3.236641,-2.145038,1.050419,3.908076,58,102,44,58,1,68.1,15,normal
1780589779.1784804,0.6906802000012249,934,0.048584,-0.049561,1.033936,3.022901,3.290076,0.259542,1.036262,4.475477,59,104,45,59,1,68.1,15,normal
1780589779.2095222,0.721722200003569,965,0.043701,-0.018066,1.048584,2.312977,2.603053,0.40458,1.04965,3.505629,61,107,46,61,0,68.1,10,normal
1780589779.239801,0.7520006999984616,996,0.046143,0.023682,1.0625,-0.389313,2.847328,-1.679389,1.063765,3.328542,62,109,47,62,0,68.1,9,normal
1780589779.270855,0.7830548000056297,1026,0.059326,-0.081543,1.033936,1.312977,3.129771,-1.015267,1.038841,3.542618,63,112,49,63,1,68.1,14,normal
1780589779.3021064,0.814306200001738,1057,0.028809,-0.043701,1.054688,3.725191,2.526718,0.366412,1.055985,4.51615,65,115,50,65,0,68.1,10,normal
1780589779.3329828,0.8451827000099001,1088,0.026123,0.030762,1.059814,0.236641,3.083969,-0.465649,1.060582,3.12789,66,117,51,66,0,43.165,10,normal
1780589779.3634522,0.875652100003208,1119,0.034668,-0.028564,1.04248,0.59542,2.70229,-1.900763,1.043448,3.357052,67,120,53,67,1,43.165,14,normal
1780589779.3950415,0.9072413000103552,1151,0.052246,-0.069092,1.044189,4.206106,2.664122,0.679389,1.047776,5.024982,76,130,54,76,0,43.165,0,normal
1780589779.4257805,0.9379803000047104,1182,0.020752,0.029053,1.065918,0.358779,2.984733,-0.175573,1.066516,3.011342,77,132,55,77,0,43.165,9,normal
1780589779.4561307,0.9683307000086643,1213,0.036621,0.003174,1.047119,0.557252,2.679389,-2.221374,1.047764,3.524792,78,135,57,78,1,43.165,14,normal
1780589779.4869046,0.9991045000060694,1244,0.017822,-0.055908,1.023682,3.40458,3.183206,0.480916,1.025362,4.685643,81,142,61,81,0,43.165,0,normal
1780589779.5175867,1.0297866000037175,1274,0.061523,-0.001465,1.057373,1.931298,3.10687,0.564886,1.059162,3.701574,82,144,62,82,0,43.165,9,normal
1780589779.5487204,1.0609202000050573,1305,0.017334,0.002686,1.054443,-0.259542,3.206107,-2.21374,1.054589,3.904757,83,146,63,83,0,43.165,8,normal
1780589779.5786998,1.090899700007867,1335,0.029541,-0.070801,1.028564,1.519084,2.870229,-0.847328,1.031421,3.356158,84,149,65,84,1,43.165,14,normal
1780589779.6092415,1.1214412999979686,1366,0.052246,-0.03125,1.062012,3.442748,2.419847,0.549618,1.063755,4.243849,86,152,66,86,0,71.942,10,normal
1780589779.640129,1.1523290000041015,1396,0.05542,0.022949,1.074463,0.030534,2.633588,-0.89313,1.076136,2.781078,87,154,67,87,0,71.942,9,normal
1780589779.6736097,1.1858096000069054,1427,0.05127,-0.038818,1.049316,0.961832,2.48855,-1.839695,1.051285,3.240752,88,157,69,88,1,71.942,14,normal
1780589779.701893,1.2140930000023218,1458,0.026367,-0.0625,1.045898,3.916031,2.725191,0.748092,1.048096,4.829244,90,160,70,90,0,71.942,10,normal
1780589779.7341511,1.2463511000096332,1489,0.056152,0.026367,1.074219,0.618321,2.954198,-0.427481,1.076008,3.048335,91,162,71,91,0,71.942,10,normal
1780589779.7801,1.2923000000009779,1520,0.028809,-0.013428,1.057617,0.358779,2.801527,-1.801527,1.058095,3.350041,92,165,73,92,1,71.942,14,normal
1780589779.7965605,1.3087603000021772,1552,0.070068,-0.049561,1.025879,3.312977,2.633588,0.541985,1.029463,4.266773,99,176,77,99,0,71.942,0,normal
1780589779.8266995,1.3388993999978993,1583,0.050049,0.009033,1.058106,1.473282,2.610687,0.305344,1.059327,3.013218,100,178,78,100,0,71.942,10,normal
1780589779.8575103,1.3697102000005543,1614,0.037109,-0.001221,1.0625,-0.152672,2.839695,-1.946565,1.063148,3.4462,101,181,80,101,1,71.942,14,normal
1780589779.8880088,1.4002086999971652,1644,0.049072,-0.061279,1.020264,2.572519,3.236641,-0.030534,1.02328,4.134566,102,183,81,102,1,57.554,15,normal
1780589779.9198031,1.43200300000899,1675,0.062012,-0.018799,1.052978,2.984733,2.374046,0.78626,1.05497,3.89396,104,186,82,104,0,57.554,10,normal
1780589779.9511032,1.463303199998336,1706,0.026367,0.022705,1.035156,-0.51145,3.328244,-1.877863,1.035741,3.855536,105,188,83,105,0,57.554,10,normal
1780589779.9821439,1.4943438000045717,1737,0.062012,-0.06958,1.054932,1.557252,2.984733,-0.633588,1.059041,3.425653,106,191,85,106,1,57.554,14,normal
1780589780.012301,1.5245009000063874,1768,0.06543,-0.039307,1.059326,3.496183,2.70229,0.931298,1.062072,4.515859,108,194,86,108,0,57.554,9,normal
1780589780.0438137,1.556013699999312,1799,0.052002,0.020996,1.069824,0.129771,2.709924,-0.900763,1.071293,2.858654,109,196,87,109,0,57.554,9,normal
1780589780.0751832,1.5873831000062637,1830,0.043701,-0.050537,1.047119,0.40458,2.78626,-1.946565,1.049248,3.422871,110,199,89,110,1,57.554,14,normal
1780589780.1061144,1.618314300008933,1861,0.020508,-0.041992,1.047119,3.923664,2.80916,0.450382,1.048161,4.846583,112,202,90,112,0,57.554,9,normal
1780589780.1373825,1.6495823000004748,1892,0.05249,0.013184,1.064453,0.534351,2.824427,-0.396947,1.065828,2.901808,113,204,91,113,0,57.554,9,normal
1780589780.1683085,1.6805083000072045,1923,0.04248,-0.016113,1.044189,0.358779,2.984733,-2.015267,1.045177,3.619206,114,207,93,114,1,43.011,14,normal
1780589780.1984603,1.7106602999992901,1954,0.056396,-0.057861,1.033447,3.137405,2.969466,0.305344,1.036601,4.33062,115,209,94,115,1,43.011,12,normal
1780589780.2293332,1.741533000007621,1985,0.040771,0.018799,1.073486,1.671756,3.053435,0.564886,1.074425,3.52666,117,212,95,117,0,43.011,9,normal
1780589780.2606637,1.7728636000101687,2016,0.024658,-0.031738,1.045898,-0.152672,2.801527,-2.091603,1.04667,3.499523,118,215,97,118,1,43.011,14,normal
1780589780.2913673,1.8035671000106959,2047,0.060547,-0.042236,1.040039,2.870229,3.427481,0.21374,1.042656,4.475659,119,217,98,119,1,43.011,13,normal
1780589780.3233516,1.835551399999531,2078,0.04248,-0.007568,1.045166,2.122137,2.503817,0.312977,1.046056,3.297047,121,220,99,121,0,43.011,10,normal
1780589780.3538008,1.8660005999990972,2108,0.019775,0.031006,1.063232,-0.007634,3.145038,-1.679389,1.063868,3.565343,122,222,100,122,0,43.011,9,normal
1780589780.384996,1.897195700003067,2139,0.052734,-0.072266,1.042969,1.427481,2.908397,-1.10687,1.046798,3.423688,123,225,102,123,1,43.011,13,normal
1780589780.4140809,1.9262808000057703,2170,0.032715,-0.025879,1.052002,3.59542,2.824427,0.29771,1.052829,4.581819,125,228,103,125,0,43.011,9,normal
1780589780.443959,1.9561588000069605,2200,0.021973,0.014404,1.060059,0.328244,3.045802,-0.564886,1.060384,3.115084,126,230,104,126,0,43.321,9,normal
1780589780.4746885,1.986888400002499,2231,0.039795,-0.008301,1.058594,0.70229,2.610687,-1.557252,1.059374,3.119925,127,233,106,127,1,43.321,14,normal
1780589780.5061834,2.0183833000046434,2261,0.017334,-0.038086,1.036133,3.473282,3.076336,0.206107,1.036977,4.644353,128,235,107,128,1,43.321,12,normal
1780589780.5367713,2.0489710999972885,2292,0.055176,-0.001709,1.049805,1.625954,3.061069,0.358779,1.051255,3.484622,130,238,108,130,0,43.321,10,normal
1780589780.567076,2.0792759000032675,2322,0.061523,0.014404,1.060791,-0.045802,3.167939,-1.412214,1.062671,3.468758,131,240,109,131,0,43.321,7,normal
1780589780.598446,2.110645699998713,2353,0.037598,-0.067139,1.032959,2.244275,3.442748,-0.137405,1.035821,4.111954,132,243,111,132,1,43.321,13,normal
1780589780.6295598,2.14175970001088,2384,0.026611,-0.009033,1.065186,3.175573,2.519084,0.305344,1.065556,4.064884,134,246,112,134,0,43.321,10,normal
1780589780.6573343,2.1695343000028515,2414,0.02002,0.021729,1.048584,-0.48855,2.832061,-0.946565,1.049,3.025762,135,248,113,135,0,43.321,9,normal
1780589780.6887991,2.20099910000863,2444,0.031006,-0.032227,1.041016,1.030534,3.045802,-1.618321,1.041976,3.599704,136,251,115,136,1,43.321,14,normal
1780589780.7198486,2.232048500009114,2475,0.049072,-0.054932,1.037842,3.343511,2.770992,0.59542,1.040452,4.383148,138,254,116,138,0,43.636,9,normal
1780589780.7661626,2.2783626000018558,2506,0.030762,0.018311,1.062256,0.778626,3.229008,0.099237,1.062859,3.32304,139,256,117,139,0,43.636,10,normal
1780589780.7829916,2.2951915000012377,2537,0.011475,-0.029053,1.038574,0.083969,2.503817,-2.114504,1.039044,3.278304,140,259,119,140,1,43.636,15,normal
1780589780.8129377,2.3251376999978675,2568,0.057129,-0.04541,1.030518,3.236641,3.206107,0.557252,1.033098,4.589716,141,261,120,141,1,43.636,12,normal
1780589780.8438344,2.3560341999982484,2599,0.026855,0.005371,1.052002,1.618321,2.824427,0.419847,1.052358,3.282168,143,264,121,143,0,43.636,10,normal
1780589780.875089,2.3872887000034098,2630,0.042969,0.003418,1.064209,-0.435114,3.022901,-2.045802,1.065082,3.675943,144,266,122,144,0,43.636,8,normal
1780589780.9056811,2.4178810000012163,2661,0.049072,-0.064209,1.040039,2.10687,3.183206,0.038168,1.043174,3.817481,145,269,124,145,1,43.636,14,normal
1780589780.9371295,2.449329299997771,2692,0.059082,-0.024414,1.05835,3.282443,2.633588,0.450382,1.060278,4.232382,147,272,125,147,0,43.636,9,normal
1780589780.9680867,2.480286600010004,2723,0.036377,0.029785,1.066894,-0.465649,3.068702,-1.48855,1.06793,3.442316,148,274,126,148,0,43.636,9,normal
1780589780.999514,2.5117141000082484,2754,0.060547,-0.068604,1.042236,1.312977,2.755725,-1.061069,1.046245,3.231686,149,277,128,149,1,39.427,14,normal
1780589781.0300245,2.542224400007399,2785,0.008789,-0.025146,1.047852,3.572519,2.679389,0.473282,1.04819,4.490659,151,280,129,151,0,39.427,10,normal
1780589781.060605,2.5728050000034273,2816,0.065186,0.015381,1.070068,-0.061069,2.984733,-0.923664,1.072162,3.124982,152,282,130,152,0,39.427,9,normal
1780589781.0926893,2.604889100010041,2847,0.021484,-0.026367,1.037354,0.694656,2.801527,-1.664122,1.037911,3.331726,153,285,132,153,1,39.427,14,normal
1780589781.1229875,2.635187500010943,2878,0.068115,-0.080078,1.047607,4.27481,2.610687,1.068702,1.052869,5.1217,155,288,133,155,0,39.427,10,normal
1780589781.1540055,2.6662055000051623,2909,0.017578,0.027832,1.064941,0.709924,2.870229,0.053435,1.06545,2.957205,156,290,134,156,0,39.427,10,normal
1780589781.1854465,2.697646300002816,2940,0.039795,-0.012451,1.048828,0.061069,2.709924,-2.0,1.049657,3.368592,157,293,136,157,1,39.427,14,normal
1780589781.2161653,2.7283651000034297,2971,0.041504,-0.055664,1.030518,3.167939,3.114504,0.328244,1.032854,4.454628,158,295,137,158,1,39.427,13,normal
1780589781.2465205,2.7587203000002773,3002,0.039795,0.006348,1.054688,2.129771,2.610687,0.312977,1.055457,3.383721,160,298,138,160,0,39.427,9,normal
1780589781.27666,2.7888598999998067,3033,0.011719,0.008789,1.060547,-0.740458,2.839695,-1.89313,1.060648,3.492289,161,300,139,161,0,43.011,8,normal
1780589781.3084505,2.8206503999972483,3063,0.055664,-0.070557,1.037598,1.732824,3.145038,-0.923664,1.041482,3.707708,162,303,141,162,1,43.011,15,normal
1780589781.3374002,2.8496000000013737,3094,0.031982,-0.035645,1.05249,3.534351,2.59542,1.099237,1.053579,4.520638,164,306,142,164,0,43.011,9,normal
1780589781.3687143,2.8809143000107724,3124,0.021729,0.024902,1.058594,0.29771,3.030534,-0.854962,1.059109,3.162867,165,308,143,165,0,43.011,10,normal
1780589781.4010832,2.913283000001684,3155,0.038086,-0.021484,1.062744,0.80916,2.427481,-1.603053,1.063643,3.019467,166,311,145,166,1,43.011,14,normal
1780589781.4329731,2.9451731000008294,3187,0.024902,-0.064453,1.050293,3.89313,2.625954,0.480916,1.052563,4.720527,175,321,146,175,0,43.011,0,normal
1780589781.463566,2.9757660000032047,3218,0.01416,0.025391,1.053467,0.625954,2.885496,-0.236641,1.053868,2.962078,176,323,147,176,0,43.011,9,normal
1780589781.4926872,3.004887000002782,3249,0.051514,-0.021973,1.048096,0.274809,3.0,-1.725191,1.049591,3.471571,177,326,149,177,1,43.011,13,normal
1780589781.5239468,3.0361466000031214,3279,0.022461,-0.054932,1.037109,3.290076,3.145038,0.259542,1.038806,4.558862,178,328,150,178,1,43.011,13,normal
1780589781.5545871,3.0667871000041487,3310,0.007568,-0.007813,1.046143,2.091603,3.015267,0.29771,1.046199,3.681748,180,331,151,180,0,68.592,9,normal
1780589781.585134,3.0973339000047417,3340,0.056152,0.025391,1.061523,-0.045802,3.290076,-1.732824,1.063311,3.718788,181,333,152,181,0,68.592,9,normal
1780589781.6163003,3.128500200007693,3371,0.042236,-0.063721,1.030762,1.671756,3.083969,-0.885496,1.033593,3.617974,182,336,154,182,1,68.592,15,normal
1780589781.6460452,3.1582450999994762,3402,0.047363,-0.041016,1.052002,3.618321,2.671756,0.984733,1.053866,4.60437,184,339,155,184,0,68.592,10,normal
1780589781.6764793,3.1886793000012403,3432,0.047852,0.019043,1.065186,0.458015,2.625954,-0.541985,1.06643,2.72014,185,341,156,185,0,68.592,9,normal
1780589781.708191,3.2203908000083175,3463,0.016846,-0.015869,1.047852,0.519084,2.770992,-1.503817,1.048107,3.195201,186,344,158,186,1,68.592,15,normal
1780589781.7385507,3.250750600011088,3494,0.05957,-0.06665,1.048828,3.40458,2.435115,0.618321,1.052631,4.231226,188,347,159,188,0,68.592,10,normal
1780589781.7709384,3.2831383000011556,3525,0.040771,0.01123,1.054688,1.122137,3.229008,0.137405,1.055535,3.421193,189,349,160,189,0,68.592,10,normal
1780589781.8018494,3.314049200009322,3556,0.029541,-0.013672,1.058594,0.389313,2.961832,-1.618321,1.059094,3.397496,190,352,162,190,1,68.592,14,normal
1780589781.8334067,3.3456065000063973,3587,0.050049,-0.043213,1.045166,3.358779,2.877863,0.259542,1.047256,4.430672,192,358,166,192,0,43.321,0,normal
1780589781.8727334,3.3849333000107436,3619,0.033691,0.009277,1.046143,1.396947,2.923664,0.290076,1.046726,3.253216,193,360,167,193,0,43.321,9,normal
1780589781.8934247,3.4056246999971336,3649,0.032959,0.01416,1.062256,-0.312977,3.137405,-1.977099,1.062861,3.721584,194,362,168,194,0,43.321,8,normal
1780589781.9252982,3.437498200000846,3680,0.051758,-0.034424,1.038086,2.80916,2.977099,-0.10687,1.039945,4.094621,195,365,170,195,1,43.321,14,normal
1780589781.9567988,3.468998600001214,3711,0.064697,-0.023926,1.04541,2.732824,2.351145,0.366412,1.047683,3.623599,197,368,171,197,0,43.321,10,normal
1780589781.9870968,3.4992966999998316,3742,0.02417,0.010742,1.057861,-0.183206,3.145038,-1.442748,1.058192,3.465018,198,370,172,198,0,43.321,8,normal
1780589782.0175889,3.5297888000059174,3773,0.072021,-0.069824,1.050293,1.473282,2.648855,-0.793893,1.055072,3.133251,199,373,174,199,1,43.321,14,normal
1780589782.0483487,3.5605484999978216,3804,0.019531,-0.01709,1.05835,3.374046,2.526718,0.366412,1.058668,4.231164,201,376,175,201,0,43.321,9,normal
1780589782.0786955,3.5908954000042286,3835,0.047607,0.008057,1.057861,-0.030534,2.633588,-0.862595,1.058963,2.771424,202,378,176,202,0,43.321,9,normal
1780589782.1102507,3.622450499999104,3866,0.017578,-0.020508,1.049561,1.206107,2.618321,-0.870229,1.049908,3.011245,203,381,178,203,1,39.427,14,normal
1780589782.141736,3.6539360000024317,3897,0.028564,-0.042969,1.054199,3.557252,2.732824,0.137405,1.055461,4.4879,205,384,179,205,0,39.427,10,normal
1780589782.1730034,3.6852034000039566,3928,0.033691,0.016602,1.055664,0.351145,3.045802,-0.122137,1.056332,3.068408,206,386,180,206,0,39.427,10,normal
1780589782.2039685,3.716168500002823,3959,0.067871,-0.03125,1.048828,0.618321,2.572519,-1.717557,1.051486,3.15439,207,389,182,207,1,39.427,15,normal
1780589782.2358375,3.748037299999851,3991,0.03125,-0.038574,1.034668,3.633588,3.137405,0.48855,1.035858,4.825448,214,400,186,214,0,39.427,1,normal
1780589782.2648656,3.7770656000066083,4021,0.041992,0.005615,1.046143,1.19084,2.984733,0.21374,1.047,3.220623,215,402,187,215,0,39.427,10,normal
1780589782.2965071,3.80870710000454,4051,0.027588,0.018066,1.073486,-0.122137,2.503817,-2.045802,1.073993,3.235633,216,404,188,216,0,39.427,8,normal
1780589782.3268726,3.8390724000055343,4082,0.071045,-0.062256,1.023682,2.351145,3.099237,-0.099237,1.028031,3.891401,217,407,190,217,1,39.427,14,normal
1780589782.3585958,3.8707958000013605,4113,0.024902,-0.014648,1.057617,3.091603,2.572519,0.259542,1.058012,4.030288,219,410,191,219,0,39.427,9,normal
1780589782.3892548,3.9014547999977367,4144,0.05249,0.023926,1.058106,-0.679389,3.007634,-1.572519,1.059677,3.461249,220,412,192,220,0,61.151,10,normal
1780589782.420257,3.9324570000026142,4175,0.029541,-0.050049,1.051025,1.389313,2.709924,-0.78626,1.052631,3.145168,221,415,194,221,1,61.151,14,normal
1780589782.4507866,3.9629864000016823,4206,0.061279,-0.032471,1.055176,3.748092,2.648855,0.435114,1.057452,4.610201,223,418,195,223,0,61.151,9,normal
1780589782.4809077,3.993107600006624,4237,0.004883,0.022949,1.051758,0.129771,3.251908,-0.70229,1.05202,3.329408,224,420,196,224,0,61.151,9,normal
1780589782.5122917,4.024491600008332,4268,0.030029,-0.046387,1.052734,1.015267,2.557252,-1.91603,1.054184,3.352831,225,423,198,225,1,61.151,14,normal
1780589782.5441,4.056299900010345,4299,0.056152,-0.05957,1.056885,3.80916,2.916031,0.557252,1.06005,4.829437,229,428,199,229,0,61.151,0,normal
1780589782.575034,4.087233700003708,4330,0.03125,0.021484,1.063721,0.801527,2.984733,0.053435,1.064396,3.090943,230,430,200,230,0,61.151,9,normal
1780589782.605026,4.117225900001358,4360,0.024414,-0.021484,1.038818,-0.740458,3.236641,-2.053435,1.039327,3.903936,231,433,202,231,1,61.151,14,normal
1780589782.6360874,4.148287400006666,4391,0.085205,-0.05542,1.03418,3.099237,3.145038,0.29771,1.039163,4.425513,232,435,203,232,1,61.151,14,normal
1780589782.6674674,4.179667300006258,4422,0.046631,0.001953,1.067871,2.679389,2.969466,0.633588,1.06889,4.04948,234,438,204,234,0,50.36,10,normal
1780589782.6962464,4.208446300006472,4452,0.050049,0.032715,1.041992,-0.229008,3.167939,-1.801527,1.043706,3.651545,235,440,205,235,0,50.36,10,normal
1780589782.7272205,4.239420400001109,4483,0.036377,-0.069336,1.033203,1.450382,2.679389,-0.885496,1.036166,3.172828,236,443,207,236,1,50.36,14,normal
1780589782.7596066,4.2718064000073355,4514,0.049316,-0.032715,1.057373,3.732824,2.870229,0.664122,1.059028,4.755339,239,448,209,239,0,50.36,0,normal
1780589782.7898507,4.302050500002224,4545,0.019043,0.025635,1.064209,-0.076336,2.801527,-0.709924,1.064688,2.891085,240,450,210,240,0,50.36,9,normal
1780589782.8208992,4.333099199997378,4576,0.026611,-0.029297,1.044922,0.961832,2.526718,-1.885496,1.045671,3.296137,241,453,212,241,1,50.36,14,normal
1780589782.8535862,4.365786100010155,4608,0.053955,-0.076172,1.037842,4.015268,2.931298,0.847328,1.042031,5.043098,250,463,213,250,0,50.36,0,normal
1780589782.8832154,4.395415300008608,4639,0.007324,0.008057,1.052002,0.549618,3.167939,-0.519084,1.052058,3.256895,251,465,214,251,0,50.36,9,normal
1780589782.9133217,4.425521700002719,4669,0.010742,-0.004395,1.056396,0.198473,2.70229,-2.038168,1.05646,3.390559,252,468,216,252,1,50.36,14,normal
1780589782.9448607,4.457060600005207,4699,0.047607,-0.041016,1.033691,3.251908,3.10687,0.030534,1.0356,4.497608,253,470,217,253,1,68.592,14,normal
1780589782.9755843,4.487784199998714,4730,0.044434,-0.015137,1.060791,2.381679,2.335878,0.633588,1.061829,3.395608,255,473,218,255,0,68.592,10,normal
1780589783.0067983,4.518998200001079,4761,0.023193,0.034668,1.053467,-0.335878,3.007634,-1.755725,1.054292,3.498749,256,475,219,256,0,68.592,9,normal
1780589783.0367355,4.548935500002699,4792,0.02832,-0.0625,1.030762,1.603053,2.610687,-0.641221,1.033043,3.129957,257,478,221,257,1,68.592,14,normal
1780589783.068357,4.58055690000765,4823,0.059814,-0.025146,1.053955,3.564885,2.763359,0.51145,1.05595,4.539398,259,481,222,259,0,68.592,10,normal
1780589783.0994287,4.611628600003314,4854,0.044922,0.024414,1.063965,0.083969,2.80916,-1.122137,1.065193,3.026157,260,483,223,260,0,68.592,9,normal
1780589783.1299493,4.642149300008896,4885,0.028076,-0.046143,1.044922,1.038168,2.870229,-1.351145,1.046317,3.337904,261,486,225,261,1,68.592,14,normal
1780589783.160851,4.673050800003693,4916,0.043945,-0.051025,1.048584,3.89313,2.625954,0.824427,1.050744,4.767785,263,489,226,263,0,68.592,10,normal
1780589783.1932516,4.705451600006199,4947,0.014404,0.023682,1.051025,0.778626,2.984733,-0.015267,1.051391,3.084659,264,491,227,264,0,68.592,10,normal
1780589783.223363,4.735562700006994,4978,0.028809,-0.017822,1.045898,0.358779,2.503817,-1.793893,1.046447,3.100947,265,494,229,265,1,43.011,14,normal
1780589783.2556827,4.767882500003907,5010,0.072998,-0.073975,1.031738,3.580153,2.969466,0.473282,1.036959,4.675384,272,505,233,272,0,43.011,1,normal
1780589783.284934,4.797133900006884,5041,0.054443,0.011719,1.0625,0.839695,2.916031,-0.145038,1.063958,3.037986,273,507,234,273,0,43.011,9,normal
1780589783.316049,4.828248999998323,5071,0.043945,-0.017578,1.046387,-0.290076,2.793893,-2.145038,1.047457,3.534285,274,510,236,274,1,43.011,14,normal
1780589783.3468227,4.859022700009518,5102,0.049072,-0.045898,1.038818,2.877863,3.030534,0.099237,1.040989,4.18044,275,512,237,275,1,43.011,14,normal
1780589783.377747,4.889946900002542,5133,0.0625,-0.021729,1.055176,2.770992,2.610687,0.610687,1.057248,3.855778,277,515,238,277,0,43.011,10,normal
1780589783.4088542,4.921054100006586,5163,0.033691,0.020508,1.061523,0.229008,3.290076,-1.419847,1.062256,3.590684,278,517,239,278,0,43.011,10,normal
1780589783.4388864,4.9510862000024645,5194,0.051025,-0.068848,1.049072,1.351145,2.862595,-0.946565,1.052566,3.303942,279,520,241,279,1,43.011,14,normal
1780589783.4697747,4.981974599999376,5225,0.031738,-0.036865,1.057373,3.312977,2.732824,0.496183,1.058491,4.323233,281,523,242,281,0,43.011,9,normal
1780589783.5013227,5.013522599998396,5256,0.050537,0.013672,1.053711,-0.183206,3.244275,-0.732824,1.055011,3.331053,282,525,243,282,0,61.151,9,normal
1780589783.5315206,5.043720600006054,5287,0.039551,-0.030518,1.047363,0.740458,2.740458,-0.984733,1.048554,3.004678,283,528,245,283,1,61.151,14,normal
1780589783.5638323,5.0760321999987355,5318,0.042969,-0.055908,1.047607,3.580153,2.572519,0.290076,1.049978,4.418087,285,531,246,285,0,61.151,9,normal
1780589783.5942354,5.106435300011071,5349,0.048584,0.010254,1.057373,0.396947,3.015267,-0.580153,1.058538,3.096124,286,533,247,286,0,61.151,10,normal
1780589783.6243517,5.1365515000070445,5380,0.056152,-0.015381,1.050049,0.450382,2.89313,-1.465649,1.051662,3.27432,287,536,249,287,1,61.151,14,normal
1780589783.6573117,5.1695116000046255,5412,0.026611,-0.056396,1.048828,3.389313,3.198473,0.580153,1.05068,4.696195,291,546,255,291,0,61.151,0,normal
1780589783.6885989,5.200798700010637,5443,0.026855,0.020996,1.055908,0.618321,2.877863,-0.335878,1.056458,2.962639,292,548,256,292,0,61.151,9,normal
1780589783.7198894,5.232089199998882,5474,0.048828,-0.03833,1.056641,0.587786,2.572519,-1.473282,1.058462,3.022236,293,551,258,293,1,61.151,14,normal
1780589783.7553558,5.2675556000031065,5505,0.0354,-0.040283,1.046631,3.312977,3.465649,0.534351,1.048004,4.824114,294,553,259,294,1,61.151,12,normal
1780589783.7905421,5.302742100000614,5542,0.04541,0.015869,1.055176,-0.435114,3.236641,-1.526718,1.056272,3.605002,295,556,261,295,0,45.455,9,normal
1780589783.8185253,5.3307251000078395,5573,0.054688,-0.061768,1.041992,2.229008,3.083969,-0.80916,1.045253,3.890255,296,559,263,296,1,45.455,14,normal
1780589783.8491786,5.361378400004469,5604,0.026123,-0.013916,1.058106,2.931298,2.671756,0.549618,1.058519,4.004106,298,562,264,298,0,45.455,9,normal
1780589783.8794246,5.3916245000000345,5635,0.05249,0.02124,1.0625,-0.259542,2.832061,-1.10687,1.064008,3.051736,299,564,265,299,0,45.455,10,normal
1780589783.9107487,5.422948599996744,5665,0.042725,-0.029785,1.045166,1.198473,2.396947,-1.030534,1.046463,2.871183,300,567,267,300,1,45.455,14,normal
1780589783.9419436,5.454143599999952,5696,0.029541,-0.066895,1.043701,3.610687,2.954198,0.480916,1.04626,4.68995,302,570,268,302,0,45.455,10,normal
1780589783.9712045,5.483404400001746,5727,0.07373,0.020508,1.06543,0.282443,2.862595,-0.519084,1.068175,2.922956,303,572,269,303,0,45.455,10,normal
1780589784.0033576,5.515557600010652,5758,0.044678,-0.033691,1.047119,0.389313,2.854962,-1.442748,1.048613,3.222405,304,575,271,304,1,45.455,14,normal
1780589784.03455,5.546749900007853,5790,0.028809,-0.045898,1.036865,3.458015,3.152672,0.763359,1.03828,4.7413,311,586,275,311,0,45.455,0,normal
1780589784.0655792,5.577778999999282,5821,0.046631,0.024902,1.054932,1.381679,2.961832,-0.099237,1.056255,3.269761,312,588,276,312,0,60.932,10,normal
1780589784.098112,5.61031190000358,5852,0.019043,-0.021484,1.047852,-0.183206,2.80916,-1.832061,1.048245,3.358778,313,591,278,313,1,60.932,14,normal
1780589784.1282334,5.640433300010045,5883,0.072266,-0.050049,1.032471,3.366412,3.122137,0.496183,1.036206,4.618081,314,593,279,314,1,60.932,12,normal
1780589784.1595142,5.671714099997189,5914,0.015381,-0.013184,1.060791,2.152672,2.870229,0.641221,1.060984,3.644637,316,596,280,316,0,60.932,9,normal
1780589784.1898484,5.702048400009517,5945,0.015381,0.004639,1.057129,-0.526718,3.198473,-1.770992,1.057251,3.693789,317,598,281,317,0,60.932,9,normal
1780589784.22158,5.733780000009574,5976,0.06958,-0.061768,1.034424,2.053435,3.290076,-0.427481,1.0386,3.901786,318,601,283,318,1,60.932,14,normal
1780589784.2517896,5.7639895000029355,6007,0.04126,-0.021973,1.057373,2.984733,2.78626,0.274809,1.058406,4.092358,320,604,284,320,0,60.932,9,normal
1780589784.2834482,5.795647999999346,6038,0.045898,0.028076,1.063232,-0.145038,2.717557,-1.717557,1.064593,3.218098,321,606,285,321,0,60.932,9,normal
1780589784.3134987,5.825698500004364,6069,0.029297,-0.065918,1.031982,0.770992,2.816794,-1.022901,1.0345,3.094363,322,609,287,322,1,60.932,15,normal
1780589784.3462613,5.85846109999693,6100,0.049805,-0.029785,1.056396,3.961832,2.458015,0.549618,1.057989,4.694681,324,612,288,324,0,43.011,10,normal
1780589784.3763847,5.888584700005595,6131,0.044678,0.012207,1.056152,0.068702,3.412214,-0.839695,1.057167,3.514685,325,614,289,325,0,43.011,9,normal
1780589784.4070735,5.919273300009081,6162,0.047852,-0.018555,1.052978,0.282443,2.633588,-1.519084,1.054229,3.053388,326,617,291,326,1,43.011,15,normal
1780589784.4378164,5.9500163000047905,6193,0.033936,-0.075439,1.040283,3.450382,2.89313,0.328244,1.043567,4.514762,328,620,292,328,0,43.011,10,normal
1780589784.4690065,5.981206399999792,6224,0.069824,0.023438,1.06543,1.19084,2.778626,-0.114504,1.067972,3.025223,329,622,293,329,0,43.011,10,normal
1780589784.5003715,6.012571400002344,6255,0.023926,-0.02124,1.052978,0.114504,3.015267,-2.061069,1.053464,3.654169,330,625,295,330,1,43.011,15,normal
1780589784.5321708,6.044370600007824,6286,0.033203,-0.052246,1.033691,3.320611,3.10687,0.458015,1.035543,4.570435,331,627,296,331,1,43.011,13,normal
1780589784.561436,6.073635799999465,6317,0.041504,0.006592,1.0625,2.076336,2.587786,0.152672,1.063331,3.321313,333,630,297,333,0,43.011,10,normal
1780589784.592393,6.104592800009414,6347,0.053223,0.018311,1.076904,-0.374046,3.122137,-1.618321,1.078374,3.536469,334,632,298,334,0,43.011,9,normal
1780589784.6237807,6.135980600010953,6378,0.039551,-0.062744,1.032471,1.580153,3.091603,-0.564886,1.035131,3.517668,335,635,300,335,1,39.568,14,normal
1780589784.654553,6.166752700009965,6409,0.059814,-0.034668,1.056885,3.343511,2.167939,0.671756,1.059144,4.041075,337,638,301,337,0,39.568,10,normal
1780589784.6850438,6.197243800008437,6440,0.018311,0.023926,1.063721,-0.10687,3.083969,-1.48855,1.064147,3.426086,338,640,302,338,0,39.568,9,normal
1780589784.716015,6.228214900009334,6471,0.037354,-0.030518,1.057861,0.503817,2.618321,-1.694656,1.05896,3.159319,339,643,304,339,1,39.568,14,normal
1780589784.7464576,6.258657400001539,6502,0.039307,-0.035156,1.049805,4.08397,2.671756,0.587786,1.051128,4.915545,341,646,305,341,0,39.568,9,normal
1780589784.7773468,6.289546800006065,6533,0.042725,0.019043,1.057373,0.587786,3.0,-0.458015,1.058407,3.09116,342,648,306,342,0,39.568,9,normal
1780589784.8152883,6.327488199996878,6563,0.028564,-0.032471,1.051514,0.061069,2.725191,-2.160305,1.052403,3.478119,343,651,308,343,1,39.568,14,normal
1780589784.8393178,6.351517600007355,6594,0.053223,-0.04834,1.03833,3.282443,2.625954,0.396947,1.040816,4.222278,344,653,309,344,1,39.568,12,normal
1780589784.8699687,6.382168500000262,6625,0.063721,0.013428,1.054199,1.763359,2.916031,0.633588,1.056209,3.466137,346,656,310,346,0,39.568,10,normal
1780589784.9012573,6.413457100003143,6656,0.0271,-0.014648,1.044922,-0.526718,2.587786,-2.137405,1.045376,3.397436,347,659,312,347,1,43.165,15,normal
1780589784.9325876,6.444787500004168,6688,0.070801,-0.043701,1.045166,3.015267,3.152672,0.0,1.048472,4.362474,348,661,313,348,1,43.165,13,normal
1780589784.964252,6.476451900001848,6718,0.034424,-0.012451,1.061035,2.648855,2.274809,0.061069,1.061666,3.492122,350,664,314,350,0,43.165,10,normal
1780589784.9954293,6.507629100000486,6749,0.029785,0.025391,1.04834,0.022901,3.198473,-1.717557,1.04907,3.630532,351,666,315,351,0,43.165,9,normal
1780589785.025551,6.537751000010758,6780,0.057373,-0.062744,1.033691,1.709924,2.755725,-0.664122,1.037182,3.310426,352,669,317,352,1,43.165,15,normal
1780589785.0566514,6.568851200005156,6811,0.021484,-0.027344,1.054199,3.10687,2.687023,0.419847,1.054773,4.129044,354,672,318,354,0,43.165,9,normal
1780589785.0870173,6.599217199996929,6842,0.001709,0.019775,1.056152,-0.160305,2.839695,-1.129771,1.056339,3.060383,355,674,319,355,0,43.165,10,normal
1780589785.1183677,6.630567600004724,6873,0.063965,-0.055176,1.048828,1.08397,2.877863,-1.587786,1.052224,3.460946,356,677,321,356,1,43.165,13,normal
1780589785.1491382,6.661338100006105,6904,0.013916,-0.026855,1.046143,3.541985,2.725191,0.549618,1.04658,4.50271,358,680,322,358,0,43.165,9,normal
1780589785.179516,6.691715900000418,6935,0.05249,0.016602,1.065918,0.503817,2.717557,-0.320611,1.067339,2.782398,359,682,323,359,0,43.011,9,normal
1780589785.2116838,6.72388370000408,6966,0.015381,-0.02002,1.046143,0.648855,2.793893,-1.59542,1.046447,3.282106,360,685,325,360,1,43.011,14,normal
1780589785.2414587,6.75365860000602,6997,0.064453,-0.059814,1.032959,3.221374,2.885496,0.022901,1.036695,4.324796,362,688,326,362,0,43.011,9,normal
1780589785.2734034,6.7856033999996725,7028,0.067139,0.015381,1.05835,1.091603,3.122137,0.267176,1.060588,3.318241,363,690,327,363,0,43.011,10,normal
1780589785.3052087,6.817408500006422,7059,0.027588,-0.032715,1.047852,0.335878,2.580153,-1.648855,1.048725,3.080378,364,693,329,364,1,43.011,15,normal
1780589785.3355813,6.847781100004795,7090,0.067139,-0.040527,1.035644,3.21374,3.419847,0.267176,1.03861,4.700518,365,695,330,365,1,43.011,13,normal
1780589785.3665574,6.878757200000109,7121,0.020752,-0.009521,1.054443,1.236641,3.022901,0.076336,1.05469,3.266962,367,698,331,367,0,43.011,10,normal
1780589785.3978856,6.9100854999996955,7152,0.050293,0.016113,1.060059,0.160305,3.053435,-1.580153,1.061373,3.441809,368,700,332,368,0,43.011,8,normal
1780589785.4288251,6.941024900006596,7183,0.056641,-0.046631,1.030273,2.916031,3.137405,0.022901,1.032882,4.283348,370,703,333,370,1,43.011,14,normal
1780589785.4596653,6.9718651000002865,7214,0.044922,-0.014648,1.05249,2.145038,2.664122,0.412214,1.05355,3.445092,372,706,334,372,0,46.595,10,normal
1780589785.4900494,7.002249199998914,7245,0.01123,0.005371,1.049072,-0.229008,3.282443,-1.671756,1.049146,3.690751,373,708,335,373,0,46.595,10,normal
1780589785.5215313,7.033731300005456,7276,0.048828,-0.068115,1.040283,1.717557,2.778626,-0.832061,1.043654,3.370918,374,711,337,374,1,46.595,13,normal
1780589785.5513322,7.063532200001646,7307,0.022217,-0.021973,1.057861,3.534351,2.70229,0.358779,1.058323,4.463488,376,714,338,376,0,46.595,9,normal
1780589785.5815403,7.0937401999981375,7337,0.0271,0.022949,1.057129,0.114504,2.961832,-0.755725,1.057725,3.058869,377,716,339,377,0,46.595,9,normal
1780589785.6136618,7.125861599997734,7368,0.040527,-0.042725,1.047119,0.862595,2.358779,-1.366412,1.048774,2.859194,378,719,341,378,1,46.595,14,normal
1780589785.6450984,7.157298400008585,7399,0.056641,-0.062256,1.063232,3.748092,2.625954,0.389313,1.066558,4.592972,380,722,342,380,0,46.595,9,normal
1780589785.6761272,7.188327000010759,7430,0.032715,0.022949,1.054443,0.709924,3.122137,0.229008,1.0552,3.210012,381,724,343,381,0,46.595,9,normal
1780589785.7065203,7.218720100005157,7461,0.036865,-0.03418,1.05249,0.267176,2.656489,-1.656489,1.05369,3.142017,382,727,345,382,1,46.595,15,normal
1780589785.7387595,7.2509594000002835,7493,0.064941,-0.061523,1.051758,3.709924,3.030534,0.343511,1.055555,4.802674,385,731,346,385,0,46.595,12,normal
1780589785.7698257,7.282025499996962,7524,0.024414,0.015137,1.060059,1.167939,2.839695,0.030534,1.060448,3.070648,387,734,347,387,0,46.595,10,normal
1780589785.8126934,7.32489329999953,7555,0.02832,-0.040771,1.047363,-0.129771,3.160305,-1.862595,1.048539,3.670645,388,737,349,388,1,46.595,14,normal
1780589785.8309882,7.343187999998918,7586,0.060791,-0.050049,1.035644,3.267176,3.251908,0.358779,1.038634,4.623642,389,739,350,389,1,46.595,13,normal
1780589785.8619227,7.374122599998373,7617,0.014893,0.008301,1.066406,2.129771,2.396947,0.78626,1.066542,3.301436,391,742,351,391,0,46.595,10,normal
1780589785.893434,7.405634000009741,7648,0.04541,0.01709,1.054199,-0.328244,3.022901,-2.21374,1.055315,3.76116,392,744,352,392,0,46.595,9,normal
1780589785.924554,7.436754000009387,7679,0.053223,-0.071777,1.025635,2.221374,3.419847,-0.160305,1.02952,4.081122,393,747,354,393,1,46.595,14,normal
1780589785.9555528,7.467752800002927,7710,0.055908,-0.0354,1.053955,3.129771,2.847328,0.473282,1.05603,4.257551,395,750,355,395,0,46.595,9,normal
1780589785.9859006,7.498100500000874,7741,0.040283,0.027344,1.059326,-0.175573,3.099237,-1.572519,1.060444,3.479786,396,752,356,396,0,46.595,9,normal
1780589786.0171545,7.529354400001466,7772,0.059082,-0.071045,1.04248,0.969466,2.572519,-1.175572,1.046568,2.989931,397,755,358,397,1,43.011,14,normal
1780589786.0480227,7.560222600004636,7803,0.001709,-0.03125,1.037842,3.954198,2.847328,0.916031,1.038314,4.958031,399,758,359,399,0,43.011,9,normal
1780589786.0790265,7.5912264000071445,7833,0.032471,0.022461,1.051758,0.51145,2.961832,-0.167939,1.052499,3.010354,400,760,360,400,0,43.011,9,normal
1780589786.109654,7.621853900011047,7864,0.05127,-0.010498,1.056396,0.496183,2.290076,-2.091603,1.057692,3.140931,401,763,362,401,1,43.011,14,normal
1780589786.1406243,7.652824200005853,7895,0.027832,-0.056396,1.026367,3.526718,2.923664,0.366412,1.028292,4.595629,402,765,363,402,0,43.011,12,normal
1780589786.1706364,7.682836400010274,7926,0.056152,-0.001953,1.048584,1.900763,2.816794,0.274809,1.050088,3.409216,404,768,364,404,0,43.011,9,normal
1780589786.2005508,7.712750699996832,7956,0.017578,0.00708,1.057129,-0.091603,3.053435,-2.183206,1.057299,3.754763,405,770,365,405,0,43.011,8,normal
1780589786.2329905,7.745190500005265,7987,0.058105,-0.057373,1.037354,2.358779,2.984733,-0.145038,1.040562,3.807034,406,773,367,406,1,43.011,14,normal
1780589786.262346,7.774546000000555,8018,0.030762,-0.021973,1.064209,2.816794,2.618321,0.442748,1.06488,3.87117,408,776,368,408,0,43.011,9,normal
1780589786.2943404,7.806540200006566,8048,0.040527,0.017334,1.050293,-0.229008,2.946565,-1.374046,1.051217,3.259247,409,778,369,409,0,43.478,10,normal
1780589786.3238304,7.836030200007372,8079,0.049561,-0.03125,1.049805,0.824427,2.648855,-1.175572,1.051438,3.012986,410,781,371,410,1,43.478,15,normal
1780589786.355696,7.867895800009137,8110,0.026855,-0.05127,1.048584,3.694656,2.770992,0.709924,1.05018,4.672566,419,791,372,419,0,43.478,0,normal
1780589786.3864625,7.8986624000099255,8141,0.000732,0.026611,1.057373,0.274809,2.664122,-0.618321,1.057708,2.748706,420,793,373,420,0,43.478,10,normal
1780589786.417772,7.929971999998088,8172,0.056396,-0.028076,1.059082,0.480916,2.442748,-1.885496,1.060954,3.123042,421,796,375,421,1,43.478,14,normal
1780589786.4494185,7.961618500004988,8204,0.025635,-0.057617,1.037598,3.671756,2.885496,0.496183,1.039512,4.696177,430,809,379,430,0,43.478,0,normal
1780589786.4808073,7.993007199998829,8236,0.029053,0.025635,1.060791,0.137405,3.282443,-0.564886,1.061498,3.333528,431,811,380,431,0,43.478,10,normal
1780589786.5116932,8.023893200006569,8267,0.050781,-0.018066,1.059326,0.541985,2.427481,-1.282443,1.060696,2.798405,432,814,382,432,1,43.478,14,normal
1780589786.543793,8.05599280000024,8298,0.05249,-0.058838,1.048828,3.854962,2.80916,0.335878,1.051788,4.781728,434,817,383,434,0,100.0,10,normal
1780589786.572723,8.084922900001402,8329,0.019287,0.017334,1.054932,0.70229,2.59542,-0.007634,1.05525,2.688768,435,819,384,435,0,100.0,9,normal
1780589786.60492,8.11711990000913,8359,0.019531,-0.011719,1.048096,-0.656489,3.114504,-1.80916,1.048343,3.661171,436,822,386,436,1,100.0,14,normal
1780589786.6362798,8.148479600000428,8390,0.061768,-0.039551,1.036133,3.10687,2.793893,-0.389313,1.038726,4.196432,437,824,387,437,1,100.0,14,normal
1780589786.6660244,8.17822430000524,8421,0.048828,-0.001953,1.033447,2.229008,2.48855,0.557252,1.034602,3.387017,439,827,388,439,0,100.0,10,normal
1780589786.6969776,8.209177400000044,8452,0.040039,0.016602,1.062256,-0.175573,3.183206,-1.580153,1.06314,3.558161,440,829,389,440,0,100.0,8,normal
1780589786.7273939,8.239593799997238,8483,0.061523,-0.058105,1.050537,1.427481,2.847328,-0.679389,1.05394,3.25677,441,832,391,441,1,100.0,14,normal
1780589786.759927,8.27212700000382,8513,0.047119,-0.03418,1.061279,3.389313,2.610687,0.305344,1.062874,4.289098,443,835,392,443,0,100.0,10,normal
1780589786.7877114,8.299911200010683,8544,0.025391,0.009277,1.05249,0.007634,2.961832,-0.89313,1.052837,3.093572,444,837,393,444,0,100.0,9,normal
1780589786.8192573,8.331457100008265,8574,0.036133,-0.013428,1.058838,0.694656,2.48855,-1.717557,1.059539,3.102488,445,840,395,445,1,39.855,14,normal
1780589786.8525925,8.364792300009867,8606,0.043701,-0.050537,1.046387,3.435115,2.969466,0.10687,1.048518,4.541934,454,850,396,454,0,39.855,0,normal
1780589786.883375,8.395574699999997,8637,0.045898,0.016357,1.069092,0.725191,2.564885,-0.129771,1.070202,2.668591,455,852,397,455,0,39.855,10,normal
1780589786.9127204,8.424920300007216,8668,0.061523,-0.019531,1.064209,0.778626,2.580153,-1.381679,1.066165,3.028611,456,855,399,456,1,39.855,13,normal
1780589786.9460318,8.458231600001454,8700,0.025391,-0.053223,1.046875,3.580153,2.824427,0.068702,1.048534,4.560658,465,866,401,465,0,39.855,0,normal
1780589786.9768982,8.48909800000547,8731,0.041748,0.015381,1.061523,0.770992,2.671756,-0.580153,1.062455,2.840649,466,868,402,466,0,39.855,9,normal
1780589787.0082786,8.52047840000887,8762,0.049805,-0.031006,1.055908,0.541985,2.862595,-1.770992,1.057537,3.409489,467,871,404,467,1,39.855,14,normal
1780589787.038183,8.550382900008117,8793,0.048584,-0.033447,1.034668,3.343511,3.030534,0.335878,1.036348,4.525044,468,873,405,468,1,39.855,12,normal
1780589787.0693483,8.581548200003454,8824,0.037354,0.017334,1.051758,1.015267,2.70229,-0.068702,1.052564,2.887535,470,876,406,470,0,100.0,10,normal
1780589787.0991757,8.6113755999977,8854,0.062012,-0.01001,1.054688,0.007634,3.10687,-1.229008,1.056556,3.341132,471,878,407,471,0,100.0,7,normal
1780589787.1296446,8.641844500001753,8884,0.047607,-0.062012,1.031494,1.961832,2.854962,-0.709924,1.034452,3.536041,472,881,409,472,1,100.0,14,normal
1780589787.1606596,8.672859400001471,8915,0.045166,-0.024902,1.061279,3.045802,2.541985,0.320611,1.062532,3.980124,474,884,410,474,0,100.0,10,normal
1780589787.1916244,8.703824399999576,8946,0.021729,0.012939,1.05835,-0.229008,2.900763,-1.412214,1.058652,3.234381,475,886,411,475,0,100.0,9,normal
1780589787.2230601,8.735260100002051,8977,0.046143,-0.03833,1.035889,1.10687,2.725191,-1.08397,1.037624,3.134775,476,889,413,476,1,100.0,14,normal
1780589787.253219,8.765418800001498,9008,0.031982,-0.035889,1.049805,4.038168,2.824427,0.465649,1.050905,4.94985,478,892,414,478,0,100.0,9,normal
1780589787.2845078,8.796707600005902,9039,0.033203,0.025391,1.058106,-0.007634,2.916031,-0.450382,1.058931,2.950616,479,894,415,479,0,100.0,10,normal
1780589787.3158896,8.828089500006172,9070,0.026367,-0.024902,1.047607,0.374046,2.557252,-1.824428,1.048235,3.16354,480,897,417,480,1,100.0,14,normal
1780589787.3481908,8.860390700006974,9102,0.041992,-0.075684,1.028564,3.167939,3.396947,0.145038,1.0322,4.647162,489,908,419,489,0,68.345,0,normal
1780589787.378102,8.89030189999903,9133,0.188232,0.0271,1.022705,0.885496,4.870229,-0.137405,1.040236,4.951981,490,910,420,490,0,68.345,9,normal
1780589787.4102628,8.922462600006838,9164,0.049805,-0.027832,1.019043,-0.435114,3.427481,-2.198473,1.020639,4.095148,491,913,422,491,1,68.345,14,normal
1780589787.4403586,8.952558500008308,9195,0.018555,-0.05127,1.060791,3.748092,2.664122,0.21374,1.062191,4.603414,492,915,423,492,1,68.345,12,normal
1780589787.4709685,8.983168300008401,9226,0.060547,0.010742,1.047363,1.78626,2.900763,0.122137,1.049167,3.408822,494,918,424,494,0,68.345,9,normal
1780589787.5028315,9.015031400005682,9257,0.021973,-0.014893,1.058106,-0.59542,2.694656,-2.206107,1.058438,3.533073,495,921,426,495,1,68.345,15,normal
1780589787.5342023,9.046402300009504,9288,0.064697,-0.047363,1.044434,3.572519,2.992366,0.206107,1.047507,4.664722,496,923,427,496,1,68.345,14,normal
1780589787.5650878,9.077287599997362,9319,0.019775,-0.018799,1.053955,2.648855,2.534351,0.664122,1.054308,3.725644,498,926,428,498,0,68.345,9,normal
1780589787.5962062,9.108406100000138,9350,0.050049,0.029541,1.057129,-0.59542,3.160305,-1.78626,1.058725,3.678692,499,928,429,499,0,68.345,9,normal
1780589787.6278527,9.140052600007039,9381,0.042725,-0.061523,1.032227,1.832061,3.083969,-0.709924,1.034941,3.65668,500,931,431,500,1,39.427,15,normal
1780589787.655826,9.16802589999861,9412,0.035645,-0.029297,1.069336,3.0,2.526718,0.70229,1.070331,3.98466,502,934,432,502,0,39.427,10,normal
1780589787.6878936,9.200093500010553,9442,0.032227,0.015625,1.04834,-0.244275,3.015267,-1.045802,1.048951,3.200814,503,936,433,503,0,39.427,10,normal
1780589787.7188323,9.231032199997571,9473,0.030029,-0.028809,1.040772,0.801527,2.427481,-1.755725,1.041603,3.101238,505,941,436,505,1,39.427,13,normal
1780589787.7520864,9.26428630000737,9505,0.033447,-0.072998,1.039062,3.793893,2.755725,0.748092,1.04216,4.748398,514,951,437,514,0,39.427,0,normal
1780589787.7859533,9.298153099996853,9536,0.036133,0.029785,1.057617,0.480916,2.946565,-0.610687,1.058653,3.04737,515,953,438,515,0,39.427,9,normal
1780589787.8127284,9.324928200003342,9567,0.058594,-0.033691,1.045898,0.648855,2.709924,-1.709924,1.04808,3.269333,516,956,440,516,1,39.427,14,normal
1780589787.8443594,9.356559300009394,9599,0.02832,-0.063232,1.033936,3.519084,3.007634,0.625954,1.036254,4.671363,525,966,441,525,0,39.427,1,normal
1780589787.87554,9.387740000005579,9630,0.006104,0.027588,1.066894,0.282443,3.045802,-0.152672,1.067269,3.062677,526,968,442,526,0,39.427,10,normal
1780589787.9059842,9.418184100009967,9661,0.040527,-0.025391,1.062012,0.396947,2.519084,-1.725191,1.063088,3.078902,527,971,444,527,1,96.429,15,normal
1780589787.9381146,9.450314600006095,9692,0.031494,-0.062256,1.031738,3.320611,3.267176,0.80916,1.034095,4.728174,528,973,445,528,1,96.429,12,normal
1780589787.9689798,9.481179800000973,9723,0.054688,0.022461,1.05835,1.450382,2.709924,0.099237,1.06,3.075246,530,976,446,530,0,96.429,10,normal
1780589787.9997816,9.511981600007857,9754,0.008545,-0.019043,1.050781,-0.450382,2.580153,-1.954198,1.050989,3.267862,531,979,448,531,1,96.429,14,normal
1780589788.031103,9.543302700010827,9785,0.067627,-0.047363,1.026856,3.312977,3.007634,0.022901,1.030169,4.474618,532,981,449,532,1,96.429,14,normal
1780589788.061957,9.574156700007734,9816,0.034424,-0.016846,1.04541,2.412214,2.801527,0.70229,1.046112,3.763049,534,984,450,534,0,96.429,9,normal
1780589788.0937889,9.605988800001796,9847,0.050293,0.022461,1.067871,-0.305344,2.992366,-1.938931,1.069291,3.578679,535,986,451,535,0,96.429,9,normal
1780589788.1240594,9.636259200007771,9878,0.027344,-0.054688,1.03833,2.045802,3.015267,-0.679389,1.040129,3.706576,536,989,453,536,1,96.429,15,normal
1780589788.1534743,9.665674200005014,9909,0.054199,-0.031494,1.052978,3.419847,2.641221,0.885496,1.054843,4.41084,538,992,454,538,0,96.429,9,normal
1780589788.1843925,9.696592300009797,9939,0.020752,0.023193,1.049561,-0.351145,2.931298,-0.977099,1.050022,3.109748,539,994,455,539,0,43.165,10,normal
1780589788.2158933,9.72809309999866,9970,0.044922,-0.042725,1.047852,0.847328,2.473282,-1.08397,1.049684,2.830208,540,997,457,540,1,43.165,14,normal
1780589788.24675,9.758950100003858,10001,0.027344,-0.043945,1.053223,3.816794,2.824427,0.587786,1.054494,4.784433,542,1000,458,542,0,43.165,9,normal
1780589788.2780976,9.790297500003362,10032,0.045166,0.022461,1.062744,0.435114,2.625954,-0.442748,1.06394,2.69833,543,1002,459,543,0,43.165,10,normal
1780589788.30924,9.82143989999895,10063,0.036377,-0.016357,1.047119,0.282443,2.778626,-1.572519,1.047878,3.205207,544,1005,461,544,1,43.165,14,normal
1780589788.3403761,9.852575900004013,10094,0.060791,-0.066406,1.038574,3.450382,2.78626,0.473282,1.042469,4.460087,546,1008,462,546,0,43.165,10,normal
1780589788.3706596,9.882859500008635,10125,0.061035,0.013916,1.060303,1.664122,2.877863,0.122137,1.062149,3.326607,547,1010,463,547,0,43.165,9,normal
1780589788.4015682,9.913768099999288,10156,0.009521,-0.022217,1.044189,-0.21374,2.80916,-1.534351,1.044469,3.208006,548,1013,465,548,1,43.165,14,normal
1780589788.4316797,9.943879500002367,10187,0.068604,-0.041992,1.037354,3.251908,3.007634,0.274809,1.040467,4.43805,549,1015,466,549,1,43.165,14,normal
1780589788.4617121,9.973912000001292,10217,0.053711,-0.03125,1.056152,2.633588,2.709924,0.175573,1.057979,3.782895,551,1018,467,551,0,43.165,10,normal
1780589788.493025,10.00522490000003,10247,0.051758,0.028809,1.063965,0.183206,3.007634,-1.198473,1.065613,3.242802,552,1020,468,552,0,43.165,10,normal
1780589788.5242622,10.036462000003667,10278,0.051514,-0.061035,1.032471,0.954198,2.641221,-1.099237,1.035555,3.01577,553,1023,470,553,1,43.165,14,normal
1780589788.553493,10.065692800009856,10309,0.018311,-0.028076,1.05127,3.152672,2.40458,0.374046,1.051804,3.982619,555,1026,471,555,0,43.165,9,normal
1780589788.5853868,10.097586600008071,10340,0.046875,0.013672,1.067871,0.419847,2.80916,-0.412214,1.068987,2.870117,556,1028,472,556,0,43.165,10,normal
1780589788.6175866,10.129786500008777,10371,0.016846,-0.026367,1.039062,0.80916,2.541985,-1.076336,1.039534,2.876617,557,1031,474,557,1,43.165,14,normal
1780589788.6493528,10.161552700010361,10403,0.042725,-0.047119,1.04541,3.671756,2.977099,0.648855,1.047343,4.771364,566,1041,475,566,0,43.165,0,normal
1780589788.6792374,10.191437200002838,10434,0.05249,0.013916,1.060059,0.305344,2.633588,-0.549618,1.061449,2.7076,567,1043,476,567,0,43.165,9,normal
1780589788.7107074,10.22290740000608,10465,0.044189,-0.025879,1.045166,1.08397,2.473282,-1.603053,1.04642,3.140366,568,1046,478,568,1,43.165,14,normal
1780589788.741113,10.253312900007586,10496,0.021973,-0.058838,1.036621,3.122137,2.465649,0.022901,1.038522,3.978403,570,1049,479,570,0,68.1,10,normal
1780589788.7712793,10.283479100005934,10527,0.066406,0.011475,1.062744,0.656489,3.015267,-0.152672,1.064879,3.08968,571,1051,480,571,0,68.1,9,normal
1780589788.8033242,10.315524000005098,10557,0.04541,-0.01709,1.060059,-0.366412,2.473282,-1.854962,1.061168,3.11324,572,1054,482,572,1,68.1,14,normal
1780589788.8338304,10.346030200002133,10589,0.068604,-0.04126,1.047607,3.748092,2.961832,0.305344,1.050662,4.786844,573,1056,483,573,1,68.1,13,normal
1780589788.8635206,10.37572050000017,10620,0.016357,-0.001221,1.043945,1.496183,3.0,0.007634,1.044074,3.352405,575,1059,484,575,0,68.1,9,normal
1780589788.8946502,10.406850100000156,10649,0.02124,0.021729,1.052978,-0.221374,3.572519,-1.534351,1.053417,3.894372,576,1061,485,576,0,68.1,10,normal
1780589788.9259977,10.438197600000422,10680,0.061768,-0.063965,1.038574,2.167939,2.671756,-0.450382,1.042374,3.470026,577,1064,487,577,1,68.1,15,normal
1780589788.9562502,10.468450000000303,10711,0.019531,-0.023682,1.064697,3.259542,2.755725,0.572519,1.06514,4.306555,580,1069,489,580,0,68.1,0,normal
1780589788.9867165,10.498916399999871,10742,0.0625,0.015381,1.06543,-0.351145,3.083969,-1.053435,1.067372,3.277788,581,1071,490,581,0,68.1,9,normal
1780589789.017115,10.529314900006284,10772,0.049072,-0.033691,1.050293,0.816794,2.641221,-1.549618,1.051978,3.169309,582,1074,492,582,1,43.478,14,normal
1780589789.0502095,10.562409300007857,10804,0.056396,-0.048584,1.056641,3.824427,2.526718,0.51145,1.059259,4.612172,591,1084,493,591,0,43.478,0,normal
1780589789.0809631,10.593162899996969,10835,0.044922,0.02124,1.061523,-0.114504,3.122137,-0.503817,1.062686,3.164598,592,1086,494,592,0,43.478,9,normal
1780589789.1123676,10.624567400009255,10866,0.025879,-0.035645,1.054932,0.480916,2.793893,-1.48855,1.055851,3.202015,593,1089,496,593,1,43.478,14,normal
1780589789.1434991,10.655699100010679,10897,0.061279,-0.065918,1.041504,3.664122,2.954198,0.396947,1.045385,4.723415,595,1092,497,595,0,43.478,10,normal
1780589789.174222,10.686421899998095,10928,0.039795,0.030518,1.052734,1.450382,2.885496,-0.068702,1.053928,3.230234,596,1094,498,596,0,43.478,9,normal
1780589789.2056985,10.717898400005652,10959,0.047119,-0.026367,1.050781,0.10687,2.396947,-1.732824,1.052168,2.959638,597,1097,500,597,1,43.478,15,normal
1780589789.2355747,10.74777470000845,10990,0.035645,-0.045654,1.023682,3.59542,3.083969,0.282443,1.025319,4.74528,598,1099,501,598,1,43.478,12,normal
1780589789.2656465,10.77784629999951,11020,0.034668,-0.00415,1.053223,2.465649,2.503817,0.931298,1.053801,3.63536,600,1102,502,600,0,43.478,10,normal
1780589789.2967064,10.808906300007948,11051,0.015625,0.032227,1.060303,-0.435114,3.122137,-2.10687,1.060907,3.791566,601,1104,503,601,0,68.1,9,normal
1780589789.327928,10.840128000010736,11082,0.061523,-0.07373,1.032471,1.366412,2.641221,-0.725191,1.036927,3.060888,602,1107,505,602,1,68.1,15,normal
1780589789.3581262,10.870326100004604,11113,0.013916,-0.038818,1.04834,3.320611,3.076336,0.70229,1.049151,4.580776,604,1110,506,604,0,68.1,10,normal
1780589789.3956852,10.90788500000781,11144,0.062012,0.022949,1.069092,0.10687,2.870229,-1.328244,1.071135,3.16447,605,1112,507,605,0,68.1,10,normal
1780589789.4265947,10.938794700006838,11182,0.05957,-0.0625,1.053955,3.801527,2.59542,0.480916,1.057486,4.628076,615,1123,508,615,0,68.1,0,normal
1780589789.4576106,10.969810599999619,11212,0.015625,0.036621,1.061768,1.152672,2.519084,0.061069,1.062514,2.77095,616,1125,509,616,0,68.1,9,normal
1780589789.4889657,11.001165599998785,11243,0.043701,-0.022217,1.058594,0.21374,2.572519,-2.061069,1.059728,3.303262,617,1128,511,617,1,68.1,14,normal
1780589789.5200994,11.032299300000886,11274,0.041504,-0.050293,1.025146,3.541985,3.198473,0.458015,1.027218,4.794337,618,1130,512,618,1,68.1,13,normal
1780589789.5500965,11.062296400006744,11305,0.047607,0.000488,1.051025,2.068702,2.900763,0.358779,1.052103,3.580877,622,1135,513,622,0,82.677,10,normal
1780589789.5811791,11.093379099998856,11336,0.020996,0.009766,1.059082,-0.618321,3.183206,-2.267176,1.059335,3.956666,623,1137,514,623,1,82.677,7,normal
1780589789.61172,11.123919899997418,11366,0.061768,-0.065186,1.025635,2.007634,2.832061,-0.80916,1.029559,3.564534,624,1140,516,624,1,82.677,14,normal
1780589789.6437104,11.155910200002836,11397,0.028076,-0.028564,1.046143,3.053435,3.083969,0.755725,1.046909,4.405162,626,1143,517,626,0,82.677,10,normal
1780589789.674049,11.186248700003489,11428,0.048584,0.031494,1.063232,0.152672,3.122137,-1.076336,1.064808,3.305987,627,1145,518,627,0,82.677,9,normal
1780589789.7052355,11.217435300000943,11459,0.02832,-0.054199,1.046631,1.091603,2.763359,-1.129771,1.048416,3.1787,628,1148,520,628,1,82.677,14,normal
1780589789.7358787,11.248078500007978,11490,0.054932,-0.04248,1.055176,3.534351,2.435115,0.145038,1.057458,4.294468,630,1151,521,630,0,82.677,9,normal
1780589789.7663968,11.278596600008314,11521,0.007324,0.017822,1.043457,-0.045802,2.992366,-0.916031,1.043635,3.129771,631,1153,522,631,0,82.677,10,normal
1780589789.7978363,11.310036299997591,11552,0.017578,-0.027344,1.056641,0.862595,2.755725,-1.175572,1.05714,3.117702,632,1156,524,632,1,82.677,14,normal
1780589789.8294773,11.341677100004745,11583,0.055908,-0.058105,1.058594,3.419847,2.335878,0.534351,1.06166,4.175789,638,1163,525,638,0,57.554,1,normal
1780589789.8612733,11.37347310000041,11615,0.060547,0.016113,1.061523,0.427481,2.732824,-0.740458,1.063371,2.86345,639,1165,526,639,0,57.554,10,normal
1780589789.890699,11.40289880000637,11645,0.063232,-0.023193,1.049316,0.320611,2.633588,-2.19084,1.051476,3.440691,640,1168,528,640,1,57.554,14,normal
1780589789.9218109,11.434010800003307,11676,0.0271,-0.050781,1.036377,3.80916,2.832061,0.251908,1.037974,4.753286,641,1170,529,641,0,57.554,12,normal
1780589789.9533541,11.465553900008672,11707,0.023438,0.025635,1.069336,1.450382,2.679389,0.091603,1.0699,3.048135,643,1173,530,643,0,57.554,9,normal
1780589789.9857068,11.497906800010242,11739,0.052734,-0.014648,1.057861,0.122137,2.664122,-1.603053,1.059276,3.11163,644,1176,532,644,1,57.554,14,normal
1780589790.0158503,11.528050300010364,11770,0.062744,-0.059814,1.047363,3.389313,3.122137,0.022901,1.050945,4.608222,645,1178,533,645,1,57.554,12,normal
1780589790.0468044,11.55900439999823,11801,0.031006,0.015625,1.061523,1.664122,2.740458,0.419847,1.062091,3.233525,647,1181,534,647,0,57.554,10,normal
1780589790.0783677,11.590567699997337,11832,0.039062,-0.019531,1.046387,-0.427481,2.656489,-2.091603,1.047298,3.408002,648,1184,536,648,1,57.554,14,normal
1780589790.109348,11.62154800001008,11863,0.049072,-0.04834,1.043457,2.59542,3.244275,0.274809,1.045728,4.163778,649,1186,537,649,1,39.286,13,normal
1780589790.1397934,11.651993300009053,11894,0.069824,-0.023682,1.050293,2.259542,2.580153,0.534351,1.052878,3.471059,651,1189,538,651,0,39.286,10,normal
1780589790.1704886,11.682688500004588,11925,0.04834,0.006836,1.046631,-0.015267,3.59542,-1.992366,1.047769,4.110572,652,1191,539,652,0,39.286,9,normal
1780589790.200276,11.712475699998322,11955,0.064453,-0.065918,1.0354,1.603053,2.793893,-0.732824,1.039497,3.30343,653,1194,541,653,1,39.286,14,normal
1780589790.2308493,11.743049099997734,11985,0.055664,-0.032715,1.060059,3.19084,2.389313,0.236641,1.062023,3.993278,655,1197,542,655,0,39.286,9,normal
1780589790.2618594,11.774059200004558,12016,0.014648,0.014404,1.065674,0.251908,3.083969,-0.48855,1.065872,3.132572,656,1199,543,656,0,39.286,10,normal
1780589790.293269,11.805468899998232,12047,0.046875,-0.010498,1.059326,1.10687,2.114504,-1.732824,1.060415,2.949401,657,1202,545,657,1,39.286,13,normal
1780589790.3242543,11.836454200005392,12079,0.050781,-0.040527,1.05127,3.557252,2.366412,0.10687,1.053275,4.2738,666,1212,546,666,0,39.286,0,normal
1780589790.3558342,11.868034200000693,12110,0.047607,0.010742,1.058106,0.312977,3.007634,-0.770992,1.05923,3.120616,667,1214,547,667,0,39.286,9,normal
1780589790.387041,11.89924090000568,12141,0.021484,-0.023682,1.052002,0.954198,2.366412,-1.282443,1.052488,2.855707,668,1217,549,668,1,68.345,14,normal
1780589790.4179702,11.93017000000691,12172,0.07251,-0.065918,1.041748,3.549618,2.572519,0.335878,1.046347,4.396642,670,1220,550,670,0,68.345,10,normal
1780589790.44819,11.960389800005942,12203,0.036377,0.016357,1.054932,0.885496,3.19084,-0.221374,1.055685,3.31882,671,1222,551,671,0,68.345,10,normal
1780589790.4790044,11.991204200006905,12234,0.031982,-0.03125,1.060547,0.526718,2.389313,-1.854962,1.061489,3.070364,672,1225,553,672,1,68.345,14,normal
1780589790.510513,12.022712999998475,12265,0.060547,-0.054688,1.03833,3.770992,3.145038,0.351145,1.041531,4.9229,673,1227,554,673,1,68.345,13,normal
1780589790.541488,12.053687899999204,12296,0.029297,0.010254,1.048828,1.274809,3.175573,0.320611,1.049287,3.436887,675,1230,555,675,0,68.345,10,normal
1780589790.5729818,12.085181600006763,12327,0.05542,-0.016357,1.061768,-0.343511,2.832061,-2.0,1.063339,3.484045,676,1233,557,676,1,68.345,14,normal
1780589790.6039214,12.116121400002157,12358,0.044678,-0.048828,1.036133,3.267176,3.160305,0.053435,1.038244,4.545858,677,1235,558,677,1,68.345,14,normal
1780589790.6349306,12.147130400000606,12389,0.063232,-0.006592,1.048828,2.175573,2.320611,0.351145,1.050753,3.200258,679,1238,559,679,0,68.345,9,normal
1780589790.667332,12.17953180000768,12420,0.016357,0.021484,1.039307,-0.175573,3.366412,-1.862595,1.039657,3.85134,680,1240,560,680,0,43.011,8,normal
1780589790.7020783,12.21427820000099,12451,0.025146,-0.053955,1.033936,2.015267,2.916031,-0.175573,1.035648,3.548994,681,1243,562,681,1,43.011,14,normal
1780589790.7279084,12.24010830000043,12482,0.057861,-0.014893,1.068604,2.687023,2.503817,0.587786,1.070272,3.7195,685,1248,563,685,0,43.011,9,normal
1780589790.757645,12.26984480000101,12513,0.019531,0.031982,1.04541,0.022901,3.29771,-1.320611,1.046082,3.552384,686,1250,564,686,0,43.011,9,normal
1780589790.7891989,12.301398800002062,12544,0.061035,-0.064209,1.044434,1.045802,2.656489,-0.717557,1.048184,2.943726,687,1253,566,687,1,43.011,15,normal
1780589790.8200762,12.332276000001002,12575,-0.002197,-0.032715,1.050781,3.755725,2.648855,0.374046,1.051293,4.611054,689,1256,567,689,0,43.011,10,normal
1780589790.8524082,12.364608100004261,12606,0.045166,0.022461,1.063232,-0.290076,2.564885,-1.022901,1.064428,2.776528,690,1258,568,690,0,43.011,10,normal
1780589790.882829,12.395028900005855,12637,0.063721,-0.05835,1.042725,0.816794,2.526718,-1.435114,1.046298,3.018444,691,1261,570,691,1,43.011,14,normal
1780589790.9130003,12.425200300000142,12668,0.00708,-0.040283,1.052978,3.954198,2.427481,0.564886,1.053773,4.674125,693,1264,571,693,0,43.011,10,normal
1780589790.9441688,12.456368700004532,12699,0.036865,0.026855,1.064209,0.274809,3.083969,-0.328244,1.065186,3.11354,694,1266,572,694,0,50.179,10,normal
1780589790.9753113,12.48751110000012,12730,0.018555,-0.025391,1.047852,0.10687,2.954198,-1.549618,1.048323,3.337668,695,1269,574,695,1,50.179,14,normal
1780589791.008397,12.520597100010491,12762,0.053955,-0.064209,1.037842,3.908397,2.931298,0.450382,1.041225,4.906212,702,1280,578,702,0,50.179,1,normal
1780589791.0381362,12.550336100001005,12793,0.05127,0.025146,1.07666,0.816794,2.793893,-0.007634,1.078173,2.91085,703,1282,579,703,0,50.179,10,normal
1780589791.0698655,12.582065299997339,12824,0.019287,-0.01001,1.049805,0.083969,2.885496,-2.022901,1.05003,3.524949,704,1285,581,704,1,50.179,13,normal
1780589791.0999274,12.612127300002612,12855,0.020996,-0.063721,1.032715,3.221374,2.908397,0.694656,1.034892,4.39529,705,1287,582,705,1,50.179,12,normal
1780589791.131805,12.64400490000844,12886,0.062012,0.017334,1.060791,1.679389,3.061069,0.305344,1.062743,3.504815,707,1290,583,707,0,50.179,9,normal
1780589791.1633384,12.675538299998152,12917,0.020264,-0.025879,1.043945,-0.534351,2.801527,-2.129771,1.044463,3.559496,708,1293,585,708,1,50.179,14,normal
1780589791.1941066,12.706306400010362,12948,0.074463,-0.057129,1.03833,2.496183,3.358779,0.030534,1.042563,4.184884,709,1295,586,709,1,50.179,13,normal
1780589791.2253606,12.737560599998687,12979,0.028809,-0.005371,1.051025,2.564885,2.763359,0.770992,1.051434,3.848275,711,1298,587,711,0,60.714,10,normal
1780589791.2544565,12.766656300009345,13010,0.048096,0.013428,1.054199,-0.114504,3.0,-2.030534,1.055381,3.624387,712,1300,588,712,0,60.714,8,normal
1780589791.2859383,12.798138199999812,13040,0.037109,-0.071533,1.030273,1.557252,2.725191,-1.10687,1.03342,3.328192,713,1303,590,713,1,60.714,14,normal
1780589791.3177776,12.829977400004282,13071,0.07666,-0.038574,1.052246,3.091603,2.656489,0.40458,1.05574,4.096172,715,1306,591,715,0,60.714,9,normal
1780589791.3481872,12.860387100008666,13102,0.025391,0.027344,1.044678,-0.038168,2.969466,-0.816794,1.045344,3.07999,716,1308,592,716,0,60.714,10,normal
1780589791.378965,12.891164700005902,13133,0.029541,-0.034912,1.056885,0.648855,2.167939,-1.198473,1.057874,2.560725,717,1311,594,717,1,60.714,13,normal
1780589791.4098935,12.922093400004087,13164,0.04541,-0.044678,1.051514,3.648855,2.496183,0.503817,1.053442,4.449596,719,1314,595,719,0,60.714,9,normal
1780589791.4414482,12.953648100010469,13195,0.030029,0.012207,1.054199,0.328244,2.839695,-0.450382,1.054697,2.893865,720,1316,596,720,0,60.714,9,normal
1780589791.4727097,12.984909500009962,13226,0.049072,-0.019531,1.044189,0.679389,2.870229,-1.358779,1.045524,3.24747,721,1319,598,721,1,60.714,14,normal
1780589791.504142,13.016341900001862,13258,0.01709,-0.051514,1.048828,3.671756,2.557252,0.229008,1.050231,4.480376,730,1329,599,730,0,68.1,1,normal
1780589791.535153,13.047352699999465,13289,0.014893,0.022217,1.04834,0.267176,2.816794,-0.374046,1.048681,2.854054,731,1331,600,731,0,68.1,9,normal
1780589791.5662909,13.078490700005204,13320,0.033447,-0.012451,1.058838,0.70229,2.496183,-1.732824,1.059439,3.118785,732,1334,602,732,1,68.1,14,normal
1780589791.595804,13.108003900008043,13351,0.02832,-0.051025,1.041748,3.725191,3.221374,0.374046,1.043381,4.939049,734,1337,603,734,0,68.1,9,normal
1780589791.6265218,13.13872160000028,13382,0.032959,0.020264,1.064453,0.938931,2.839695,0.0,1.065156,2.990896,735,1339,604,735,0,68.1,10,normal
1780589791.6571863,13.169386100009433,13412,0.013184,-0.020508,1.036133,-0.732824,2.793893,-2.175573,1.03642,3.616073,736,1342,606,736,1,68.1,14,normal
1780589791.6878262,13.200026100006653,13443,0.067139,-0.044922,1.03125,2.862595,3.259542,0.061069,1.034409,4.338524,737,1344,607,737,1,68.1,14,normal
1780589791.7187018,13.2309016000072,13473,0.071289,-0.037842,1.056885,2.908397,2.946565,0.961832,1.059962,4.250428,739,1347,608,739,0,68.1,10,normal
1780589791.7497718,13.261971700005233,13504,0.011963,0.022461,1.054688,-0.099237,3.396947,-1.801527,1.054994,3.846374,740,1349,609,740,0,68.1,10,normal
1780589791.7813,13.293499899999006,13535,0.065186,-0.06958,1.051025,1.396947,2.51145,-0.916031,1.055341,3.016282,741,1352,611,741,1,39.711,14,normal
1780589791.8122115,13.32441149999795,13566,0.056152,-0.037354,1.057373,3.19084,2.48855,0.427481,1.059522,4.069039,743,1355,612,743,0,39.711,9,normal
1780589791.8435125,13.35571250000794,13597,-0.00415,0.024414,1.063721,-0.045802,2.580153,-0.89313,1.064009,2.730745,744,1357,613,744,0,39.711,10,normal
1780589791.8737237,13.385923699999694,13628,0.053955,-0.054932,1.039795,1.030534,2.541985,-1.374046,1.042642,3.067848,745,1360,615,745,1,39.711,14,normal
1780589791.9058008,13.418000600009691,13659,0.018555,-0.034424,1.033203,3.641221,3.076336,0.305344,1.033943,4.776564,747,1363,616,747,0,39.711,9,normal
1780589791.9362056,13.448405400005868,13690,0.047363,0.011719,1.057129,0.389313,2.839695,-0.732824,1.058254,2.958456,748,1365,617,748,0,39.711,9,normal
1780589791.9672992,13.47949910000898,13721,0.01709,-0.014648,1.048096,0.549618,2.694656,-1.465649,1.048337,3.116309,749,1368,619,749,1,39.711,14,normal
1780589791.9986072,13.51080699999875,13752,0.026611,-0.056396,1.032471,3.450382,3.076336,0.251908,1.034352,4.629518,751,1371,620,751,0,39.711,9,normal
1780589792.0294795,13.541679400004796,13783,0.057129,0.01416,1.05542,1.114504,3.038168,-0.053435,1.05706,3.236578,752,1373,621,752,0,39.711,10,normal
1780589792.059577,13.571776800003136,13814,0.003418,-0.02832,1.04834,0.267176,2.862595,-1.969466,1.048728,3.484914,753,1376,623,753,1,43.011,15,normal
1780589792.091144,13.603343900002073,13845,0.064941,-0.040283,1.041504,3.374046,2.801527,0.015267,1.044304,4.385541,754,1378,624,754,1,43.011,13,normal
1780589792.1221435,13.634343400000944,13876,0.016357,-0.005127,1.044189,1.480916,2.80916,0.045802,1.04433,3.17594,756,1381,625,756,0,43.011,9,normal
1780589792.151888,13.664087800003472,13906,0.021973,0.006592,1.041504,0.053435,3.572519,-1.526718,1.041756,3.885436,757,1383,626,757,0,43.011,8,normal
1780589792.1823647,13.694564600009471,13937,0.017822,-0.057617,1.0354,2.10687,3.022901,-0.442748,1.037155,3.71118,758,1386,628,758,1,43.011,14,normal
1780589792.2132668,13.725466700008838,13967,0.028076,-0.018555,1.047363,3.175573,2.679389,0.251908,1.047904,4.162553,760,1389,629,760,0,43.011,9,normal
1780589792.2436066,13.755806500004837,13998,0.046143,0.016357,1.06543,-0.221374,2.847328,-1.122137,1.066554,3.068465,761,1391,630,761,0,43.011,9,normal
1780589792.2753813,13.787581199998385,14029,0.021973,-0.035889,1.041992,1.473282,2.908397,-1.015267,1.042842,3.414689,762,1394,632,762,1,43.011,14,normal
1780589792.3059533,13.818153100000927,14060,0.047852,-0.037354,1.058106,3.862595,2.717557,0.389313,1.059845,4.73881,764,1397,633,764,0,43.011,10,normal
1780589792.336802,13.849001800001133,14091,0.040527,0.018555,1.06665,-0.053435,2.78626,-0.664122,1.067581,2.864814,765,1399,634,765,0,43.321,9,normal
1780589792.367269,13.87946880000527,14122,0.009033,-0.031006,1.047852,0.778626,2.534351,-1.374046,1.048349,2.986168,766,1402,636,766,1,43.321,14,normal
1780589792.3993762,13.911575999998604,14153,0.040771,-0.062256,1.046143,3.748092,2.885496,0.236641,1.048786,4.736062,768,1405,637,768,0,43.321,9,normal
1780589792.429771,13.941970900006709,14184,0.031982,0.029297,1.063232,1.259542,2.847328,-0.274809,1.064117,3.125579,769,1407,638,769,0,43.321,10,normal
1780589792.4612553,13.973455200000899,14215,0.040771,-0.031982,1.045166,-0.053435,2.671756,-1.91603,1.04645,3.288207,770,1410,640,770,1,43.321,14,normal
1780589792.4929523,14.00515230000019,14246,0.041992,-0.046631,1.010498,3.503817,3.10687,0.564886,1.012444,4.716828,771,1416,645,771,1,43.321,0,normal
1780589792.5239422,14.036141999997199,14278,0.02417,0.020752,1.047119,1.320611,2.923664,0.007634,1.047604,3.208096,773,1419,646,773,0,43.321,9,normal
1780589792.5544777,14.06667749999906,14308,0.055664,-0.013672,1.062988,-0.671756,2.954198,-2.221374,1.064532,3.756734,774,1422,648,774,1,43.321,14,normal
1780589792.5844042,14.096604000005755,14339,0.055664,-0.046875,1.02124,3.061069,3.480916,0.160305,1.02383,4.63817,775,1424,649,775,1,43.321,14,normal
1780589792.6161382,14.128338200011058,14369,0.060791,-0.028076,1.057373,2.648855,2.427481,0.664122,1.059491,3.653786,777,1427,650,777,0,43.165,9,normal
1780589792.6460483,14.158248100007768,14401,0.025879,0.031494,1.059326,-0.473282,3.038168,-2.030534,1.06011,3.68477,778,1429,651,778,0,43.165,9,normal
1780589792.6773982,14.189598099997966,14431,0.053467,-0.061523,1.041992,1.152672,2.870229,-1.022901,1.045175,3.25779,779,1432,653,779,1,43.165,13,normal
1780589792.7076528,14.219852800000808,14462,0.044678,-0.036133,1.051758,3.877863,2.763359,0.801527,1.053326,4.828708,781,1435,654,781,0,43.165,9,normal
1780589792.740211,14.252410900007817,14493,0.042725,0.026123,1.063721,0.038168,2.870229,-0.78626,1.064899,2.976218,782,1437,655,782,0,43.165,9,normal
1780589792.769439,14.281638900007238,14524,0.03418,-0.040527,1.048096,0.687023,2.442748,-1.412214,1.049436,2.904026,783,1440,657,783,1,43.165,14,normal
1780589792.8017983,14.313998199999332,14555,0.04126,-0.041992,1.052002,3.908397,2.458015,0.709924,1.053648,4.671338,785,1443,658,785,0,43.165,10,normal
1780589792.8314674,14.343667300010566,14586,0.032959,0.021973,1.057861,0.557252,3.183206,-0.381679,1.058603,3.254076,786,1445,659,786,0,43.165,9,normal
1780589792.8626683,14.37486809999973,14617,0.028809,-0.013916,1.057373,0.496183,2.740458,-1.816794,1.057857,3.325214,787,1448,661,787,1,43.165,14,normal
1780589792.8937986,14.405998500005808,14648,0.048584,-0.063477,1.037354,3.564885,2.687023,0.099237,1.040429,4.465238,788,1450,662,788,0,39.427,12,normal
1780589792.9251528,14.437352699998883,14679,0.043457,0.016602,1.054688,1.358779,2.923664,0.480916,1.055713,3.259658,790,1453,663,790,0,39.427,10,normal
1780589792.9562328,14.468432599998778,14710,0.028076,-0.032471,1.061035,-0.244275,3.0,-1.770992,1.061903,3.492289,791,1456,665,791,1,39.427,14,normal
1780589792.986968,14.499168000009377,14741,0.046387,-0.03418,1.041016,3.091603,2.900763,0.152672,1.042609,4.24214,792,1458,666,792,1,39.427,13,normal
1780589793.0172153,14.529415199998766,14772,0.027588,-0.001953,1.050537,1.854962,2.70229,0.435114,1.050901,3.306445,794,1461,667,794,0,39.427,9,normal
1780589793.0477214,14.559921300009592,14802,0.019531,0.028809,1.056152,-0.038168,2.89313,-1.671756,1.056726,3.34162,795,1463,668,795,0,39.427,9,normal
1780589793.0784807,14.590680499997688,14832,0.025146,-0.050781,1.043701,1.51145,2.900763,-1.152672,1.045238,3.468078,796,1466,670,796,1,39.427,14,normal
1780589793.1090841,14.621284000008018,14863,0.038086,-0.036377,1.049805,3.541985,2.587786,0.610687,1.051125,4.428909,798,1469,671,798,0,39.427,10,normal
1780589793.1394882,14.651687999998103,14894,0.0354,0.025635,1.076904,-0.068702,2.900763,-0.618321,1.077791,2.966727,799,1471,672,799,0,39.427,9,normal
1780589793.1707292,14.682929100003093,14925,0.033447,-0.037842,1.039062,1.251908,2.725191,-1.687023,1.040289,3.440928,800,1474,674,800,1,43.321,13,normal
1780589793.2018492,14.714049200003501,14956,0.050781,-0.053223,1.041992,3.900763,2.503817,0.465649,1.044586,4.658528,802,1477,675,802,0,43.321,10,normal
1780589793.2331653,14.745365100010531,14987,0.036621,0.023682,1.054443,0.664122,2.793893,-0.045802,1.055345,2.872106,803,1479,676,803,0,43.321,9,normal
1780589793.263465,14.775664700006018,15018,0.032471,-0.008545,1.063477,0.396947,2.519084,-1.862595,1.064006,3.157944,804,1482,678,804,1,43.321,15,normal
1780589793.2956893,14.807889300005627,15049,0.040771,-0.052979,1.037842,3.503817,3.206107,0.236641,1.039993,4.755192,805,1484,679,805,1,43.321,12,normal
1780589793.325655,14.837854800003697,15080,0.039307,0.005615,1.04126,1.496183,3.167939,0.648855,1.042016,3.563062,807,1487,680,807,0,43.321,9,normal
1780589793.358106,14.87030570000934,15111,0.036377,-0.023682,1.05249,-0.366412,3.10687,-2.007634,1.053385,3.717189,808,1490,682,808,1,43.321,14,normal
1780589793.3882995,14.900499299998046,15142,0.03418,-0.036865,1.047363,3.19084,3.221374,-0.022901,1.048569,4.534229,809,1492,683,809,1,43.321,12,normal
1780589793.419122,14.93132190000324,15173,0.063232,-0.012451,1.047607,2.053435,2.572519,0.427481,1.049588,3.319215,811,1495,684,811,0,43.321,10,normal
1780589793.4497051,14.961904900002992,15204,0.034424,-0.005127,1.062744,0.045802,3.129771,-1.847328,1.063314,3.634582,812,1497,685,812,0,43.011,8,normal
1780589793.4802907,14.99249060000875,15235,0.054688,-0.057617,1.038818,2.175573,3.038168,-0.526718,1.041851,3.773727,813,1500,687,813,1,43.011,14,normal
1780589793.5113742,15.023574200007715,15266,0.05249,-0.018555,1.048096,2.916031,2.717557,0.648855,1.049573,4.038486,815,1503,688,815,0,43.011,10,normal
1780589793.543282,15.055481900009909,15297,0.02417,0.028076,1.052734,-0.198473,3.19084,-1.450382,1.053386,3.51062,816,1505,689,816,0,43.011,9,normal
1780589793.5744839,15.08668380000745,15328,0.048828,-0.060791,1.047363,1.396947,2.557252,-0.748092,1.050262,3.008428,817,1508,691,817,1,43.011,14,normal
1780589793.6053572,15.117557000005036,15359,0.01709,-0.031494,1.05835,3.229008,2.748092,0.221374,1.058956,4.245881,819,1511,692,819,0,43.011,9,normal
1780589793.6364908,15.148690800007898,15390,0.048096,0.006348,1.049561,-0.29771,2.816794,-1.061069,1.050681,3.024703,820,1513,693,820,0,43.011,10,normal
1780589793.6658535,15.178053299998282,15420,0.020752,-0.025391,1.048096,0.839695,2.427481,-1.343511,1.048609,2.898754,821,1516,695,821,1,43.011,15,normal
1780589793.6964862,15.208685999998124,15451,0.044189,-0.056396,1.055176,3.572519,2.687023,0.0,1.057605,4.470233,823,1519,696,823,0,43.011,10,normal
1780589793.7276273,15.239827099998365,15481,0.069092,0.012939,1.059814,1.251908,2.832061,0.351145,1.062143,3.116272,824,1521,697,824,0,43.321,10,normal
1780589793.758024,15.270223800005624,15512,0.023438,-0.029297,1.04248,0.236641,3.145038,-1.801527,1.043155,3.632184,825,1524,699,825,1,43.321,14,normal
1780589793.7888603,15.301060099998722,15543,0.072266,-0.051514,1.034912,3.267176,3.167939,0.267176,1.03871,4.55869,826,1526,700,826,1,43.321,13,normal
1780589793.8187892,15.330989200010663,15574,0.015625,-0.004883,1.049316,1.832061,2.847328,0.381679,1.049444,3.407258,828,1529,701,828,0,43.321,10,normal
1780589793.8515418,15.36374159999832,15605,0.026855,0.00415,1.05835,0.045802,2.625954,-1.748092,1.058698,3.154926,829,1531,702,829,0,43.321,8,normal
1780589793.8810704,15.393270300002769,15636,0.066895,-0.060791,1.03125,2.389313,3.114504,0.038168,1.035204,3.925609,830,1534,704,830,1,43.321,14,normal
1780589793.9113245,15.423524400001043,15666,0.046143,-0.030273,1.059326,3.358779,2.244275,0.236641,1.060763,4.0465,832,1537,705,832,0,43.321,9,normal
1780589793.9423313,15.454531299998052,15696,0.031494,0.030518,1.055176,-0.030534,2.694656,-1.076336,1.056087,2.901828,833,1539,706,833,0,43.321,10,normal
1780589793.9716332,15.48383310000645,15727,0.033936,-0.020264,1.053223,0.778626,2.59542,-1.137405,1.053964,2.938733,834,1542,708,834,1,43.321,14,normal
1780589794.0049398,15.517139700008556,15758,0.045898,-0.051758,1.045166,3.923664,2.900763,0.824427,1.047453,4.948661,843,1555,712,843,0,68.592,0,normal
1780589794.0350266,15.54722639999818,15789,0.047119,0.025635,1.058838,0.465649,2.862595,-0.603053,1.060196,2.962255,844,1557,713,844,0,68.592,9,normal
1780589794.0674627,15.579662600008305,15820,0.020508,-0.022217,1.05127,0.381679,2.450382,-1.839695,1.051704,3.087803,845,1560,715,845,1,68.592,15,normal
1780589794.097575,15.609774900003686,15851,0.054199,-0.064697,1.036621,3.709924,3.282443,0.564886,1.040051,4.985686,847,1563,716,847,0,68.592,10,normal
1780589794.1275964,15.639796200004639,15882,0.050049,0.006592,1.053467,1.480916,3.007634,0.328244,1.054676,3.368489,848,1565,717,848,0,68.592,10,normal
1780589794.1577935,15.669993300005444,15912,0.033203,0.016357,1.053223,-0.587786,3.091603,-1.961832,1.053873,3.708408,849,1567,718,849,0,68.592,7,normal
1780589794.189711,15.701911000011023,15943,0.040771,-0.049316,1.031982,2.763359,2.992366,-0.160305,1.033964,4.076286,851,1570,719,851,1,68.592,14,normal
1780589794.2205002,15.732700000007753,15974,0.047363,-0.015869,1.059082,2.78626,2.587786,0.687023,1.060259,3.864179,853,1573,720,853,0,68.592,10,normal
1780589794.2502224,15.762422400002833,16005,0.035156,0.03125,1.047607,-0.503817,3.458015,-1.725191,1.048663,3.897176,854,1575,721,854,0,68.592,10,normal
1780589794.2824657,15.794665499997791,16036,0.051025,-0.066162,1.039307,1.282443,2.259542,-0.793893,1.04266,2.716699,855,1578,723,855,1,43.165,14,normal
1780589794.3125083,15.824708300002385,16067,0.009033,-0.027832,1.053711,3.694656,2.541985,0.473282,1.054117,4.509564,857,1581,724,857,0,43.165,9,normal
1780589794.34463,15.856830000004265,16098,0.05127,0.015137,1.058106,-0.412214,2.946565,-1.19084,1.059455,3.204725,858,1583,725,858,0,43.165,10,normal
1780589794.374594,15.886793800003943,16129,0.0625,-0.067139,1.037354,0.755725,2.541985,-1.427481,1.041401,3.011728,859,1586,727,859,1,43.165,14,normal
1780589794.4070592,15.919259100002819,16160,0.026123,-0.033447,1.054199,3.832061,2.862595,0.908397,1.055053,4.868709,861,1589,728,861,0,43.165,10,normal
1780589794.4374194,15.949619400009396,16191,0.039551,0.01416,1.065186,0.450382,2.748092,-0.496183,1.066014,2.828613,862,1591,729,862,0,43.165,9,normal
1780589794.4671237,15.979323699997622,16222,0.019287,-0.009521,1.043701,0.068702,2.633588,-1.854962,1.043923,3.222016,863,1594,731,863,1,43.165,14,normal
1780589794.4988112,16.011011100010364,16253,0.068115,-0.064941,1.035889,3.351145,2.854962,0.534351,1.040155,4.434694,864,1596,732,864,1,43.165,12,normal
1780589794.5306516,16.042851400008658,16284,0.026611,0.019531,1.047363,1.725191,2.770992,0.396947,1.047883,3.288198,866,1599,733,866,0,43.165,9,normal
1780589794.5620098,16.074209600003087,16315,0.036621,-0.023193,1.050781,-0.580153,2.793893,-1.923664,1.051675,3.441352,867,1602,735,867,1,43.011,14,normal
1780589794.5921252,16.10432500000752,16346,0.070801,-0.057129,1.027832,3.022901,3.236641,0.167939,1.03185,4.431927,868,1604,736,868,1,43.011,13,normal
1780589794.62312,16.13532000000123,16377,0.037598,-0.007568,1.05127,2.083969,2.801527,0.862595,1.051969,3.596603,870,1607,737,870,0,43.011,10,normal
1780589794.654318,16.166517999998177,16408,0.051758,0.023682,1.069336,0.282443,3.549618,-1.816794,1.07085,3.997537,871,1609,738,871,0,43.011,8,normal
1780589794.6855726,16.1977726000041,16439,0.042725,-0.057861,1.03418,1.78626,2.725191,-0.816794,1.036678,3.359247,872,1612,740,872,1,43.011,14,normal
1780589794.7151785,16.227378399998997,16470,0.050781,-0.028809,1.051758,3.152672,2.496183,0.564886,1.053377,4.06071,875,1617,742,875,0,43.011,1,normal
1780589794.7457364,16.25793620001059,16500,0.052246,0.013916,1.053711,-0.282443,2.923664,-0.908397,1.055097,3.074536,876,1619,743,876,0,43.011,10,normal
1780589794.7770705,16.289270300010685,16531,0.048096,-0.059326,1.055176,0.740458,3.183206,-1.198473,1.057936,3.481008,877,1622,745,877,1,43.011,14,normal
1780589794.808032,16.32023179999669,16562,0.039551,-0.039551,1.066406,3.854962,2.358779,0.557252,1.067872,4.553581,879,1625,746,879,0,43.011,9,normal
1780589794.8389695,16.351169400004437,16593,0.023438,0.015625,1.046875,0.396947,2.992366,-0.580153,1.047254,3.073825,880,1627,747,880,0,46.763,9,normal
1780589794.8703263,16.382526200002758,16624,0.039307,-0.020264,1.052734,0.603053,2.694656,-1.450382,1.053663,3.119047,881,1630,749,881,1,46.763,14,normal
1780589794.9029498,16.415149699998437,16656,0.056885,-0.064453,1.043457,3.335878,2.748092,0.198473,1.046992,4.326602,890,1640,750,890,0,46.763,0,normal
1780589794.9330835,16.44528349999746,16687,0.03418,0.023193,1.064453,0.21374,2.984733,-0.465649,1.065254,3.02839,891,1642,751,891,0,46.763,10,normal
1780589794.9639995,16.476199500000803,16718,0.038818,-0.020264,1.037842,0.0,2.977099,-1.709924,1.038765,3.433214,892,1645,753,892,1,46.763,14,normal
1780589795.0000374,16.512237400005688,16748,0.041748,-0.050293,1.029297,2.977099,3.610687,0.48855,1.03137,4.705195,893,1647,754,893,1,46.763,13,normal
1780589795.0302474,16.542447400002857,16784,0.056885,0.024658,1.061768,0.114504,2.954198,-1.412214,1.063576,3.276392,895,1650,755,895,0,46.763,10,normal
1780589795.0612192,16.573419100008323,16815,0.028809,-0.057617,1.040039,1.152672,2.78626,-0.763359,1.042032,3.110404,896,1653,757,896,1,46.763,14,normal
1780589795.0925016,16.60470140000689,16846,0.055176,-0.033447,1.056396,3.549618,2.503817,0.259542,1.058365,4.35158,898,1656,758,898,0,71.146,9,normal
1780589795.1237297,16.635929500000202,16877,0.002686,0.012939,1.047607,0.083969,3.038168,-0.442748,1.047691,3.071407,899,1658,759,899,0,71.146,10,normal
1780589795.15486,16.667059800005518,16908,0.065186,-0.016602,1.058838,0.709924,2.610687,-1.10687,1.060972,2.923156,900,1661,761,900,1,71.146,14,normal
1780589795.186191,16.698390999998082,16940,0.063721,-0.051758,1.053467,3.519084,2.656489,0.335878,1.05666,4.421956,909,1671,762,909,0,71.146,0,normal
1780589795.2174275,16.72962740001094,16971,0.033203,0.016357,1.056885,0.450382,3.030534,-0.229008,1.057533,3.072365,910,1673,763,910,0,71.146,9,normal
1780589795.249059,16.761258900005487,17002,0.043945,-0.011963,1.050537,1.022901,2.625954,-1.267176,1.051524,3.089934,911,1676,765,911,1,71.146,14,normal
1780589795.2784584,16.79065830000036,17033,0.056885,-0.054688,1.047119,3.267176,2.687023,0.358779,1.050088,4.24538,913,1679,766,913,0,71.146,10,normal
1780589795.3106961,16.822895999997854,17064,0.040527,0.018066,1.058838,0.778626,3.114504,-0.267176,1.059767,3.221455,914,1681,767,914,0,71.146,9,normal
1780589795.3408504,16.85305020000669,17095,0.039551,-0.031982,1.041748,0.351145,2.687023,-1.832061,1.042989,3.271062,915,1684,769,915,1,71.146,15,normal
1780589795.3718321,16.884032000001753,17126,0.048828,-0.042969,1.038818,3.526718,3.229008,0.419847,1.040853,4.800052,916,1686,770,916,1,64.286,12,normal
1780589795.4016118,16.913811699996586,17157,0.029541,0.016113,1.043701,1.435114,2.610687,0.0,1.044243,2.979134,918,1689,771,918,0,64.286,9,normal
1780589795.4319272,16.94412719999673,17187,0.024414,0.005615,1.070312,-0.274809,3.21374,-1.770992,1.070606,3.679682,919,1691,772,919,0,64.286,9,normal
1780589795.4647467,16.976946599999792,17218,0.063721,-0.07373,1.035644,2.061069,3.167939,0.045802,1.040219,3.779674,920,1694,774,920,1,64.286,15,normal
1780589795.4955251,17.00772510000388,17249,0.019043,-0.016357,1.05127,3.183206,3.053435,0.358779,1.051569,4.425493,922,1697,775,922,0,64.286,9,normal
1780589795.52699,17.039189700008137,17280,0.052246,0.025391,1.062988,0.007634,2.725191,-1.396947,1.064574,3.062382,923,1699,776,923,0,64.286,9,normal
1780589795.5576372,17.069837100003497,17311,0.034424,-0.06665,1.045654,1.068702,2.793893,-0.877863,1.048342,3.117468,924,1702,778,924,1,64.286,14,normal
1780589795.5882518,17.100451600010274,17342,0.037598,-0.029053,1.050293,3.587786,2.51145,0.160305,1.051367,4.382384,926,1705,779,926,0,64.286,9,normal
1780589795.6184933,17.130693200000678,17373,0.02832,0.021729,1.066894,0.038168,3.091603,-0.839695,1.067492,3.203834,927,1707,780,927,0,64.286,10,normal
1780589795.6500325,17.16223240000545,17404,0.043213,-0.024902,1.061523,0.931298,2.656489,-1.358779,1.062694,3.125784,928,1710,782,928,1,43.165,13,normal
1780589795.6825626,17.19476250000298,17436,0.029053,-0.063721,1.043701,3.587786,2.740458,0.587786,1.046048,4.552781,937,1720,783,937,0,43.165,1,normal
1780589795.7275462,17.239746100007324,17467,0.020264,0.01709,1.04541,0.114504,3.267176,-0.610687,1.045746,3.325731,938,1722,784,938,0,43.165,9,normal
1780589795.7441363,17.256336200007354,17498,0.019043,-0.036865,1.053955,0.381679,2.618321,-1.564886,1.054771,3.074109,939,1725,786,939,1,43.165,14,normal
1780589795.7751665,17.28736650000792,17529,0.058105,-0.068115,1.052246,3.687023,2.824427,0.541985,1.056048,4.676032,941,1728,787,941,0,43.165,10,normal
1780589795.806565,17.31876490000286,17560,0.025635,0.027344,1.05835,1.129771,3.022901,-0.061069,1.059013,3.227699,942,1730,788,942,0,43.165,10,normal
1780589795.8373687,17.3495685000089,17591,0.041992,-0.021484,1.051514,0.022901,2.732824,-1.877863,1.052571,3.315904,943,1733,790,943,1,43.165,14,normal
1780589795.8674889,17.37968880000699,17622,0.034424,-0.044189,1.033447,3.366412,3.129771,0.412214,1.034964,4.614988,944,1735,791,944,1,43.165,12,normal
1780589795.8991134,17.41131320000568,17653,0.045898,0.006592,1.063721,2.21374,2.572519,0.129771,1.064731,3.396372,946,1738,792,946,0,43.165,10,normal
1780589795.9300985,17.442298499998287,17684,0.052002,-0.008057,1.049072,-0.358779,3.083969,-2.145038,1.050391,3.773696,947,1740,793,947,0,67.857,8,normal
1780589795.9617362,17.47393620001094,17715,0.044434,-0.050537,1.031006,2.496183,2.862595,0.10687,1.0332,3.799579,948,1743,795,948,1,67.857,14,normal
1780589795.9927125,17.504912400007015,17746,0.058838,-0.028076,1.053711,2.801527,2.381679,0.335878,1.055726,3.692392,950,1746,796,950,0,67.857,10,normal
1780589796.023954,17.536153799999738,17777,0.030029,0.0271,1.059814,-0.679389,3.045802,-1.603053,1.060586,3.508313,951,1748,797,951,0,67.857,9,normal
1780589796.0547762,17.56697610000265,17808,0.057373,-0.073242,1.028809,1.534351,2.977099,-0.908397,1.033007,3.470236,952,1751,799,952,1,67.857,14,normal
1780589796.0840533,17.59625319999759,17839,0.03125,-0.035156,1.053467,3.305344,2.732824,0.778626,1.054516,4.358886,954,1754,800,954,0,67.857,9,normal
1780589796.1149733,17.62717330000305,17869,0.003418,0.02417,1.062988,0.473282,3.328244,-0.358779,1.063269,3.380818,955,1756,801,955,0,67.857,9,normal
1780589796.146029,17.65822890000709,17900,0.039551,-0.008789,1.053223,0.610687,2.656489,-1.992366,1.054002,3.376299,956,1759,803,956,1,67.857,14,normal
1780589796.1774406,17.689640500000678,17931,0.042725,-0.067139,1.036377,3.419847,2.961832,0.679389,1.039428,4.574864,958,1762,804,958,0,67.857,9,normal
1780589796.2082586,17.72045860000071,17962,0.067139,0.014404,1.050781,1.534351,2.625954,-0.030534,1.053022,3.041513,959,1764,805,959,0,43.165,10,normal
1780589796.2386758,17.750875600002473,17993,0.009033,-0.025391,1.047363,0.290076,2.870229,-1.648855,1.04771,3.322812,960,1767,807,960,1,43.165,15,normal
1780589796.2691581,17.781358000007458,18023,0.068604,-0.041992,1.044434,2.854962,2.984733,0.045802,1.047526,4.130561,961,1769,808,961,1,43.165,14,normal
1780589796.2999792,17.812179200001992,18054,0.028809,-0.003662,1.043945,2.648855,2.603053,0.519084,1.044349,3.749902,963,1772,809,963,0,43.165,10,normal
1780589796.3322139,17.844413800004986,18085,0.064697,0.028076,1.062256,-0.244275,3.160305,-1.832061,1.064594,3.6611,964,1774,810,964,0,43.165,9,normal
1780589796.3622322,17.874431999996887,18116,0.027344,-0.061035,1.037354,1.89313,3.0,-0.900763,1.039507,3.659961,965,1777,812,965,1,43.165,15,normal
1780589796.3924866,17.904686399997445,18146,0.038574,-0.036865,1.054932,3.19084,2.587786,0.427481,1.05628,4.130476,967,1780,813,967,0,43.165,10,normal
1780589796.4216971,17.933897100010654,18177,0.026123,0.022705,1.075684,0.351145,2.793893,-1.0,1.07624,2.988167,968,1782,814,968,0,43.165,10,normal
1780589796.4530144,17.96521429999848,18207,0.040283,-0.024902,1.050293,0.587786,2.473282,-1.259542,1.05136,2.837087,969,1785,816,969,1,43.165,14,normal
1780589796.4856443,17.997844199999236,18239,0.038086,-0.05957,1.041016,3.648855,2.80916,0.290076,1.043414,4.614073,979,1796,817,979,0,72.202,0,normal
1780589796.5167863,18.028986100005568,18270,0.054688,0.017334,1.063965,0.740458,2.984733,-0.267176,1.06551,3.086793,980,1798,818,980,0,72.202,9,normal
1780589796.547252,18.059451900000568,18301,0.035645,-0.016113,1.04834,0.519084,2.832061,-1.78626,1.049069,3.388324,982,1803,821,982,1,72.202,14,normal
1780589796.5780597,18.09025950000796,18332,0.060059,-0.050537,1.038574,3.366412,2.732824,0.427481,1.041536,4.35704,983,1805,822,983,1,72.202,12,normal
1780589796.6104963,18.12269610000658,18363,0.026367,-0.01123,1.058106,1.496183,3.122137,0.358779,1.058494,3.480665,985,1808,823,985,0,72.202,9,normal
1780589796.6399174,18.152117300007376,18394,-0.008789,-0.019531,1.048096,-0.29771,2.625954,-1.969466,1.048314,3.295916,986,1811,825,986,1,72.202,14,normal
1780589796.672314,18.184513900007005,18425,0.083252,-0.046875,1.031982,3.114504,3.236641,0.396947,1.036396,4.509274,987,1813,826,987,1,72.202,14,normal
1780589796.711926,18.224125900000217,18456,0.014893,-0.004395,1.041748,2.343511,2.923664,0.610687,1.041864,3.796419,989,1816,827,989,0,72.202,9,normal
1780589796.7327414,18.244941299999482,18486,0.019043,0.025879,1.060059,-0.053435,3.099237,-1.175572,1.060545,3.315131,990,1818,828,990,0,72.202,9,normal
1780589796.7636318,18.27583160001086,18517,0.063721,-0.05957,1.046143,1.824428,2.534351,-0.954198,1.049773,3.265266,991,1821,830,991,1,43.165,14,normal
1780589796.7946358,18.306835700001102,18548,0.068848,-0.033447,1.047119,3.312977,2.625954,0.343511,1.049913,4.241398,994,1826,832,994,0,43.165,0,normal
1780589796.8256924,18.337892299998202,18579,0.060791,0.012695,1.064941,-0.022901,2.709924,-0.923664,1.066751,2.863104,995,1828,833,995,0,43.165,9,normal
1780589796.8567774,18.368977300007828,18610,0.046875,-0.049561,1.046631,0.954198,2.427481,-1.396947,1.048852,2.95882,996,1831,835,996,1,43.165,14,normal
1780589796.8862197,18.39841950000846,18641,0.009521,-0.036133,1.047119,3.541985,2.70229,0.183206,1.047786,4.458878,998,1834,836,998,0,43.165,9,normal
1780589796.9179194,18.430119199998444,18671,0.053467,0.017578,1.056152,1.022901,2.916031,-0.160305,1.057651,3.094391,999,1836,837,999,0,43.165,9,normal
1780589796.9482064,18.460406199999852,18702,0.033936,-0.031494,1.046143,0.51145,2.78626,-1.91603,1.047167,3.419941,1000,1839,839,1000,1,43.165,14,normal
1780589796.9804387,18.492638600000646,18733,0.044434,-0.046143,1.046875,3.717557,2.916031,0.343511,1.048833,4.737242,1001,1841,840,1001,1,43.165,12,normal
1780589797.0102804,18.522480200001155,18764,0.028564,0.006836,1.059814,1.526718,2.923664,0.061069,1.060221,3.29885,1003,1844,841,1003,0,43.165,9,normal
1780589797.0402474,18.552447200010647,18794,0.03833,0.00708,1.062988,-0.229008,3.083969,-1.549618,1.063703,3.458992,1004,1846,842,1004,0,46.931,7,normal
1780589797.0714104,18.583610200003022,18825,0.049561,-0.064697,1.028809,2.206107,2.885496,-0.236641,1.032032,3.639917,1005,1849,844,1005,1,46.931,14,normal
1780589797.1029656,18.61516539999866,18856,0.048096,-0.022705,1.060303,2.938931,2.587786,0.335878,1.061636,3.930238,1007,1852,845,1007,0,46.931,10,normal
1780589797.1337888,18.645988800009945,18887,0.032227,0.020264,1.062744,-0.229008,2.740458,-1.183206,1.063426,2.993749,1008,1854,846,1008,0,46.931,9,normal
1780589797.1650386,18.67723850000766,18918,0.030029,-0.071045,1.028809,1.671756,3.007634,-0.801527,1.031696,3.533139,1009,1857,848,1009,1,46.931,14,normal
1780589797.195225,18.70742479999899,18949,0.031982,-0.025635,1.047852,3.29771,2.832061,0.343511,1.048653,4.360442,1011,1860,849,1011,0,46.931,9,normal
1780589797.2264779,18.73867780000728,18980,0.041748,0.024414,1.057617,-0.053435,2.961832,-0.977099,1.058722,3.1193,1012,1862,850,1012,0,46.931,10,normal
1780589797.2579796,18.770179400002235,19011,0.015625,-0.041504,1.044434,0.961832,2.412214,-1.145038,1.045375,2.838135,1013,1865,852,1013,1,46.931,14,normal
1780589797.2895832,18.801783100003377,19043,0.059082,-0.05249,1.044434,4.076336,2.564885,0.671756,1.047419,4.862757,1021,1874,853,1021,0,46.931,0,normal
1780589797.320629,18.83282870000403,19074,0.061035,0.022461,1.059082,0.152672,3.137405,-0.839695,1.061077,3.251416,1022,1876,854,1022,0,64.286,9,normal
1780589797.3513823,18.86358210000617,19105,0.022461,-0.018799,1.05835,0.679389,2.717557,-1.351145,1.058755,3.110029,1023,1879,856,1023,1,64.286,14,normal
1780589797.3838155,18.896015500009526,19137,0.054443,-0.068359,1.053467,4.091603,2.641221,0.755725,1.057085,4.928325,1032,1889,857,1032,0,64.286,0,normal
1780589797.4147625,18.926962400000775,19168,0.05957,0.020264,1.061035,0.358779,2.931298,-0.557252,1.062899,3.005288,1033,1891,858,1033,0,64.286,9,normal
1780589797.4462209,18.958420800001477,19199,0.037842,-0.020996,1.059082,0.19084,2.748092,-1.740458,1.059966,3.258469,1034,1894,860,1034,1,64.286,14,normal
1780589797.477012,18.989211799998884,19230,0.025635,-0.073242,1.043945,3.251908,2.870229,0.625954,1.046825,4.382344,1036,1897,861,1036,0,64.286,9,normal
1780589797.5074677,19.01966760000505,19261,0.071777,0.013428,1.061279,1.458015,3.091603,0.51145,1.063788,3.456212,1037,1899,862,1037,0,64.286,10,normal
1780589797.5393605,19.051560400010203,19292,0.030273,-0.021729,1.043945,0.068702,3.19084,-1.992366,1.04461,3.762406,1038,1902,864,1038,1,64.286,15,normal
1780589797.56888,19.081079900002806,19323,0.064697,-0.047119,1.027832,3.328244,2.900763,0.206107,1.030944,4.419742,1039,1904,865,1039,1,64.286,12,normal
1780589797.5995703,19.111770100003923,19354,0.011719,-0.012939,1.057373,2.160305,2.740458,0.854962,1.057517,3.592769,1041,1907,866,1041,0,67.857,10,normal
1780589797.6303544,19.14255430000776,19385,0.05542,0.008057,1.057861,-0.076336,3.274809,-2.221374,1.059343,3.957866,1042,1909,867,1042,0,67.857,8,normal
1780589797.6619666,19.174166500000865,19416,0.040527,-0.055908,1.03418,2.427481,3.282443,-0.099237,1.036482,4.083741,1043,1912,869,1043,1,67.857,14,normal
1780589797.6929798,19.20517970000219,19447,0.067627,-0.02124,1.061768,2.938931,2.335878,0.671756,1.064131,3.813778,1045,1915,870,1045,0,67.857,9,normal
1780589797.7238414,19.23604129999876,19478,0.02124,0.019531,1.054932,-0.045802,3.335878,-1.473282,1.055326,3.647018,1046,1917,871,1046,0,67.857,10,normal
1780589797.7566464,19.26884620000783,19509,0.05835,-0.068604,1.038574,1.274809,2.763359,-0.931298,1.042472,3.182547,1047,1920,873,1047,1,67.857,14,normal
1780589797.7861714,19.298371199998655,19540,0.064697,-0.038086,1.0625,3.450382,2.763359,0.862595,1.065149,4.503927,1049,1923,874,1049,0,67.857,10,normal
1780589797.8205311,19.33273090000148,19571,0.015137,0.036377,1.061523,0.053435,2.648855,-0.847328,1.062254,2.781592,1050,1925,875,1050,0,67.857,9,normal
1780589797.848229,19.360428700005286,19602,0.056152,-0.035889,1.049561,1.145038,2.755725,-1.450382,1.051674,3.317942,1051,1928,877,1051,1,67.857,14,normal
1780589797.8783412,19.390541000000667,19633,0.023193,-0.057373,1.038086,3.625954,2.687023,1.0,1.039929,4.622514,1053,1931,878,1053,0,43.011,10,normal
1780589797.909712,19.42191190000449,19663,0.030518,0.014648,1.054199,1.137405,2.969466,0.480916,1.054743,3.216006,1054,1933,879,1054,0,43.011,10,normal
1780589797.9409492,19.453149000008125,19694,0.03833,-0.031982,1.044189,0.129771,2.687023,-1.770992,1.045382,3.220768,1055,1936,881,1055,1,43.011,15,normal
1780589797.9717984,19.483998299998348,19725,0.059326,-0.044189,1.027832,3.152672,3.015267,0.335878,1.030491,4.375384,1056,1938,882,1056,1,43.011,13,normal
1780589798.0015779,19.51377770000545,19756,0.003906,-0.010742,1.0354,1.923664,2.641221,0.48855,1.035463,3.303818,1058,1941,883,1058,0,43.011,10,normal
1780589798.03311,19.545309900000575,19787,0.047852,-0.006836,1.06665,-0.145038,3.19084,-1.778626,1.067745,3.655955,1059,1943,884,1059,0,43.011,8,normal
1780589798.0638225,19.576022399996873,19817,0.058105,-0.061279,1.041748,2.068702,2.725191,-0.854962,1.045165,3.526635,1060,1946,886,1060,1,43.011,15,normal
1780589798.0941882,19.606388200001675,19848,0.030029,-0.021973,1.050293,3.328244,2.633588,0.328244,1.050952,4.256846,1062,1949,887,1062,0,43.011,10,normal
1780589798.1248984,19.63709820000804,19879,0.051025,0.010254,1.046631,-0.267176,2.938931,-1.114504,1.047924,3.154492,1063,1951,888,1063,0,43.011,10,normal
1780589798.1562705,19.668470300006447,19910,0.032715,-0.041992,1.026123,0.969466,2.877863,-1.0,1.027503,3.19718,1065,1956,891,1065,1,43.321,13,normal
1780589798.1871011,19.69930100000056,19941,0.041504,-0.036377,1.05542,3.580153,2.473282,0.496183,1.056862,4.379591,1074,1966,892,1074,0,43.321,0,normal
1780589798.2188506,19.73105060000671,19972,0.054199,0.01416,1.06958,0.206107,2.839695,-0.625954,1.071046,2.915161,1075,1968,893,1075,0,43.321,9,normal
1780589798.2505138,19.762713700009044,20003,0.018799,-0.016602,1.039307,0.687023,2.564885,-1.29771,1.039609,2.955451,1076,1971,895,1076,1,43.321,14,normal
1780589798.279483,19.791682900002343,20033,0.037598,-0.043701,1.036133,3.48855,3.053435,0.503817,1.037735,4.663398,1077,1973,896,1077,1,43.321,11,normal
1780589798.3103433,19.822543200003565,20064,0.042236,0.015625,1.056152,1.282443,2.687023,0.465649,1.057112,3.013566,1079,1976,897,1079,0,43.321,9,normal
1780589798.3413682,19.85356810000667,20095,0.03125,-0.014404,1.048096,-0.549618,2.923664,-1.664122,1.04866,3.408694,1080,1979,899,1080,1,43.321,14,normal
1780589798.3713949,19.883594800005085,20125,0.061279,-0.06958,1.026123,2.366412,2.885496,-0.427481,1.030303,3.75616,1081,1981,900,1081,1,43.321,14,normal
1780589798.4023964,19.914596400005394,20156,0.048096,-0.015869,1.050781,2.427481,2.89313,0.564886,1.052001,3.818633,1084,1986,902,1084,0,43.321,0,normal
1780589798.433471,19.945670900007826,20187,0.036865,0.02832,1.06665,0.091603,2.816794,-1.435114,1.067663,3.162637,1085,1988,903,1085,0,72.202,9,normal
1780589798.4648364,19.97703619999811,20218,0.024658,-0.074219,1.044189,1.19084,2.641221,-0.78626,1.047114,3.002058,1086,1991,905,1086,1,72.202,14,normal
1780589798.4951966,20.00739650000469,20249,0.054199,-0.028809,1.056641,3.267176,2.671756,0.358779,1.058422,4.235734,1088,1994,906,1088,0,72.202,10,normal
1780589798.5272343,20.039434100006474,20280,0.005371,0.018066,1.056152,-0.145038,3.259542,-0.923664,1.056321,3.390989,1089,1996,907,1089,0,72.202,9,normal
1780589798.5573351,20.0695349000016,20311,0.043457,-0.027344,1.051514,1.267176,2.48855,-1.450382,1.052766,3.14678,1090,1999,909,1090,1,72.202,14,normal
1780589798.5882683,20.100468200005707,20342,0.054443,-0.030273,1.05249,3.465649,2.320611,0.496183,1.054332,4.200256,1092,2002,910,1092,0,72.202,10,normal
1780589798.6186392,20.130839000004926,20373,0.000732,0.024902,1.053955,0.053435,3.320611,-0.900763,1.054249,3.44103,1093,2004,911,1093,0,72.202,9,normal
1780589798.6508062,20.163006000002497,20404,0.053955,-0.021973,1.058106,0.694656,2.755725,-1.389313,1.059708,3.163346,1094,2007,913,1094,1,72.202,13,normal
1780589798.6824841,20.19468400000187,20436,0.023193,-0.052002,1.050781,3.549618,2.839695,0.458015,1.052323,4.568745,1103,2018,915,1103,0,72.202,1,normal
1780589798.7133124,20.225512300006812,20467,0.026855,0.0271,1.053467,0.335878,3.221374,-0.541985,1.054157,3.283872,1104,2020,916,1104,0,67.857,9,normal
1780589798.7437427,20.255942700008745,20498,0.031738,-0.04248,1.05249,0.664122,2.70229,-1.748092,1.053825,3.286222,1105,2023,918,1105,1,67.857,14,normal
1780589798.7756066,20.287806400010595,20529,0.036377,-0.049561,1.057617,3.778626,3.068702,0.366412,1.059402,4.881516,1106,2025,919,1106,1,67.857,13,normal
1780589798.8067207,20.31892050000897,20560,0.039062,0.018799,1.042725,1.122137,3.122137,0.267176,1.043625,3.328411,1108,2028,920,1108,0,67.857,10,normal
1780589798.8380134,20.350213199999416,20591,0.043457,-0.015137,1.054688,-0.122137,3.160305,-1.961832,1.055691,3.721724,1109,2031,922,1109,1,67.857,14,normal
1780589798.8689325,20.381132399998023,20622,0.052246,-0.043457,1.037109,3.503817,3.152672,0.083969,1.039333,4.714141,1110,2033,923,1110,1,67.857,13,normal
1780589798.8985639,20.410763799998676,20653,0.053467,-0.001953,1.049072,2.396947,2.625954,0.030534,1.050436,3.555548,1112,2036,924,1112,0,67.857,9,normal
1780589798.9309409,20.44314070000837,20684,0.032959,0.013916,1.051514,-0.351145,3.099237,-1.931298,1.052122,3.66858,1113,2038,925,1113,0,67.857,9,normal
1780589798.9628162,20.475016099997447,20715,0.069336,-0.065918,1.026367,2.045802,3.145038,-0.290076,1.030816,3.763072,1114,2041,927,1114,1,67.857,14,normal
1780589798.9929628,20.505162800007383,20746,0.051758,-0.008301,1.062012,3.145038,2.694656,0.526718,1.063305,4.17491,1116,2044,928,1116,0,43.011,9,normal
1780589799.0233717,20.535571500004153,20777,0.041992,0.022949,1.074219,-0.389313,2.832061,-2.022901,1.075284,3.502037,1117,2046,929,1117,0,43.011,10,normal
1780589799.055116,20.56731579999905,20808,0.027832,-0.071533,1.033936,1.160305,2.603053,-1.053435,1.036781,3.038408,1118,2049,931,1118,1,43.011,14,normal
1780589799.0857048,20.597904800000833,20839,0.057129,-0.039795,1.043213,3.603053,2.412214,0.381679,1.045534,4.352752,1120,2052,932,1120,0,43.011,9,normal
1780589799.1166813,20.628881299999193,20870,0.020996,0.029541,1.064453,0.167939,2.80916,-0.648855,1.06507,2.888009,1121,2054,933,1121,0,43.011,10,normal
1780589799.1480165,20.660216400006902,20901,0.026611,-0.03833,1.046875,0.351145,2.381679,-1.442748,1.047914,2.806639,1122,2057,935,1122,1,43.011,15,normal
1780589799.1788826,20.691082500008633,20932,0.061768,-0.063477,1.033936,3.648855,2.687023,0.618321,1.037722,4.573462,1124,2060,936,1124,0,43.011,10,normal
1780589799.2092202,20.721420100002433,20963,0.029541,0.027832,1.048584,1.198473,2.80916,0.10687,1.049369,3.056001,1125,2062,937,1125,0,43.011,9,normal
1780589799.2410944,20.753294200010714,20994,0.033203,-0.012939,1.05835,0.175573,2.870229,-1.832061,1.058949,3.409617,1126,2065,939,1126,1,43.011,15,normal
1780589799.2715557,20.783755600001314,21025,0.034424,-0.039551,1.0354,3.129771,2.984733,0.496183,1.036727,4.353194,1127,2067,940,1127,1,39.427,13,normal
1780589799.3027246,20.81492450000951,21056,0.053467,-0.010498,1.046875,2.259542,2.916031,0.206107,1.048292,3.694759,1129,2070,941,1129,0,39.427,9,normal
1780589799.33279,20.844989700010046,21087,0.034912,-0.00293,1.053467,-0.419847,3.19084,-1.89313,1.054049,3.733854,1130,2072,942,1130,0,39.427,8,normal
1780589799.3641455,20.87634529999923,21118,0.055176,-0.049805,1.033936,2.312977,2.923664,-0.274809,1.036604,3.738074,1131,2075,944,1131,1,39.427,15,normal
1780589799.3960598,20.908259600008023,21149,0.048828,-0.010986,1.044434,2.854962,2.717557,0.679389,1.045632,3.999687,1133,2078,945,1133,0,39.427,10,normal
1780589799.4265518,20.938751599998795,21180,0.043945,0.030029,1.063721,-0.091603,3.068702,-1.496183,1.065051,3.415244,1134,2080,946,1134,0,39.427,10,normal
1780589799.4583035,20.970503400007146,21211,0.035156,-0.064941,1.037354,1.282443,2.877863,-1.137405,1.039979,3.349693,1135,2083,948,1135,1,39.427,13,normal
1780589799.4885044,21.000704300007783,21242,0.039062,-0.04248,1.052978,3.366412,2.480916,0.549618,1.054559,4.21779,1137,2086,949,1137,0,39.427,9,normal
1780589799.518925,21.031124900007853,21272,0.011963,0.023682,1.057861,0.267176,2.755725,-0.870229,1.058194,2.902189,1138,2088,950,1138,0,39.427,9,normal
1780589799.549564,21.061763700010488,21303,0.045898,-0.015137,1.038086,0.824427,2.740458,-1.473282,1.03921,3.21875,1139,2091,952,1139,1,43.165,14,normal
1780589799.5815163,21.093716100003803,21335,0.044922,-0.064453,1.048828,3.572519,2.862595,0.305344,1.051766,4.588091,1148,2101,953,1148,0,43.165,0,normal
1780589799.6114945,21.123694399997476,21366,0.005127,0.019531,1.06543,0.038168,3.160305,-0.290076,1.065621,3.17382,1149,2103,954,1149,0,43.165,9,normal
1780589799.6433573,21.155557200007024,21397,0.062012,-0.031738,1.044678,0.442748,2.648855,-1.442748,1.046998,3.048603,1150,2106,956,1150,1,43.165,14,normal
1780589799.6758363,21.188036200008355,21428,0.028809,-0.051514,1.0354,3.671756,2.961832,0.358779,1.037081,4.731064,1152,2109,957,1152,0,43.165,10,normal
1780589799.7045703,21.21677009999985,21459,0.060303,0.004395,1.054688,1.29771,2.694656,0.290076,1.056419,3.004891,1153,2111,958,1153,0,43.165,9,normal
1780589799.734726,21.246925900006318,21489,0.01416,-0.003174,1.055664,-0.19084,2.748092,-2.007634,1.055764,3.408668,1154,2113,959,1154,0,43.165,7,normal
1780589799.7669413,21.279141300008632,21520,0.074707,-0.058105,1.029297,2.725191,3.167939,-0.167939,1.033639,4.182189,1155,2116,961,1155,1,43.165,14,normal
1780589799.7969475,21.3091473000095,21551,0.037354,-0.012939,1.044922,2.648855,2.603053,0.503817,1.045669,3.74782,1157,2119,962,1157,0,43.165,10,normal
1780589799.8282409,21.340440800006036,21582,0.060059,0.016357,1.059814,0.160305,3.038168,-1.648855,1.061641,3.460475,1158,2121,963,1158,0,68.1,9,normal
1780589799.8589432,21.371143199998187,21613,0.01709,-0.059082,1.047607,1.603053,2.931298,-0.587786,1.049411,3.392312,1159,2124,965,1159,1,68.1,14,normal
1780589799.8900547,21.40225470000587,21644,0.026367,-0.030273,1.046143,3.19084,2.419847,0.59542,1.046913,4.04866,1161,2127,966,1161,0,68.1,9,normal
1780589799.9211655,21.4333653000067,21675,0.047363,0.024658,1.057617,0.0,3.045802,-1.374046,1.058964,3.341394,1162,2129,967,1162,0,68.1,10,normal
1780589799.9514337,21.463633599996683,21705,0.052734,-0.028809,1.054443,0.977099,2.519084,-1.259542,1.056154,2.981099,1163,2132,969,1163,1,68.1,14,normal
1780589799.9838703,21.496070100009092,21737,0.024902,-0.061523,1.046143,3.748092,2.641221,0.091603,1.048246,4.586134,1172,2142,970,1172,0,68.1,0,normal
1780589800.0138097,21.52600959999836,21768,0.027588,0.003174,1.056152,0.366412,2.89313,-0.320611,1.056517,2.933812,1173,2144,971,1173,0,68.1,9,normal
1780589800.044731,21.556930699996883,21799,0.050293,-0.019043,1.052002,0.610687,2.450382,-1.312977,1.053376,2.846264,1174,2147,973,1174,1,68.1,14,normal
1780589800.0777903,21.589990200009197,21830,0.028564,-0.048096,1.043213,3.526718,2.954198,0.381679,1.044712,4.616352,1176,2150,974,1176,0,68.1,9,normal
1780589800.1079535,21.620153399999253,21861,0.045654,0.018555,1.05542,0.992366,2.618321,0.022901,1.05657,2.800164,1177,2152,975,1177,0,68.1,10,normal
1780589800.1391642,21.651364000004833,21892,0.033936,-0.030029,1.045654,0.343511,2.78626,-1.618321,1.046636,3.240402,1178,2155,977,1178,1,68.1,15,normal
1780589800.169274,21.68147399999725,21923,0.059814,-0.033447,1.046875,3.473282,3.236641,0.435114,1.049116,4.76748,1179,2157,978,1179,1,68.1,12,normal
1780589800.2003658,21.712565599998925,21954,0.029541,0.005615,1.05835,1.725191,2.679389,-0.061069,1.058777,3.187341,1181,2160,979,1181,0,68.1,10,normal
1780589800.2305636,21.74276350000582,21985,0.05957,-0.001953,1.046631,0.030534,3.083969,-1.709924,1.048326,3.52642,1182,2162,980,1182,0,68.1,8,normal
1780589800.2611542,21.773354000004474,22015,0.041504,-0.066162,1.028076,2.29771,3.099237,-0.389313,1.031038,3.877667,1183,2165,982,1183,1,68.1,15,normal
1780589800.2916808,21.803880799998296,22045,0.050049,-0.030029,1.059082,3.053435,2.931298,0.862595,1.060689,4.319728,1185,2168,983,1185,0,68.1,10,normal
1780589800.3224773,21.834677200007718,22076,0.023926,0.020752,1.063721,-0.19084,2.648855,-1.320611,1.064192,2.965951,1186,2170,984,1186,0,68.1,10,normal
1780589800.3530312,21.865231000003405,22107,0.033936,-0.044434,1.043945,1.274809,2.351145,-1.259542,1.045441,2.956259,1187,2173,986,1187,1,68.1,14,normal
1780589800.385337,21.8975369999971,22139,0.039551,-0.050293,1.045166,3.70229,2.671756,0.618321,1.047122,4.607336,1196,2183,987,1196,0,68.345,0,normal
1780589800.4161181,21.928318000005675,22169,0.05835,0.023193,1.058838,0.015267,3.091603,-0.564886,1.060698,3.142823,1197,2185,988,1197,0,68.345,10,normal
1780589800.4475455,21.95974550000392,22200,0.02124,-0.015869,1.057861,0.648855,2.816794,-1.312977,1.058194,3.174784,1198,2188,990,1198,1,68.345,14,normal
1780589800.477831,21.990030700006173,22231,0.046143,-0.058594,1.043457,3.931298,2.610687,0.70229,1.046119,4.771164,1199,2190,991,1199,1,68.345,12,normal
1780589800.5096297,22.02182970001013,22262,0.052979,0.012695,1.054199,1.137405,3.10687,0.221374,1.055606,3.315922,1201,2193,992,1201,0,68.345,9,normal
1780589800.5400207,22.052220500001567,22293,0.041504,-0.024414,1.050781,-0.183206,2.847328,-2.091603,1.051884,3.537746,1202,2196,994,1202,1,68.345,14,normal
1780589800.5769982,22.08919820000301,22324,0.052979,-0.043213,1.036133,3.007634,3.145038,0.19084,1.038386,4.355863,1203,2198,995,1203,1,68.345,14,normal
1780589800.6073632,22.11956310000096,22361,0.016602,0.036133,1.068359,-0.206107,3.030534,-2.015267,1.069099,3.64526,1205,2201,996,1205,0,68.345,10,normal
1780589800.6382535,22.150453299997025,22392,0.060059,-0.070557,1.038574,1.320611,2.633588,-0.740458,1.042699,3.037775,1206,2204,998,1206,1,39.526,15,normal
1780589800.6688275,22.181027400001767,22423,0.033447,-0.032715,1.043701,3.534351,2.847328,0.519084,1.044749,4.56819,1208,2207,999,1208,0,39.526,10,normal
1780589800.6997583,22.21195820000139,22453,0.051758,0.021729,1.067383,0.519084,3.251908,-0.51145,1.068858,3.332557,1209,2209,1000,1209,0,39.526,10,normal
1780589800.7307863,22.242986199998995,22484,0.009033,-0.018066,1.056885,0.435114,2.503817,-1.419847,1.057078,2.911081,1210,2212,1002,1210,1,39.526,14,normal
1780589800.764778,22.276977800007444,22516,0.043457,-0.064209,1.043457,3.618321,2.610687,0.51145,1.046334,4.491048,1219,2225,1006,1219,0,39.526,0,normal
1780589800.79341,22.305609900009586,22548,0.041748,0.015381,1.066162,0.145038,2.816794,-0.687023,1.06709,2.902992,1220,2227,1007,1220,0,39.526,9,normal
1780589800.8233068,22.335506600007648,22578,0.006592,-0.007813,1.054932,0.366412,2.870229,-1.992366,1.054981,3.513118,1221,2230,1009,1221,1,39.526,14,normal
1780589800.8533957,22.365595600000233,22608,0.053467,-0.053955,1.041748,3.0,3.251908,0.236641,1.044514,4.430678,1222,2232,1010,1222,1,39.526,12,normal
1780589800.8846154,22.396815300002345,22638,0.057373,-0.009277,1.062012,2.564885,2.519084,0.694656,1.063601,3.661553,1224,2235,1011,1224,0,39.526,9,normal
1780589800.9158528,22.428052700008266,22669,0.023926,0.015625,1.053711,-0.396947,3.21374,-2.030534,1.054098,3.822141,1225,2237,1012,1225,0,68.592,9,normal
1780589800.9470303,22.45923030000995,22700,0.061523,-0.06665,1.039795,1.625954,2.961832,-0.473282,1.043744,3.41177,1226,2240,1014,1226,1,68.592,14,normal
1780589800.9780104,22.490210300005856,22731,0.019531,-0.026611,1.065674,3.450382,2.465649,0.78626,1.066185,4.313092,1228,2243,1015,1228,0,68.592,9,normal
1780589801.008147,22.520346899997094,22762,0.057373,0.015137,1.055664,-0.007634,2.648855,-1.167939,1.05733,2.894922,1229,2245,1016,1229,0,68.592,10,normal
1780589801.040287,22.552487000008114,22793,0.024414,-0.067383,1.039307,0.923664,2.770992,-1.358779,1.041775,3.221464,1230,2248,1018,1230,1,68.592,14,normal
1780589801.070569,22.58276879999903,22824,0.036377,-0.033936,1.051025,3.412214,2.435115,0.70229,1.052202,4.250435,1232,2251,1019,1232,0,68.592,9,normal
1780589801.1010711,22.613271100010024,22855,0.009277,0.018311,1.063965,0.221374,3.183206,-0.458015,1.064163,3.223598,1233,2253,1020,1233,0,68.592,9,normal
1780589801.131202,22.643401900000754,22885,0.05957,-0.026611,1.042969,0.122137,2.610687,-1.70229,1.045008,3.119038,1234,2256,1022,1234,1,68.592,14,normal
1780589801.1629739,22.675173800002085,22917,0.028076,-0.049561,1.032959,3.259542,2.961832,0.091603,1.034528,4.405162,1241,2267,1026,1241,0,68.592,0,normal
1780589801.1946874,22.706887200009078,22948,0.046387,0.012207,1.053223,1.08397,2.870229,0.068702,1.054314,3.068864,1242,2269,1027,1242,0,60.932,9,normal
1780589801.2256007,22.737800500006415,22979,0.063232,-0.029297,1.053223,0.564886,2.59542,-1.603053,1.055526,3.102431,1243,2272,1029,1243,1,60.932,13,normal
1780589801.2559147,22.76811460001045,23010,0.040039,-0.042725,1.033447,3.129771,3.061069,0.122137,1.035105,4.379558,1244,2274,1030,1244,1,60.932,13,normal
1780589801.2873836,22.79958350000379,23041,0.044922,0.00415,1.047852,1.763359,2.755725,0.381679,1.048822,3.293802,1246,2277,1031,1246,0,60.932,9,normal
1780589801.3160744,22.828274200001033,23072,0.003662,0.003662,1.058838,-0.267176,3.015267,-2.29771,1.05885,3.800354,1247,2279,1032,1247,0,60.932,8,normal
1780589801.3470528,22.85925270000007,23101,0.032471,-0.058838,1.044922,1.755725,2.854962,-0.519084,1.047081,3.391582,1248,2282,1034,1248,1,60.932,14,normal
1780589801.3786008,22.89080059999833,23132,0.033936,-0.027344,1.043457,3.183206,2.557252,0.603053,1.044367,4.12747,1250,2285,1035,1250,0,60.932,10,normal
1780589801.4097562,22.921956000005594,23163,0.048096,0.020996,1.052246,-0.259542,3.114504,-1.091603,1.053554,3.310452,1251,2287,1036,1251,0,60.932,9,normal
1780589801.440042,22.952241999999387,23194,0.017822,-0.043701,1.048096,0.70229,2.480916,-1.129771,1.049158,2.815056,1252,2290,1038,1252,1,60.932,14,normal
1780589801.4715629,22.983762800009572,23225,0.040771,-0.036865,1.057373,3.725191,2.679389,0.221374,1.058801,4.594038,1254,2293,1039,1254,0,43.321,9,normal
1780589801.5025585,23.014758300007088,23256,0.017334,0.012695,1.059326,0.48855,2.824427,-0.450382,1.059544,2.901536,1255,2295,1040,1255,0,43.321,10,normal
1780589801.5335617,23.04576160000579,23287,0.054199,-0.016846,1.053223,0.335878,2.732824,-1.412214,1.054751,3.094429,1256,2298,1042,1256,1,43.321,13,normal
1780589801.5667753,23.078975299999,23319,0.022461,-0.051514,1.045654,3.717557,2.847328,0.198473,1.047163,4.686886,1265,2311,1046,1265,0,43.321,0,normal
1780589801.5973258,23.10952559999714,23351,0.049316,0.016602,1.062012,0.557252,2.885496,-0.832061,1.063286,3.054332,1266,2313,1047,1266,0,43.321,9,normal
1780589801.6286511,23.14085110000451,23382,0.017334,-0.030518,1.044189,1.114504,2.564885,-1.610687,1.044779,3.227239,1267,2316,1049,1267,1,43.321,14,normal
1780589801.6600692,23.172269000002416,23414,0.062256,-0.055176,1.044434,3.381679,2.839695,0.480916,1.047741,4.441948,1275,2325,1050,1275,0,43.321,0,normal
1780589801.6912324,23.203432399997837,23445,0.039062,0.012695,1.058106,0.251908,3.099237,-0.427481,1.058902,3.138704,1276,2327,1051,1276,0,43.321,9,normal
1780589801.7229242,23.235123999998905,23476,0.033936,-0.021484,1.055664,0.854962,2.740458,-0.984733,1.056428,3.034925,1277,2330,1053,1277,1,91.633,14,normal
1780589801.7536726,23.26587250000739,23507,0.038574,-0.053955,1.052978,3.564885,2.503817,0.290076,1.055065,4.365965,1279,2333,1054,1279,0,91.633,10,normal
1780589801.7841759,23.296375799996895,23539,0.043945,0.01709,1.054932,0.114504,3.0,-0.694656,1.055985,3.081503,1280,2335,1055,1280,0,91.633,10,normal
1780589801.830199,23.342399000001024,23569,0.029785,-0.036865,1.055176,0.618321,2.992366,-1.29771,1.05624,3.319733,1281,2338,1057,1281,1,91.633,15,normal
1780589801.846636,23.358835999999428,23600,0.050781,-0.03833,1.037598,3.541985,3.312977,0.396947,1.039546,4.866111,1282,2340,1058,1282,1,91.633,13,normal
1780589801.8778841,23.39008399999875,23631,0.022949,0.020264,1.05249,1.78626,2.725191,0.053435,1.052935,3.258872,1284,2343,1059,1284,0,91.633,10,normal
1780589801.907987,23.420186900009867,23662,0.033936,-0.004639,1.039307,-0.083969,3.183206,-1.984733,1.039871,3.752202,1285,2345,1060,1285,0,91.633,8,normal
1780589801.9395697,23.451769599996624,23693,0.05835,-0.060547,1.033447,2.564885,3.114504,0.152672,1.036862,4.037584,1286,2348,1062,1286,1,91.633,15,normal
1780589801.9704523,23.48265230000834,23724,0.061523,-0.01416,1.049805,2.580153,2.564885,0.312977,1.051701,3.651545,1288,2351,1063,1288,0,91.633,10,normal
1780589802.001837,23.514036900000065,23755,0.032471,0.010498,1.052246,-0.358779,2.908397,-1.549618,1.052799,3.314938,1289,2353,1064,1289,0,43.011,10,normal
1780589802.0329626,23.545162499998696,23786,0.066162,-0.062988,1.028076,2.152672,2.732824,-0.29771,1.032127,3.491555,1290,2356,1066,1290,1,43.011,14,normal
1780589802.0638578,23.57605770000373,23817,0.023926,-0.030518,1.056885,3.282443,2.641221,0.610687,1.057596,4.25716,1292,2359,1067,1292,0,43.011,9,normal
1780589802.0938764,23.606076299998676,23848,0.038818,0.02002,1.065674,-0.412214,2.664122,-1.335878,1.066568,3.00866,1293,2361,1068,1293,0,43.011,10,normal
1780589802.1239994,23.636199300002772,23879,0.028564,-0.054688,1.043945,1.0,2.778626,-1.10687,1.045767,3.153716,1294,2364,1070,1294,1,43.011,15,normal
1780589802.155109,23.667308700009016,23909,0.045166,-0.046875,1.054199,3.900763,2.656489,0.633588,1.056207,4.761756,1296,2367,1071,1296,0,43.011,10,normal
1780589802.186576,23.698775700002443,23940,0.030762,0.019287,1.05957,0.419847,3.076336,-0.21374,1.060192,3.112202,1297,2369,1072,1297,0,43.011,9,normal
1780589802.217862,23.73006170000008,23971,0.031738,-0.018311,1.056885,0.534351,2.618321,-1.854962,1.05752,3.253002,1298,2372,1074,1298,1,43.011,14,normal
1780589802.250264,23.762463899998693,24003,0.035889,-0.052979,1.033936,3.320611,3.083969,0.625954,1.035914,4.574838,1302,2383,1081,1302,0,43.011,0,normal
1780589802.2805328,23.792732600006275,24034,0.040039,0.020508,1.05835,1.320611,3.152672,0.358779,1.059305,3.43687,1303,2385,1082,1303,0,50.179,10,normal
1780589802.311211,23.823411100005615,24065,0.044434,-0.024414,1.045898,0.244275,2.755725,-1.977099,1.047126,3.400384,1304,2388,1084,1304,1,50.179,14,normal
1780589802.3425753,23.854775300002075,24096,0.062012,-0.060303,1.038574,3.282443,2.961832,0.328244,1.04217,4.433354,1305,2390,1085,1305,1,50.179,12,normal
1780589802.3733807,23.885580500005744,24127,0.020508,0.006348,1.037842,2.175573,2.862595,0.503817,1.038064,3.63062,1307,2393,1086,1307,0,50.179,9,normal
1780589802.4047747,23.916974599997047,24158,0.048828,-0.00708,1.060059,-0.51145,3.198473,-2.015267,1.061206,3.814854,1308,2395,1087,1308,0,50.179,8,normal
1780589802.4355924,23.947792200007825,24189,0.034668,-0.045166,1.022461,2.496183,3.19084,0.076336,1.024045,4.05194,1309,2398,1089,1309,1,50.179,14,normal
1780589802.4659367,23.978136500008986,24220,0.058105,-0.024414,1.0625,2.603053,2.366412,0.557252,1.064368,3.561786,1311,2401,1090,1311,0,50.179,10,normal
1780589802.496637,24.008837000001222,24250,0.061279,0.013428,1.070068,0.045802,2.877863,-1.038168,1.071906,3.059736,1312,2403,1091,1312,0,50.179,9,normal
1780589802.5272102,24.03941009999835,24281,0.013428,-0.050781,1.033936,0.824427,2.801527,-1.366412,1.035269,3.224177,1313,2406,1093,1313,1,50.179,13,normal
1780589802.5584602,24.07066019999911,24312,0.01123,-0.02417,1.047119,3.725191,2.534351,0.442748,1.047458,4.527252,1315,2409,1094,1315,0,43.165,10,normal
1780589802.5896535,24.101853400003165,24343,0.044678,0.015381,1.067383,0.244275,2.740458,-0.732824,1.068428,2.847246,1316,2411,1095,1316,0,43.165,9,normal
1780589802.6200156,24.132215500008897,24374,0.027588,-0.020752,1.039795,0.48855,2.557252,-1.381679,1.040368,2.947415,1317,2414,1097,1317,1,43.165,14,normal
1780589802.6508777,24.163077500008512,24405,0.069824,-0.06665,1.044189,3.480916,2.80916,0.648855,1.048642,4.519864,1319,2417,1098,1319,0,43.165,10,normal
1780589802.6818104,24.194010300008813,24436,0.04126,0.035889,1.054932,1.053435,2.923664,0.076336,1.056348,3.108595,1320,2419,1099,1320,0,43.165,10,normal
1780589802.7129128,24.22511270000541,24467,0.048828,-0.047607,1.050293,0.366412,2.664122,-1.396947,1.052505,3.03039,1321,2422,1101,1321,1,43.165,14,normal
1780589802.7438922,24.25609209999675,24498,0.043945,-0.053223,1.034424,3.519084,3.19084,0.412214,1.036724,4.768158,1322,2424,1102,1322,1,43.165,13,normal
1780589802.7752585,24.2874584000092,24529,0.020996,0.009521,1.054443,1.610687,2.916031,0.358779,1.054695,3.350562,1324,2427,1103,1324,0,43.165,10,normal
1780589802.8158274,24.32802719999745,24560,0.047119,-0.009521,1.060059,-0.312977,2.648855,-2.320611,1.061148,3.53548,1325,2430,1105,1325,1,43.165,14,normal
1780589802.8373768,24.34957669999858,24591,0.052002,-0.049072,1.024658,3.061069,2.969466,0.312977,1.02715,4.276192,1326,2432,1106,1326,1,39.427,13,normal
1780589802.8685164,24.38071640000271,24622,0.054688,-0.016602,1.043701,2.343511,2.450382,0.496183,1.045265,3.42675,1328,2435,1107,1328,0,39.427,9,normal
1780589802.899739,24.41193889999704,24653,0.041504,0.012939,1.051758,-0.015267,3.10687,-1.946565,1.052656,3.666332,1329,2437,1108,1329,0,39.427,9,normal
1780589802.9301448,24.44234460000007,24684,0.047119,-0.052002,1.03833,2.038168,2.900763,-0.442748,1.040699,3.572756,1330,2440,1110,1330,1,39.427,14,normal
1780589802.9617271,24.473926999999094,24715,0.042969,-0.024902,1.050537,3.167939,2.587786,0.793893,1.05171,4.166862,1332,2443,1111,1332,0,39.427,10,normal
1780589802.9926162,24.504816100001335,24746,0.029053,0.026123,1.051758,-0.114504,2.564885,-1.129771,1.052483,2.805019,1333,2445,1112,1333,0,39.427,9,normal
1780589803.023458,24.535657800006447,24777,0.022461,-0.052246,1.047119,1.091603,2.816794,-0.931298,1.048662,3.161209,1334,2448,1114,1334,1,39.427,14,normal
1780589803.0542176,24.56641749999835,24808,0.024414,-0.027832,1.053955,3.526718,2.877863,0.51145,1.054605,4.580548,1336,2451,1115,1336,0,39.427,9,normal
