host_epoch_s,host_elapsed_s,time_ms,ax,ay,az,gx,gy,gz,acc_mag,gyro_mag,pulse_count,edge_count,rise_count,fall_count,state,pulse_rate_hz,last_edge_dt_ms,label
1780597309.0283809,0.007059700001263991,248,0.049805,-0.02832,1.066406,2.114504,3.534351,-1.221374,1.067944,4.295872,11,22,11,11,1,0.0,12,damping
1780597309.061357,0.040035900005022995,279,0.054199,-0.013428,1.061279,1.351145,3.206107,-0.984733,1.062747,3.615856,13,25,12,13,0,46.595,9,damping
1780597309.0919347,0.0706136999942828,310,0.055176,-0.016113,1.064697,1.419847,3.137405,-1.091603,1.066248,3.612599,14,28,14,14,1,46.595,13,damping
1780597309.123327,0.10200590000022203,341,0.024414,0.009521,1.054199,1.274809,3.603053,-1.007634,1.054525,3.952525,16,31,15,16,0,46.595,10,damping
1780597309.153801,0.1324797999986913,372,0.04248,-0.02417,1.060547,1.450382,2.938931,-0.648855,1.061672,3.340948,17,33,16,17,0,46.595,9,damping
1780597309.1852174,0.16389640000124928,403,0.053467,-0.021973,1.062988,2.129771,3.083969,-1.19084,1.064559,3.932542,18,36,18,18,1,46.595,14,damping
1780597309.2145572,0.19323620000795927,434,0.044434,-0.004395,1.048828,0.763359,3.709924,-0.648855,1.049778,3.84282,20,39,19,20,0,46.595,9,damping
1780597309.2458127,0.22449170000618324,464,0.039551,-0.03418,1.064941,1.221374,3.564885,-0.70229,1.066224,3.833194,21,41,20,21,0,46.595,9,damping
1780597309.2762024,0.254881300003035,495,0.045898,-0.031982,1.050293,2.221374,3.221374,-0.854962,1.051782,4.005336,22,44,22,22,1,46.595,14,damping
1780597309.3087046,0.28738360000716057,526,0.054932,-0.031982,1.067383,1.427481,3.625954,-0.938931,1.069274,4.008346,24,47,23,24,0,46.595,10,damping
1780597309.3385344,0.3172134000051301,557,0.061279,-0.028564,1.048096,1.587786,3.076336,-1.076336,1.050274,3.625384,25,50,25,25,1,43.165,14,damping
1780597309.3709593,0.34963820000120904,589,0.049316,-0.030273,1.062744,1.442748,2.564885,-1.450382,1.064318,3.280818,34,60,26,34,0,43.165,0,damping
1780597309.4005764,0.3792553999955999,620,0.04248,-0.012207,1.0625,1.396947,3.21374,-1.053435,1.063419,3.659141,35,62,27,35,0,43.165,10,damping
1780597309.4312382,0.4099170999979833,650,0.037842,-0.029541,1.057861,1.679389,3.129771,-0.931298,1.05895,3.671938,36,65,29,36,1,43.165,14,damping
1780597309.46137,0.4400489999970887,681,0.0625,-0.013672,1.05249,1.351145,3.580153,-0.78626,1.054433,3.90657,38,68,30,38,0,43.165,9,damping
1780597309.492151,0.47083000000566244,711,0.068848,-0.036377,1.070068,1.076336,3.335878,-0.832061,1.072898,3.602625,39,70,31,39,0,43.165,9,damping
1780597309.5229564,0.5016352999955416,742,0.070557,-0.02832,1.060303,1.862595,3.366412,-0.969466,1.063025,3.967601,40,73,33,40,1,43.165,13,damping
1780597309.5534232,0.5321021999989171,773,0.047119,-0.024658,1.054443,1.29771,3.312977,-1.183206,1.055784,3.749646,42,76,34,42,0,43.165,10,damping
1780597309.5844333,0.5631123000057414,803,0.069092,-0.0271,1.069824,1.328244,3.961832,-0.778626,1.072395,4.250483,43,78,35,43,0,43.165,9,damping
1780597309.6157064,0.5943853000062518,834,0.069824,-0.025635,1.060547,2.21374,3.335878,-0.832061,1.063152,4.089138,44,81,37,44,1,68.592,13,damping
1780597309.6475098,0.6261888000008184,865,0.054932,-0.025879,1.071533,1.656489,3.610687,-1.045802,1.073252,4.107884,46,84,38,46,0,68.592,10,damping
1780597309.6777306,0.6564095000067027,896,0.051025,-0.013184,1.057617,1.732824,2.778626,-0.740458,1.058929,3.357338,47,89,42,47,1,68.592,1,damping
1780597309.7084002,0.6870790999964811,927,0.033203,-0.030518,1.061279,1.274809,2.656489,-0.625954,1.062237,3.01229,49,92,43,49,0,68.592,9,damping
1780597309.7402973,0.7189763000060339,958,0.040283,-0.022949,1.049805,1.496183,3.137405,-1.129771,1.050828,3.654895,50,94,44,50,0,68.592,9,damping
1780597309.7709527,0.7496316000033403,989,0.053955,-0.037598,1.058106,1.473282,3.503817,-0.755725,1.060147,3.87536,51,97,46,51,1,68.592,13,damping
1780597309.8025694,0.7812483000016073,1020,0.054199,-0.01001,1.055908,1.312977,3.358779,-1.030534,1.057346,3.75064,53,100,47,53,0,68.592,9,damping
1780597309.8326716,0.8113506000081543,1051,0.031494,-0.030518,1.063232,1.259542,3.29771,-1.419847,1.064136,3.804905,54,102,48,54,0,68.592,10,damping
1780597309.8634465,0.8421252999978606,1082,0.069336,-0.019287,1.061279,1.534351,4.587786,-0.778626,1.063717,4.899824,55,105,50,55,1,68.592,13,damping
1780597309.8953667,0.8740456999948947,1113,0.053467,-0.027344,1.066406,0.763359,3.320611,-0.954198,1.068096,3.538314,57,108,51,57,0,46.595,10,damping
1780597309.9263992,0.9050780999968993,1144,0.045898,-0.033447,1.054932,2.320611,2.946565,-1.328244,1.056459,3.978908,58,111,53,58,1,46.595,13,damping
1780597309.9591155,0.9377944000007119,1177,0.038574,0.000244,1.063477,0.656489,3.687023,-0.641221,1.064176,3.79951,67,121,54,67,0,46.595,0,damping
1780597309.989623,0.9683020999946166,1208,0.063232,-0.029053,1.067871,1.412214,3.152672,-1.015267,1.070136,3.600619,68,123,55,68,0,46.595,9,damping
1780597310.0209184,0.9995972000033362,1239,0.050537,-0.026367,1.053955,2.183206,3.412214,-1.045802,1.055495,4.183694,69,126,57,69,1,46.595,13,damping
1780597310.052208,1.0308869000000414,1270,0.033691,-0.012939,1.058838,1.427481,3.717557,-0.51145,1.059453,4.014912,71,129,58,71,0,46.595,10,damping
1780597310.0840151,1.0626941000082297,1302,0.047852,-0.008789,1.062256,1.908397,2.274809,-0.946565,1.063369,3.116524,72,132,60,72,1,46.595,14,damping
1780597310.1161094,1.094788200003677,1334,0.044434,-0.031738,1.060059,1.244275,2.053435,-0.954198,1.061464,2.583662,84,145,61,84,0,46.595,0,damping
1780597310.1472325,1.1259113999985857,1366,0.059326,-0.033691,1.072022,1.709924,3.572519,-1.061069,1.07419,4.100316,85,147,62,85,0,110.672,9,damping
1780597310.178605,1.1572841000015615,1397,0.055908,-0.025391,1.057861,1.740458,3.778626,-0.877863,1.059642,4.251806,87,152,65,87,1,110.672,12,damping
1780597310.2107954,1.1894743000011658,1428,0.041748,-0.014893,1.071045,0.946565,3.59542,-1.068702,1.071962,3.868482,89,155,66,89,0,110.672,9,damping
1780597310.241513,1.2201920000079554,1460,0.043701,-0.004883,1.060303,1.458015,2.923664,-0.938931,1.061214,3.399296,90,158,68,90,1,110.672,13,damping
1780597310.2733405,1.252019499996095,1491,0.029053,-0.025146,1.054932,0.656489,2.832061,-1.038168,1.055631,3.086963,100,169,69,100,0,110.672,0,damping
1780597310.3037043,1.2823831999994582,1522,0.044189,-0.032715,1.059082,0.862595,2.839695,-1.076336,1.060508,3.156966,101,171,70,101,0,110.672,9,damping
1780597310.3343472,1.3130261000042083,1553,0.051025,-0.025146,1.066406,1.664122,2.534351,-1.229008,1.067922,3.271498,102,174,72,102,1,110.672,14,damping
1780597310.3667886,1.3454674999957206,1584,0.046387,-0.010254,1.057129,1.458015,3.564885,-0.877863,1.058196,3.950298,106,179,73,106,0,110.672,10,damping
1780597310.3982542,1.3769332000083523,1616,0.048096,-0.043701,1.054932,1.992366,3.564885,-1.236641,1.056931,4.266991,107,182,75,107,1,88.0,13,damping
1780597310.4287481,1.4074270999990404,1647,0.045166,-0.0271,1.055664,1.687023,3.045802,-1.21374,1.056977,3.687292,109,185,76,109,0,88.0,9,damping
1780597310.460263,1.4389420000079554,1678,0.057617,-0.03418,1.056396,1.152672,3.137405,-0.977099,1.058518,3.482339,110,187,77,110,0,88.0,9,damping
1780597310.4913971,1.4700760999985505,1709,0.026611,-0.030029,1.061523,1.473282,2.946565,-1.358779,1.062282,3.563578,111,190,79,111,1,88.0,13,damping
1780597310.5212672,1.4999460999970324,1740,0.035889,-0.003906,1.059082,0.931298,3.534351,-0.603053,1.059697,3.704406,113,193,80,113,0,88.0,10,damping
1780597310.5509093,1.5295883000071626,1770,0.037354,-0.033447,1.064453,2.305344,2.480916,-1.0,1.065633,3.531226,114,195,81,114,0,88.0,10,damping
1780597310.5820012,1.5606801999965683,1800,0.058105,-0.018555,1.063477,1.78626,4.259542,-0.908397,1.065224,4.7074,115,198,83,115,1,88.0,13,damping
1780597310.6132224,1.5919012999947881,1832,0.039551,-0.0271,1.059082,1.435114,3.938931,-1.099237,1.060167,4.333942,117,201,84,117,0,88.0,9,damping
1780597310.6441975,1.6228764999978011,1863,0.046875,-0.017334,1.0625,2.564885,2.946565,-0.625954,1.063675,3.95635,118,204,86,118,1,88.0,13,damping
1780597310.6753893,1.6540682000049856,1893,0.050781,-0.020508,1.057617,1.206107,3.954198,-0.89313,1.059034,4.229428,119,206,87,119,1,43.321,13,damping
1780597310.7065783,1.6852571000054013,1924,0.044678,-0.024414,1.056885,1.427481,3.465649,-1.068702,1.05811,3.897505,121,209,88,121,0,43.321,10,damping
1780597310.7375739,1.7162529000052018,1955,0.041504,-0.016113,1.065186,2.290076,2.877863,-1.091603,1.066116,3.836423,122,212,90,122,1,43.321,13,damping
1780597310.76786,1.7465388999989955,1986,0.036865,-0.033936,1.05127,0.923664,3.152672,-1.290076,1.052463,3.529418,124,215,91,124,0,43.321,10,damping
1780597310.7999601,1.778638999996474,2018,0.044922,-0.028076,1.057373,1.351145,3.022901,-1.290076,1.058699,3.553564,125,217,92,125,0,43.321,10,damping
1780597310.8312337,1.809912800003076,2049,0.05957,-0.03418,1.059082,2.854962,3.78626,-1.21374,1.061307,4.894868,126,220,94,126,1,43.321,13,damping
1780597310.862923,1.8416018999996595,2080,0.050293,-0.021973,1.059326,2.709924,3.114504,-1.10687,1.060747,4.274223,128,223,95,128,0,43.321,9,damping
1780597310.8951535,1.8738324000005377,2112,0.053955,-0.036377,1.055908,3.358779,2.580153,-1.396947,1.057911,4.459826,129,226,97,129,1,43.321,13,damping
1780597310.9262383,1.9049171999940882,2144,0.032227,-0.017822,1.053467,-0.29771,3.816794,-1.328244,1.05411,4.052256,131,229,98,131,0,47.809,9,damping
1780597310.9562545,1.934933500000625,2175,0.036377,-0.010742,1.055908,-0.099237,3.70229,-1.221374,1.056589,3.899815,132,231,99,132,0,47.809,10,damping
1780597310.9885406,1.967219700003625,2206,0.044678,-0.037598,1.05835,1.221374,3.916031,-0.908397,1.059959,4.201456,133,234,101,133,1,47.809,13,damping
1780597311.0198226,1.9985014999983832,2237,0.045166,-0.014648,1.063965,-1.068702,4.450382,-1.007634,1.065024,4.686507,135,237,102,135,0,47.809,9,damping
1780597311.0512347,2.02991359999578,2268,0.062012,-0.020264,1.062988,-0.419847,3.885496,-1.015267,1.064988,4.037836,136,239,103,136,0,47.809,9,damping
1780597311.0807555,2.0594344999990426,2299,0.072998,-0.025391,1.04834,0.129771,3.381679,-1.70229,1.051185,3.788191,137,242,105,137,1,47.809,13,damping
1780597311.1112041,2.08988309999404,2329,0.035645,-0.031982,1.056641,1.900763,3.267176,-1.351145,1.057725,4.014092,139,245,106,139,0,47.809,10,damping
1780597311.143309,2.121988099999726,2361,0.057617,-0.04248,1.055908,2.274809,2.847328,-1.442748,1.058332,3.919637,140,248,108,140,1,47.809,14,damping
1780597311.1761746,2.15485350000381,2394,0.036133,-0.019531,1.063721,1.251908,2.679389,-1.206107,1.064513,3.193915,149,258,109,149,0,72.0,1,damping
1780597311.207213,2.1858918000070844,2425,0.041016,-0.042236,1.064453,2.580153,3.419847,-1.305344,1.06608,4.478444,150,260,110,150,0,72.0,9,damping
1780597311.2382557,2.216934800002491,2456,0.061279,-0.032227,1.062744,2.541985,2.740458,-1.351145,1.064997,3.974593,151,263,112,151,1,72.0,12,damping
1780597311.2673504,2.246029300004011,2487,0.054688,-0.029053,1.052978,0.206107,3.40458,-1.29771,1.054798,3.649342,153,266,113,153,0,72.0,10,damping
1780597311.2996612,2.278340200005914,2517,0.051514,-0.025391,1.068359,0.435114,3.48855,-1.145038,1.069902,3.697353,154,268,114,154,0,72.0,10,damping
1780597311.3287942,2.307473199995002,2548,0.042725,-0.043213,1.058838,1.740458,3.923664,-1.045802,1.06058,4.417922,155,271,116,155,1,72.0,13,damping
1780597311.3608334,2.3395123000082094,2579,0.049561,-0.030029,1.061768,1.770992,3.274809,-1.740458,1.063348,4.109742,157,274,117,157,0,72.0,9,damping
1780597311.3917031,2.3703820999944583,2610,0.04541,-0.016602,1.056152,0.648855,3.763359,-1.366412,1.057258,4.055979,158,277,119,158,1,72.0,13,damping
1780597311.4231067,2.4017854999983683,2641,0.047852,-0.033203,1.061035,0.725191,3.374046,-1.167939,1.062632,3.643373,159,279,120,159,1,72.0,13,damping
1780597311.4541829,2.4328619000007166,2672,0.062988,-0.026367,1.070557,1.053435,3.305344,-0.519084,1.072732,3.507773,161,282,121,161,0,43.165,10,damping
1780597311.4854236,2.4641026000026613,2703,0.05249,-0.040527,1.065674,1.183206,3.053435,-1.725191,1.067735,3.701314,162,285,123,162,1,43.165,14,damping
1780597311.5165434,2.4952224000007845,2734,0.043213,-0.020264,1.065674,1.114504,3.458015,-1.061069,1.066742,3.784951,164,288,124,164,0,43.165,10,damping
1780597311.5476751,2.5263541000022087,2765,0.044922,-0.033203,1.073242,2.259542,3.068702,-1.366412,1.074695,4.0484,165,290,125,165,0,43.165,9,damping
1780597311.5790741,2.5577532000024803,2797,0.042969,-0.04248,1.0625,1.763359,3.137405,-1.396947,1.064217,3.860596,166,293,127,166,1,43.165,13,damping
1780597311.6091917,2.5878707000083523,2828,0.04834,-0.032959,1.058106,1.946565,3.045802,-1.480916,1.059722,3.906294,168,296,128,168,0,43.165,10,damping
1780597311.641049,2.619727800003602,2859,0.048096,-0.041748,1.045898,1.633588,3.160305,-1.923664,1.047836,4.044332,169,299,130,169,1,43.165,13,damping
1780597311.6742384,2.652917300001718,2892,0.022949,-0.023682,1.053711,1.312977,2.206107,-1.687023,1.054227,3.071948,181,312,131,181,0,43.165,0,damping
1780597311.7046838,2.6833628000022145,2923,0.036377,-0.016846,1.061035,1.10687,3.183206,-1.038168,1.061792,3.526436,182,314,132,182,0,83.665,10,damping
1780597311.7337468,2.712425699995947,2954,0.0625,-0.03125,1.066894,2.114504,3.48855,-1.221374,1.06918,4.25827,183,317,134,183,1,83.665,14,damping
1780597311.7646694,2.7433483000058914,2983,0.039795,-0.033691,1.057617,1.08397,3.557252,-0.938931,1.058902,3.835443,185,320,135,185,0,83.665,10,damping
1780597311.796792,2.775470900000073,3015,0.043945,-0.028076,1.063232,1.740458,3.564885,-1.282443,1.06451,4.169204,186,322,136,186,0,83.665,10,damping
1780597311.8281536,2.8068325000058394,3046,0.048096,-0.018066,1.055908,1.618321,3.793893,-1.053435,1.057157,4.257031,187,325,138,187,1,83.665,14,damping
1780597311.85901,2.837689000007231,3077,0.047119,-0.02832,1.070312,1.183206,3.10687,-1.435114,1.071723,3.621074,189,328,139,189,0,83.665,9,damping
1780597311.8909583,2.8696372999984305,3108,0.041504,-0.018066,1.058106,0.977099,3.587786,-1.358779,1.059073,3.958941,190,331,141,190,1,83.665,14,damping
1780597311.9213831,2.900062100001378,3139,0.045654,-0.02002,1.068848,0.89313,3.236641,-1.625954,1.07001,3.730584,191,333,142,191,1,83.665,12,damping
1780597311.9526665,2.931345400007558,3170,0.057129,-0.023682,1.063232,1.305344,3.335878,-1.419847,1.065029,3.853306,193,336,143,193,0,83.665,10,damping
1780597311.9830933,2.961772099995869,3201,0.054199,-0.014404,1.057617,1.442748,3.282443,-1.641221,1.059103,3.943293,194,339,145,194,1,43.165,13,damping
1780597312.0149255,2.9936044000060065,3233,0.031982,-0.032227,1.066162,1.366412,3.938931,-1.740458,1.067128,4.517904,203,349,146,203,0,43.165,0,damping
1780597312.046868,3.025547099998221,3264,0.037109,-0.045166,1.053955,1.763359,3.152672,-1.068702,1.055575,3.767081,204,351,147,204,0,43.165,9,damping
1780597312.0769806,3.055659599995124,3295,0.0625,-0.023438,1.060547,1.778626,3.732824,-1.664122,1.062645,4.457218,205,354,149,205,1,43.165,12,damping
1780597312.106889,3.085567899994203,3325,0.062988,-0.03418,1.060547,1.59542,2.961832,-1.015267,1.062965,3.514055,207,357,150,207,0,43.165,10,damping
1780597312.1383474,3.117026399995666,3356,0.060547,-0.04126,1.067139,1.625954,3.221374,-1.167939,1.069651,3.792764,208,359,151,208,0,43.165,10,damping
1780597312.1687028,3.1473817999940366,3387,0.062012,-0.042969,1.05835,1.381679,4.076336,-1.526718,1.061035,4.566882,209,362,153,209,1,43.165,14,damping
1780597312.1995745,3.178253499994753,3418,0.059326,-0.033936,1.066894,1.007634,3.572519,-1.320611,1.069081,3.939826,211,365,154,211,0,43.165,10,damping
1780597312.2315443,3.2102232000033837,3449,0.053955,-0.017334,1.073242,1.839695,3.267176,-1.114504,1.074737,3.911653,212,368,156,212,1,43.165,14,damping
1780597312.2623641,3.241043100002571,3480,0.05542,-0.010986,1.06665,1.541985,2.89313,-1.305344,1.068146,3.528716,213,370,157,213,1,68.1,13,damping
1780597312.2921798,3.270858699994278,3511,0.056885,-0.02124,1.067871,1.793893,3.519084,-1.305344,1.069596,4.16004,215,373,158,215,0,68.1,10,damping
1780597312.3233716,3.3020506000029854,3542,0.063965,-0.020752,1.061279,1.885496,3.519084,-1.648855,1.063408,4.319464,216,376,160,216,1,68.1,14,damping
1780597312.3562775,3.3349564999953145,3574,0.036133,-0.012695,1.05957,1.145038,3.465649,-1.198473,1.060262,3.841637,225,386,161,225,0,68.1,1,damping
1780597312.3866012,3.365280199999688,3605,0.037354,-0.032715,1.062012,1.389313,3.038168,-1.618321,1.063172,3.712091,226,388,162,226,0,68.1,9,damping
1780597312.4165468,3.3952257000055397,3636,0.053223,-0.026855,1.056885,1.969466,3.40458,-1.458015,1.058565,4.194731,227,391,164,227,1,68.1,12,damping
1780597312.4478993,3.426578200000222,3666,0.065186,-0.032715,1.057129,1.679389,3.381679,-1.030534,1.059642,3.913835,229,394,165,229,0,68.1,10,damping
1780597312.479561,3.45824010000797,3697,0.04248,-0.032959,1.061768,1.618321,3.496183,-1.549618,1.063128,4.152538,230,396,166,230,0,68.1,9,damping
1780597312.510436,3.4891149000031874,3728,0.042969,-0.031982,1.057373,2.305344,3.053435,-1.48855,1.058729,4.105345,231,399,168,231,1,68.1,13,damping
1780597312.5415215,3.5202005000028294,3759,0.046875,-0.022949,1.056152,1.526718,2.778626,-1.473282,1.057441,3.496025,233,402,169,233,0,71.685,9,damping
1780597312.572707,3.551385900005698,3790,0.053223,-0.012207,1.052246,1.328244,3.175573,-1.389313,1.053662,3.711965,234,405,171,234,1,71.685,13,damping
1780597312.6028674,3.581546300003538,3821,0.05542,-0.028564,1.058106,2.114504,2.877863,-1.679389,1.059941,3.946336,235,407,172,235,1,71.685,13,damping
1780597312.6341228,3.6128019000025233,3852,0.041992,-0.012939,1.068115,1.267176,3.030534,-1.580153,1.069019,3.6451,237,410,173,237,0,71.685,10,damping
1780597312.6649077,3.643586599995615,3883,0.039307,-0.025391,1.054688,1.625954,2.824427,-1.351145,1.055725,3.527989,238,413,175,238,1,71.685,13,damping
1780597312.6966002,3.6752792000042973,3914,0.031982,-0.019531,1.059814,1.51145,2.534351,-0.977099,1.060477,3.108398,245,421,176,245,0,71.685,0,damping
1780597312.728247,3.706925799997407,3946,0.056885,-0.038818,1.064209,1.534351,3.221374,-1.274809,1.066435,3.789013,246,423,177,246,0,71.685,10,damping
1780597312.7604144,3.739093399999547,3977,0.053223,-0.019531,1.057617,1.854962,3.557252,-1.717557,1.059136,4.36405,247,426,179,247,1,71.685,13,damping
1780597312.789388,3.768066999997245,4008,0.061279,-0.026611,1.062744,1.328244,3.236641,-1.557252,1.064842,3.829506,249,429,180,249,0,71.685,9,damping
1780597312.8213136,3.799992600004771,4039,0.057373,-0.025146,1.064941,1.740458,3.145038,-1.694656,1.066782,3.973955,250,431,181,250,0,60.714,8,damping
1780597312.8526316,3.8313105999986874,4070,0.042725,-0.02124,1.064209,1.59542,2.832061,-1.114504,1.065278,3.436285,252,434,182,252,1,60.714,13,damping
1780597312.8825405,3.861219300000812,4101,0.04834,-0.029297,1.059814,1.29771,3.083969,-1.450382,1.061321,3.646714,254,437,183,254,0,60.714,10,damping
1780597312.9149652,3.8936439999961294,4132,0.032471,-0.032471,1.05249,1.519084,2.900763,-1.541985,1.053492,3.619359,255,440,185,255,1,60.714,13,damping
1780597312.9447937,3.923472700000275,4163,0.026367,-0.016602,1.05249,1.335878,2.374046,-1.053435,1.052951,2.920683,257,443,186,257,0,60.714,9,damping
1780597312.9752047,3.9538837000000058,4194,0.036865,-0.029541,1.056641,1.641221,2.923664,-1.59542,1.057696,3.713056,258,445,187,258,0,60.714,10,damping
1780597313.0065002,3.9851792999979807,4225,0.040527,-0.032471,1.054688,1.740458,2.80916,-1.351145,1.055965,3.570178,259,448,189,259,1,60.714,14,damping
1780597313.0384393,4.017118100004154,4256,0.059082,-0.023926,1.064453,1.839695,2.984733,-1.091603,1.06636,3.672152,261,451,190,261,0,60.714,10,damping
1780597313.0685205,4.047199399996316,4286,0.040771,-0.030029,1.062988,0.908397,3.48855,-1.10687,1.064194,3.770985,262,453,191,262,0,60.714,10,damping
1780597313.0985522,4.077231200004462,4317,0.042969,-0.04126,1.053223,2.083969,3.045802,-1.229008,1.054906,3.889768,263,456,193,263,1,46.763,13,damping
1780597313.1307333,4.109412300007534,4348,0.053467,-0.027832,1.052246,1.549618,3.839695,-1.175572,1.053971,4.304248,265,459,194,265,0,46.763,10,damping
1780597313.1608462,4.139525100006722,4379,0.052246,-0.032959,1.054199,1.496183,3.389313,-1.328244,1.056008,3.935764,266,461,195,266,0,46.763,9,damping
1780597313.1931548,4.171833800006425,4411,0.05835,-0.013184,1.060547,1.51145,3.70229,-1.229008,1.062233,4.183526,267,464,197,267,1,46.763,13,damping
1780597313.2245553,4.2032342000020435,4442,0.055176,-0.023438,1.068848,1.427481,2.931298,-1.328244,1.070527,3.520574,270,469,199,270,0,46.763,0,damping
1780597313.2718463,4.250525199997355,4473,0.04541,-0.040527,1.060303,1.80916,2.916031,-1.496183,1.062048,3.743642,271,472,201,271,1,46.763,14,damping
1780597313.2859476,4.26462650000758,4504,0.029541,-0.021484,1.061279,1.435114,2.824427,-1.70229,1.061908,3.596489,272,474,202,272,1,46.763,11,damping
1780597313.316793,4.295471999997972,4535,0.049805,-0.042725,1.061035,1.70229,3.320611,-1.290076,1.063062,3.948233,274,477,203,274,0,46.763,9,damping
1780597313.3483117,4.326990600005956,4566,0.023193,-0.029541,1.056885,1.473282,2.954198,-1.450382,1.057552,3.605754,275,480,205,275,1,46.763,13,damping
1780597313.380262,4.358940899997833,4598,0.057861,-0.02002,1.063477,1.328244,3.709924,-1.038168,1.065238,4.074992,277,483,206,277,0,49.822,9,damping
1780597313.4108152,4.389494200004265,4629,0.054443,-0.042236,1.058594,1.664122,3.534351,-1.10687,1.060834,4.060308,278,485,207,278,0,49.822,9,damping
1780597313.4418368,4.420515699996031,4660,0.037354,-0.040771,1.055664,2.076336,3.725191,-1.587786,1.057111,4.550745,279,488,209,279,1,49.822,13,damping
1780597313.4741204,4.452799300008337,4691,0.031494,-0.027344,1.054688,1.328244,3.816794,-1.450382,1.055512,4.293688,281,491,210,281,0,49.822,9,damping
1780597313.5048137,4.483492500003194,4722,0.053223,-0.03833,1.065186,1.122137,3.450382,-1.503817,1.067203,3.927568,282,494,212,282,1,49.822,13,damping
1780597313.537825,4.516503999999259,4755,0.037109,-0.024658,1.0625,1.687023,2.900763,-1.633588,1.063434,3.732169,291,507,216,291,0,49.822,0,damping
1780597313.5680087,4.546687599999132,4786,0.0271,-0.008301,1.065674,1.725191,2.610687,-1.732824,1.066051,3.576961,292,509,217,292,0,49.822,10,damping
1780597313.5991971,4.577876199997263,4817,0.052734,-0.025635,1.061768,2.389313,2.931298,-1.450382,1.063385,4.0503,293,512,219,293,1,49.822,13,damping
1780597313.6300347,4.608713699999498,4848,0.056885,-0.013184,1.05835,1.458015,2.923664,-1.580153,1.059959,3.629119,295,515,220,295,0,72.0,9,damping
1780597313.6614223,4.640101299999515,4879,0.04834,-0.035645,1.056641,1.59542,3.206107,-1.48855,1.058346,3.878178,296,517,221,296,0,72.0,9,damping
1780597313.691217,4.669896000006702,4910,0.038574,-0.04126,1.052002,2.175573,3.251908,-1.396947,1.053517,4.154453,297,520,223,297,1,72.0,14,damping
1780597313.7234693,4.70214809999743,4941,0.042236,-0.032471,1.061523,1.122137,3.19084,-1.526718,1.062859,3.711,299,523,224,299,0,72.0,10,damping
1780597313.753747,4.732426000002306,4972,0.052734,-0.043457,1.050781,1.641221,3.068702,-1.778626,1.053001,3.908203,300,526,226,300,1,72.0,13,damping
1780597313.785755,4.76443389999622,5003,0.036377,-0.031494,1.062744,1.877863,2.21374,-1.557252,1.063833,3.294245,301,528,227,301,1,72.0,13,damping
1780597313.8160286,4.7947074999974575,5034,0.039307,-0.02417,1.063232,1.572519,3.175573,-1.496183,1.064233,3.84651,303,531,228,303,0,72.0,9,damping
1780597313.8465817,4.825260600002366,5065,0.044434,-0.031738,1.051758,1.435114,2.480916,-1.687023,1.053174,3.32574,304,534,230,304,1,72.0,14,damping
1780597313.8795447,4.858223700008239,5096,0.047363,-0.020996,1.05835,1.351145,2.748092,-1.587786,1.059617,3.449444,306,537,231,306,0,72.0,9,damping
1780597313.9083722,4.887051199999405,5127,0.033936,-0.014893,1.063232,1.396947,2.358779,-1.534351,1.063878,3.141581,307,539,232,307,0,43.011,10,damping
1780597313.9405541,4.919233099994017,5158,0.052979,-0.023926,1.058106,1.870229,2.51145,-1.335878,1.059701,3.404366,308,542,234,308,1,43.011,13,damping
1780597313.9709678,4.949646699998993,5189,0.057129,-0.019531,1.060547,1.603053,2.984733,-1.618321,1.062264,3.754647,310,545,235,310,0,43.011,9,damping
1780597314.0024621,4.981141199998092,5220,0.048828,-0.031738,1.058106,1.458015,3.091603,-1.80916,1.059707,3.867412,311,547,236,311,0,43.011,10,damping
1780597314.033395,5.0120739999983925,5251,0.055908,-0.043457,1.057373,1.877863,3.167939,-1.763359,1.059741,4.083092,312,550,238,312,1,43.011,14,damping
1780597314.0646899,5.043368800004828,5282,0.036621,-0.031006,1.057617,1.206107,3.160305,-1.816794,1.058705,3.839657,314,553,239,314,0,43.011,10,damping
1780597314.0947964,5.073475400000461,5313,0.057373,-0.040771,1.059814,1.29771,3.435115,-1.854962,1.062149,4.113994,315,556,241,315,1,43.011,13,damping
1780597314.1259701,5.104649000000791,5343,0.051758,-0.017822,1.062256,1.862595,2.717557,-1.396947,1.063665,3.578524,316,558,242,316,1,43.011,13,damping
1780597314.1568134,5.135492300003534,5374,0.02832,-0.034424,1.058838,1.839695,3.061069,-1.419847,1.059776,3.843252,318,561,243,318,0,43.011,10,damping
1780597314.186991,5.165669900001376,5405,0.042725,-0.015625,1.049805,1.78626,2.541985,-1.312977,1.05079,3.37288,319,564,245,319,1,43.165,14,damping
1780597314.2195442,5.198222999999416,5437,0.036133,-0.03418,1.053467,1.732824,2.961832,-1.343511,1.05464,3.685126,327,576,249,327,0,43.165,1,damping
1780597314.2505658,5.229244600006496,5468,0.045898,-0.016113,1.063232,1.801527,3.167939,-1.198473,1.064345,3.836362,328,578,250,328,0,43.165,10,damping
1780597314.2810283,5.259707300006994,5499,0.04248,-0.027832,1.050537,1.900763,3.206107,-1.251908,1.051764,3.931831,329,581,252,329,1,43.165,13,damping
1780597314.3340497,5.312728699995205,5530,0.050293,-0.00293,1.057129,1.412214,3.068702,-0.938931,1.058329,3.506119,331,584,253,331,0,43.165,9,damping
1780597314.3479364,5.326615400001174,5566,0.039551,-0.034424,1.062744,2.015267,2.503817,-1.526718,1.064037,3.558267,332,587,255,332,1,43.165,13,damping
1780597314.3787575,5.357436300007976,5597,0.042969,-0.021484,1.056885,1.175572,2.564885,-1.21374,1.057976,3.071445,334,590,256,334,0,43.165,10,damping
1780597314.410227,5.38890600000741,5628,0.052979,-0.038086,1.061035,1.78626,2.732824,-1.671756,1.063039,3.667945,335,592,257,335,0,43.165,10,damping
1780597314.441683,5.42036210000515,5659,0.061523,-0.037109,1.061035,2.053435,2.549618,-1.267176,1.063465,3.510396,336,595,259,336,1,66.929,14,damping
1780597314.4731607,5.451839800007292,5690,0.057373,-0.030762,1.053467,1.473282,3.709924,-1.053435,1.055476,4.128416,338,598,260,338,0,66.929,9,damping
1780597314.5038142,5.482493100003921,5721,0.058838,-0.04126,1.056641,1.458015,3.427481,-0.954198,1.059082,3.844987,339,600,261,339,0,66.929,10,damping
1780597314.5348718,5.513550699994084,5752,0.050781,-0.036865,1.058838,1.954198,3.877863,-0.801527,1.060696,4.415785,340,603,263,340,1,66.929,14,damping
1780597314.565959,5.544637800005148,5783,0.061279,-0.031494,1.057617,1.381679,3.137405,-1.717557,1.059859,3.834364,342,606,264,342,0,66.929,9,damping
1780597314.5962515,5.574930500006303,5814,0.049561,-0.039307,1.051758,1.70229,3.083969,-1.282443,1.053658,3.748776,343,609,266,343,1,66.929,13,damping
1780597314.6280334,5.606712399996468,5845,0.061523,-0.026367,1.061035,1.679389,3.099237,-1.526718,1.063144,3.841417,344,611,267,344,1,66.929,13,damping
1780597314.6584218,5.637100699997973,5876,0.04834,-0.016602,1.057861,1.763359,2.89313,-1.450382,1.059095,3.685545,346,614,268,346,0,66.929,9,damping
1780597314.6888216,5.667500499999733,5907,0.039062,-0.018066,1.056641,1.145038,2.908397,-1.694656,1.057517,3.555523,347,617,270,347,1,66.929,13,damping
1780597314.7197309,5.698409699994954,5938,0.025146,-0.029297,1.054199,0.80916,2.763359,-1.656489,1.054906,3.321874,349,620,271,349,0,46.595,10,damping
1780597314.7519114,5.730590299994219,5969,0.037598,-0.028564,1.056641,2.091603,2.648855,-1.389313,1.057695,3.649853,350,622,272,350,0,46.595,10,damping
1780597314.782501,5.76117990000057,6000,0.02417,-0.027832,1.054443,1.854962,2.625954,-1.473282,1.055087,3.536535,351,625,274,351,1,46.595,13,damping
1780597314.8134356,5.792114500000025,6031,0.056152,-0.032227,1.062744,1.839695,3.458015,-1.175572,1.064714,4.089538,353,628,275,353,0,46.595,9,damping
1780597314.844958,5.823636999994051,6062,0.043945,-0.037109,1.049805,1.91603,3.045802,-1.305344,1.051379,3.827793,354,630,276,354,0,46.595,9,damping
1780597314.8756952,5.854374200003804,6093,0.048828,-0.024658,1.064941,2.015267,3.480916,-1.290076,1.066345,4.224024,355,633,278,355,1,46.595,13,damping
1780597314.905899,5.884577899996657,6124,0.032959,-0.013428,1.047363,1.763359,3.19084,-1.053435,1.047968,3.794814,357,636,279,357,0,46.595,9,damping
1780597314.9370236,5.915702600002987,6155,0.047607,-0.034424,1.060303,2.152672,3.625954,-1.274809,1.061929,4.405301,358,638,280,358,0,46.595,10,damping
1780597314.9695911,5.948270099994261,6186,0.053467,-0.017334,1.063721,1.709924,4.61832,-0.832061,1.065205,4.994502,359,641,282,359,1,46.595,13,damping
1780597314.9987369,5.9774157000065316,6217,0.029541,-0.020264,1.061035,0.946565,3.496183,-1.679389,1.06164,3.992447,361,644,283,361,0,43.011,9,damping
1780597315.0304751,6.00915410000016,6248,0.034424,-0.037598,1.041016,1.442748,2.992366,-1.633588,1.042263,3.701944,362,647,285,362,1,43.011,14,damping
1780597315.060729,6.039407999996911,6279,0.038086,-0.018799,1.062012,1.099237,3.022901,-1.480916,1.062861,3.541096,363,649,286,363,1,43.011,13,damping
1780597315.0931337,6.071812599999248,6310,0.041992,-0.026367,1.063965,1.709924,2.748092,-1.389313,1.06512,3.522221,365,652,287,365,0,43.011,10,damping
1780597315.1239166,6.102595600008499,6342,0.042725,-0.033203,1.057861,1.732824,3.083969,-1.053435,1.059244,3.690972,366,655,289,366,1,43.011,14,damping
1780597315.1557696,6.134448500000872,6373,0.043701,-0.036377,1.045898,1.793893,2.251908,-1.152672,1.047443,3.101257,368,658,290,368,0,43.011,9,damping
1780597315.1856172,6.164296100003412,6404,0.057129,-0.032959,1.049561,2.152672,2.351145,-1.29771,1.051631,3.441792,369,660,291,369,0,43.011,9,damping
1780597315.2157037,6.194382600006065,6434,0.035156,-0.043945,1.052734,2.648855,2.89313,-1.618321,1.054238,4.2433,370,663,293,370,1,43.011,13,damping
1780597315.24838,6.2270588999963365,6465,0.058838,-0.025635,1.060303,1.450382,3.465649,-1.114504,1.062243,3.91873,372,666,294,372,0,43.011,10,damping
1780597315.2788239,6.257502799999202,6496,0.045166,-0.04126,1.061768,2.015267,3.015267,-1.091603,1.063528,3.787444,373,668,295,373,0,43.011,9,damping
1780597315.3093708,6.288049700000556,6527,0.045654,-0.039307,1.052246,2.137405,3.465649,-1.312977,1.053969,4.278216,374,671,297,374,1,43.011,13,damping
1780597315.3532057,6.331884600003832,6558,0.053223,-0.031982,1.06665,2.236641,4.0229,-1.007634,1.068456,4.711859,376,674,298,376,0,43.011,10,damping
1780597315.3717933,6.3504721000063,6589,0.036865,-0.026123,1.060791,2.122137,3.068702,-1.328244,1.061753,3.960383,377,677,300,377,1,43.011,13,damping
1780597315.4028053,6.381484300000011,6620,0.040283,-0.024414,1.057861,1.396947,3.709924,-1.145038,1.058909,4.12627,378,679,301,378,1,43.011,13,damping
1780597315.4337597,6.412438600003952,6651,0.03125,-0.014893,1.05835,1.381679,3.580153,-1.114504,1.058916,3.99608,380,682,302,380,0,43.011,9,damping
1780597315.4649804,6.443659199998365,6682,0.039062,-0.026855,1.05542,1.381679,2.961832,-0.877863,1.056484,3.3841,381,685,304,381,1,43.011,13,damping
1780597315.497407,6.476085899994359,6714,0.047363,-0.025879,1.060791,0.984733,3.099237,-1.335878,1.062163,3.515613,391,696,305,391,0,43.011,1,damping
1780597315.5257418,6.504420800003572,6745,0.039795,-0.029053,1.0625,1.221374,3.007634,-1.145038,1.063642,3.442198,392,698,306,392,0,43.011,9,damping
1780597315.5587862,6.537465200002771,6775,0.0271,-0.025635,1.071777,1.236641,3.870229,-1.022901,1.072426,4.189782,393,701,308,393,1,71.685,13,damping
1780597315.5885653,6.567244300007587,6806,0.032715,-0.020508,1.055908,1.427481,3.908397,-0.755725,1.056614,4.228994,397,706,309,397,0,71.685,9,damping
1780597315.6190374,6.597716400006902,6837,0.044189,-0.028564,1.061035,2.824427,3.236641,-1.10687,1.062339,4.436034,398,708,310,398,0,71.685,9,damping
1780597315.6500504,6.628729400006705,6868,0.042725,-0.023682,1.0625,0.900763,4.152672,-0.877863,1.063622,4.338974,399,711,312,399,1,71.685,14,damping
1780597315.6808984,6.659577300000819,6898,0.062256,-0.020508,1.057373,1.946565,3.351145,-1.358779,1.059403,4.106771,401,714,313,401,0,71.685,9,damping
1780597315.7120397,6.690718600002583,6929,0.055176,-0.045166,1.067627,1.664122,3.366412,-0.984733,1.070005,3.882233,402,716,314,402,0,71.685,10,damping
1780597315.7413878,6.720066800000495,6960,0.040771,-0.012451,1.065918,1.816794,3.389313,-1.0,1.06677,3.973435,403,719,316,403,1,71.685,13,damping
1780597315.7718427,6.750521599999047,6990,0.05957,-0.033447,1.065674,2.045802,2.954198,-1.068702,1.067861,3.748962,405,722,317,405,0,71.685,9,damping
1780597315.8038924,6.782571200004895,7021,0.056396,-0.016602,1.072998,1.679389,3.160305,-1.435114,1.074607,3.855831,406,725,319,406,1,71.685,14,damping
1780597315.8344712,6.813150100002531,7052,0.033447,-0.026855,1.06665,1.656489,2.946565,-0.992366,1.067512,3.522924,407,727,320,407,1,50.542,13,damping
1780597315.866151,6.844830000001821,7083,0.046387,-0.014893,1.060303,1.160305,2.900763,-0.832061,1.061421,3.23312,409,730,321,409,0,50.542,9,damping
1780597315.897388,6.876067000004696,7114,0.034668,-0.031738,1.056641,1.992366,2.557252,-1.236641,1.057686,3.469632,410,733,323,410,1,50.542,13,damping
1780597315.9277797,6.906458600002225,7145,0.029297,0.00293,1.054443,0.442748,3.267176,-1.19084,1.054854,3.505505,412,736,324,412,0,50.542,9,damping
1780597315.9577508,6.936429800000042,7176,0.020508,-0.023682,1.064941,0.557252,3.083969,-1.137405,1.065402,3.33393,413,738,325,413,0,50.542,9,damping
1780597315.9895928,6.968271799996728,7207,0.03833,-0.019043,1.053467,3.206107,2.755725,-1.419847,1.054336,4.45972,414,741,327,414,1,50.542,13,damping
1780597316.0197434,6.998422400007257,7238,0.044678,-0.014648,1.057129,0.877863,3.641221,-0.847328,1.058174,3.840195,417,746,329,417,0,50.542,1,damping
1780597316.0523155,7.030994500004454,7269,0.046387,-0.023682,1.055664,1.061069,3.282443,-1.656489,1.056948,3.826781,418,749,331,418,1,50.542,13,damping
1780597316.0831707,7.061849699995946,7301,0.032715,-0.018555,1.048584,3.396947,2.839695,-1.274809,1.049258,4.607413,419,751,332,419,1,50.542,13,damping
1780597316.114003,7.092682000002242,7332,0.037842,-0.014893,1.061035,0.534351,3.282443,-1.076336,1.061814,3.495492,421,754,333,421,0,50.0,10,damping
1780597316.145551,7.124230000001262,7363,0.029541,-0.037598,1.052734,2.351145,2.618321,-1.061069,1.05382,3.675507,422,757,335,422,1,50.0,14,damping
1780597316.1837304,7.162409399999888,7394,0.040039,-0.023682,1.047363,2.664122,3.076336,-0.908397,1.048396,4.169721,424,760,336,424,0,50.0,9,damping
1780597316.2068753,7.1855541999975685,7425,0.024902,-0.030273,1.051758,0.603053,3.328244,-0.725191,1.052488,3.459304,425,762,337,425,0,50.0,10,damping
1780597316.238022,7.216700999997556,7456,0.036621,-0.018555,1.061279,2.251908,3.328244,-1.435114,1.062073,4.267066,426,765,339,426,1,50.0,13,damping
1780597316.268519,7.247197899996536,7487,0.031982,-0.021484,1.062744,1.732824,3.251908,-0.732824,1.063442,3.756943,428,768,340,428,0,50.0,9,damping
1780597316.3012524,7.279931199998828,7519,0.045898,-0.036865,1.06543,0.908397,3.053435,-0.770992,1.067055,3.277664,429,771,342,429,1,50.0,14,damping
1780597316.3320298,7.310708699995303,7550,0.0354,-0.02124,1.052734,2.015267,3.122137,-1.541985,1.053544,4.023277,431,774,343,431,0,50.0,8,damping
1780597316.3640854,7.342764300003182,7581,0.022949,-0.02124,1.057129,1.152672,2.969466,-1.068702,1.057591,3.359837,432,776,344,432,0,50.0,8,damping
1780597316.3942935,7.372972400000435,7612,0.027832,-0.031494,1.056885,1.442748,2.412214,-1.564886,1.05772,3.217012,434,781,347,434,1,46.429,13,damping
1780597316.4238243,7.402503200006322,7643,0.028564,-0.033691,1.055664,2.229008,2.450382,-1.0,1.056588,3.46018,440,790,350,440,0,46.429,1,damping
1780597316.4552913,7.433970199999749,7673,0.039795,-0.018799,1.062012,0.931298,2.954198,-0.938931,1.062923,3.236695,441,792,351,441,0,46.429,7,damping
1780597316.486557,7.465236000003642,7704,0.054932,-0.036377,1.064453,2.549618,2.977099,-0.839695,1.06649,4.008586,442,795,353,442,1,46.429,15,damping
1780597316.517314,7.49599290000333,7735,0.041748,-0.012939,1.04126,0.129771,3.549618,-1.19084,1.042177,3.746296,444,798,354,444,0,46.429,8,damping
1780597316.548188,7.526866900007008,7766,0.030762,-0.019531,1.056152,1.08397,3.022901,-1.290076,1.056781,3.460811,446,802,356,446,0,46.429,1,damping
1780597316.5802548,7.558933699998306,7797,0.047363,-0.013184,1.049316,1.687023,2.732824,-1.10687,1.050468,3.396989,450,808,358,450,0,46.429,8,damping
1780597316.6108966,7.58957549999468,7829,0.052246,-0.014893,1.065186,0.755725,2.870229,-1.419847,1.06657,3.290182,454,814,360,454,0,46.429,1,damping
1780597316.641499,7.620177899996634,7859,0.04248,-0.022461,1.058594,2.251908,2.709924,-1.389313,1.059684,3.787475,455,817,362,455,1,46.429,15,damping
1780597316.673987,7.652665900008287,7891,0.036621,-0.021729,1.055908,1.053435,2.916031,-1.648855,1.056766,3.51165,465,828,363,465,0,111.111,1,damping
1780597316.7063782,7.685057199996663,7923,0.033447,-0.026855,1.057861,1.91603,3.145038,-1.152672,1.058731,3.858898,466,830,364,466,0,111.111,8,damping
1780597316.7372627,7.715941600006772,7954,0.038574,-0.027832,1.055908,2.381679,3.358779,-1.061069,1.056979,4.252018,469,835,366,469,1,111.111,13,damping
1780597316.7681856,7.746864500004449,7985,0.056152,-0.020996,1.055176,2.007634,3.763359,-1.206107,1.056877,4.432624,474,842,368,474,0,111.111,0,damping
1780597316.7986817,7.777360599997337,8016,0.059326,-0.043457,1.047852,1.251908,3.450382,-1.022901,1.050429,3.810346,476,847,371,476,1,111.111,13,damping
1780597316.8297966,7.808475500001805,8047,0.05542,-0.031006,1.065674,1.969466,2.885496,-0.885496,1.067564,3.604024,478,850,372,478,0,111.111,7,damping
1780597316.861581,7.840260099997977,8079,0.033447,-0.02124,1.069824,1.725191,3.091603,-1.030534,1.070558,3.687315,479,852,373,479,0,111.111,8,damping
1780597316.893188,7.871866900008172,8110,0.037598,-0.040771,1.056396,3.015267,3.083969,-1.167939,1.057851,4.468421,480,855,375,480,1,111.111,16,damping
1780597316.9240997,7.902778699994087,8141,0.038818,-0.02002,1.049561,1.717557,2.717557,-1.10687,1.050469,3.400041,484,860,376,484,0,76.0,7,damping
1780597316.954338,7.933017100003781,8172,0.040283,-0.02832,1.055908,1.312977,3.083969,-1.259542,1.057056,3.580673,486,864,378,486,0,76.0,0,damping
1780597316.984988,7.963666900002863,8203,0.05835,-0.015381,1.046387,2.969466,2.557252,-1.473282,1.048125,4.186624,489,868,379,489,0,76.0,7,damping
1780597317.0156286,7.9943074000038905,8234,0.052979,-0.031494,1.055176,0.801527,2.305344,-1.435114,1.056974,2.831361,490,870,380,490,0,76.0,7,damping
1780597317.0476556,8.026334599999245,8266,0.038574,-0.015137,1.052978,1.419847,2.832061,-1.412214,1.053794,3.468556,491,874,383,491,1,76.0,0,damping
1780597317.0784109,8.05708980000054,8297,0.047607,-0.008545,1.061035,2.29771,3.030534,-0.816794,1.062137,3.889828,497,881,384,497,0,76.0,0,damping
1780597317.1097898,8.08846889999404,8327,0.010498,-0.02417,1.059814,1.519084,2.358779,-0.908397,1.060142,2.949006,499,885,386,499,0,76.0,0,damping
1780597317.1398249,8.118503699995927,8358,0.02002,-0.014648,1.049805,2.564885,3.198473,-1.221374,1.050098,4.277922,501,890,389,501,1,76.0,13,damping
1780597317.1716046,8.150283599999966,8389,0.026367,-0.022705,1.046631,2.938931,3.435115,-1.08397,1.047209,4.648905,503,893,390,503,0,76.0,6,damping
1780597317.2029037,8.181582599994726,8420,0.045166,-0.040527,1.052246,1.977099,3.236641,-1.221374,1.053994,3.984536,504,895,391,504,0,71.685,7,damping
1780597317.2345629,8.213241899997229,8451,0.059082,-0.021729,1.063232,2.206107,3.916031,-0.648855,1.065094,4.54128,507,899,392,507,0,71.685,7,damping
1780597317.2778258,8.256504799996037,8483,0.046143,-0.015381,1.055908,1.572519,3.603053,-0.648855,1.057028,3.984448,510,903,393,510,0,71.685,6,damping
1780597317.2964807,8.275159600001643,8514,0.048096,-0.010498,1.057129,1.305344,2.442748,-0.816794,1.058274,2.887575,511,906,395,511,1,71.685,16,damping
1780597317.3258748,8.304553800000576,8545,0.023926,-0.005859,1.050293,2.259542,2.580153,-0.580153,1.050582,3.478404,515,911,396,515,0,71.685,7,damping
1780597317.357351,8.336030000005849,8575,0.033203,-0.011475,1.058106,1.870229,2.709924,-0.824427,1.058688,3.394278,516,913,397,516,0,71.685,7,damping
1780597317.3881125,8.366791499996907,8606,0.034912,-0.023193,1.053467,1.91603,2.450382,-1.236641,1.0543,3.347361,517,916,399,517,1,71.685,16,damping
1780597317.4187555,8.397434500002419,8637,0.031494,-0.021729,1.054199,1.778626,3.091603,-0.854962,1.054893,3.667762,520,921,401,520,0,71.685,0,damping
1780597317.4506109,8.429289699997753,8668,0.03833,-0.041748,1.052734,2.259542,2.732824,-1.229008,1.054259,3.752908,521,923,402,521,0,71.685,7,damping
1780597317.4831352,8.461814199996297,8699,0.05127,-0.026855,1.058838,2.343511,3.923664,-0.954198,1.060418,4.668798,524,927,403,524,0,71.685,7,damping
1780597317.5129812,8.491660200001206,8731,0.047363,-0.012451,1.061035,1.519084,2.648855,-0.870229,1.062165,3.175114,525,929,404,525,0,71.685,6,damping
1780597317.5445976,8.523276599997189,8762,0.019287,-0.021729,1.055908,1.900763,2.877863,-0.763359,1.056308,3.53238,526,932,406,526,1,71.685,16,damping
1780597317.5750983,8.553777199995238,8793,0.017822,0.006836,1.049316,1.381679,2.435115,-1.053435,1.04949,2.991412,528,935,407,528,0,71.685,7,damping
1780597317.605279,8.583957800001372,8823,0.036133,-0.020996,1.0625,1.725191,2.473282,-1.022901,1.063322,3.184295,530,939,409,530,0,71.685,0,damping
1780597317.637294,8.615973100007977,8854,0.031982,-0.025879,1.05957,2.045802,2.618321,-0.969466,1.060369,3.461325,531,942,411,531,1,71.685,16,damping
1780597317.6661665,8.644845400005579,8885,0.0271,-0.005127,1.051514,0.969466,3.519084,-1.435114,1.051875,3.922164,533,945,412,533,0,71.685,7,damping
1780597317.6988907,8.677569699997548,8916,0.039795,-0.038818,1.060059,2.007634,2.931298,-0.938931,1.061515,3.674873,534,947,413,534,0,71.685,7,damping
1780597317.7286837,8.707362700006342,8947,0.043945,-0.025879,1.04834,2.0,2.89313,-0.610687,1.04958,3.569754,537,951,414,537,0,71.685,7,damping
1780597317.7607198,8.739398599995184,8978,0.042969,-0.029053,1.066162,1.374046,3.48855,-0.740458,1.067423,3.821814,538,953,415,538,0,50.179,8,damping
1780597317.7913868,8.770065899996553,9009,0.057617,-0.012695,1.054688,1.770992,2.740458,-1.198473,1.056336,3.476041,540,958,418,540,1,50.179,13,damping
1780597317.8236973,8.802376200008439,9040,0.023682,-0.029053,1.047852,1.59542,2.770992,-0.870229,1.048522,3.313768,546,965,419,546,0,50.179,0,damping
1780597317.8545167,8.83319570000458,9072,0.0271,-0.031006,1.055908,1.267176,3.206107,-1.221374,1.056711,3.657405,547,967,420,547,0,50.179,8,damping
1780597317.886096,8.864774999994552,9103,0.056152,-0.023193,1.05957,1.801527,3.503817,-1.40458,1.061311,4.182712,548,970,422,548,1,50.179,16,damping
1780597317.9157856,8.89446450000105,9134,0.06543,-0.032471,1.056396,0.984733,2.618321,-1.076336,1.058919,2.997299,550,973,423,550,0,50.179,7,damping
1780597317.9478703,8.92654919999768,9165,0.04126,-0.025635,1.04834,1.030534,2.969466,-0.59542,1.049465,3.199102,551,975,424,551,0,50.179,6,damping
1780597317.9776864,8.956365300007747,9196,0.055908,-0.025635,1.05127,1.961832,2.946565,-1.48855,1.053067,3.840158,555,981,426,555,0,50.179,8,damping
1780597318.009318,8.987997000003816,9227,0.033936,-0.028809,1.063721,1.129771,3.687023,-0.557252,1.064652,3.896287,558,985,427,558,0,50.179,7,damping
1780597318.0404751,9.019154099994921,9258,0.019043,-0.022949,1.040527,2.770992,3.038168,-0.916031,1.040955,4.212834,559,988,429,559,1,75.0,16,damping
1780597318.0704381,9.049117000002298,9289,0.036133,0.001221,1.063477,2.244275,2.480916,-0.969466,1.064091,3.483041,561,991,430,561,0,75.0,6,damping
1780597318.1006634,9.079342400000314,9319,0.027344,-0.003418,1.070801,0.389313,2.427481,-1.10687,1.071155,2.69618,562,993,431,562,0,75.0,7,damping
1780597318.1320689,9.110747900005663,9349,0.039062,-0.041992,1.040039,2.541985,2.534351,-1.21374,1.041619,3.789167,563,996,433,563,1,75.0,16,damping
1780597318.1615062,9.140184999996563,9380,0.021729,-0.005127,1.056396,2.045802,3.21374,-0.679389,1.056632,3.869755,567,1001,434,567,0,75.0,7,damping
1780597318.1932735,9.171952599994256,9411,0.032959,-0.020508,1.042236,1.0,3.229008,-0.870229,1.042959,3.490528,568,1003,435,568,0,75.0,7,damping
1780597318.2239294,9.202608299994608,9441,0.032471,-0.025635,1.05249,2.648855,3.351145,-1.068702,1.053303,4.403264,570,1006,436,570,1,75.0,15,damping
1780597318.2573855,9.236064500000793,9472,0.027588,-0.019531,1.062988,2.007634,2.992366,-0.832061,1.063526,3.698266,572,1009,437,572,0,75.0,7,damping
1780597318.2847452,9.26342420000583,9503,0.036865,-0.031494,1.054199,2.374046,3.435115,-0.580153,1.055314,4.215766,573,1012,439,573,1,75.0,16,damping
1780597318.3169067,9.295585700005176,9534,0.036377,-0.029297,1.050293,1.183206,2.496183,-0.793893,1.051331,2.874226,576,1017,441,576,0,61.594,0,damping
1780597318.3486419,9.32732080000278,9566,0.020752,-0.033936,1.057129,-0.129771,2.862595,-0.709924,1.057877,2.952166,577,1019,442,577,0,61.594,7,damping
1780597318.3791745,9.357853399997111,9597,0.031982,-0.014404,1.046387,1.824428,3.328244,-1.022901,1.046974,3.930912,578,1022,444,578,1,61.594,16,damping
1780597318.4099576,9.388636500007124,9628,0.033447,0.000244,1.053223,1.053435,3.343511,-0.824427,1.053754,3.601177,580,1025,445,580,0,61.594,6,damping
1780597318.4411278,9.419806699996116,9659,0.051025,-0.024658,1.059326,1.824428,2.59542,-1.19084,1.060841,3.388634,581,1027,446,581,0,61.594,7,damping
1780597318.4734707,9.4521495999943,9690,0.047607,-0.027832,1.057617,2.312977,2.48855,-1.137405,1.059054,3.582796,584,1031,447,584,0,61.594,7,damping
1780597318.5039434,9.482622499999707,9722,0.030518,-0.033447,1.063232,1.442748,3.198473,-0.435114,1.064196,3.535686,586,1035,449,586,0,61.594,0,damping
1780597318.5359526,9.514631400001235,9753,0.02124,-0.026611,1.04834,1.374046,2.954198,-0.89313,1.048893,3.378309,587,1038,451,587,1,61.594,16,damping
1780597318.5673995,9.546078400002443,9784,0.053223,-0.015625,1.05542,0.816794,3.068702,-1.10687,1.056877,3.362922,589,1041,452,589,0,52.0,6,damping
1780597318.598119,9.576797999994596,9815,0.05542,-0.030762,1.049561,2.267176,2.862595,-0.954198,1.051473,3.774259,590,1043,453,590,0,52.0,6,damping
1780597318.6288133,9.607492099996307,9846,0.055664,-0.034424,1.068359,2.587786,2.89313,-0.770992,1.070362,3.957432,592,1046,454,592,0,52.0,15,damping
1780597318.6592233,9.637902200003737,9877,0.024658,-0.026123,1.049561,1.709924,3.374046,-0.89313,1.050175,3.886606,594,1049,455,594,0,52.0,6,damping
1780597318.6909692,9.669648199997027,9908,0.04541,-0.017334,1.053711,2.412214,3.053435,-0.694656,1.054831,3.95282,596,1054,458,596,1,52.0,13,damping
1780597318.7216103,9.700289300002623,9939,0.030762,-0.026367,1.048828,1.694656,2.778626,-0.854962,1.04961,3.365053,598,1057,459,598,0,52.0,7,damping
1780597318.7523978,9.731076700001722,9970,0.036133,-0.028809,1.058106,1.641221,2.038168,-0.656489,1.059114,2.697909,599,1059,460,599,0,52.0,6,damping
1780597318.7838864,9.762565299999551,10001,0.039307,-0.031982,1.054688,1.832061,3.091603,-0.648855,1.055904,3.651776,600,1062,462,600,1,52.0,17,damping
1780597318.814755,9.793434000006528,10032,0.04126,-0.004395,1.054932,1.259542,3.129771,-1.274809,1.055747,3.606529,602,1065,463,602,0,52.0,6,damping
1780597318.8464189,9.8250979000004,10063,0.04126,-0.018311,1.055908,2.244275,3.145038,-0.900763,1.056873,3.967292,603,1067,464,603,0,50.179,6,damping
1780597318.8781426,9.85682149999775,10095,0.051514,-0.031738,1.058838,1.389313,2.816794,-0.679389,1.060565,3.213423,606,1073,467,606,0,50.179,6,damping
1780597318.908475,9.887153799994849,10126,0.043701,-0.0354,1.05542,1.015267,2.816794,-0.839695,1.056917,3.109692,609,1077,468,609,0,50.179,6,damping
1780597318.9393783,9.918057100003352,10157,0.018799,-0.032471,1.043213,1.923664,2.251908,-0.748092,1.043887,3.054704,610,1080,470,610,1,50.179,16,damping
1780597318.9703631,9.949042000007466,10188,0.034668,-0.019775,1.053467,1.122137,2.824427,-0.854962,1.054222,3.157142,612,1083,471,612,0,50.179,6,damping
1780597319.0015671,9.980246000006446,10219,0.060059,-0.032227,1.043213,1.694656,3.366412,-0.793893,1.045437,3.851605,613,1085,472,613,0,50.179,6,damping
1780597319.0319958,10.010674699995434,10250,0.14502,-0.026367,0.966309,2.793893,4.938932,-0.923664,0.977486,5.74909,616,1089,473,616,0,50.179,6,damping
1780597319.0640619,10.042740799995954,10281,0.063721,-0.083008,1.047852,1.40458,4.099236,-0.732824,1.053064,4.394726,618,1093,475,618,0,50.179,0,damping
1780597319.0945582,10.073237100004917,10312,0.046387,-0.033691,1.047119,2.053435,2.946565,-1.114504,1.048687,3.760447,620,1098,478,620,1,50.179,13,damping
1780597319.124939,10.10361780000676,10343,0.01416,-0.002197,1.033203,1.885496,2.603053,-1.015267,1.033302,3.37072,624,1103,479,624,0,75.0,6,damping
1780597319.1573188,10.135997799996403,10374,0.027832,-0.02002,1.057129,1.793893,2.770992,-0.954198,1.057685,3.436124,625,1105,480,625,0,75.0,6,damping
1780597319.1877863,10.166465400005109,10405,0.05835,-0.025879,1.050537,2.473282,3.236641,-0.732824,1.052474,4.13884,626,1108,482,626,1,75.0,17,damping
1780597319.21893,10.19760889999452,10436,0.051758,-0.041748,1.059814,1.969466,3.251908,-0.961832,1.061898,3.921584,628,1111,483,628,0,75.0,6,damping
1780597319.2609365,10.23961540000164,10468,0.029785,-0.040283,1.063232,1.366412,3.022901,-0.717557,1.064412,3.394098,630,1115,485,630,0,75.0,0,damping
1780597319.281483,10.260161900005187,10499,0.039062,-0.023682,1.018066,1.312977,2.358779,-0.70229,1.019091,2.789437,635,1121,486,635,0,75.0,6,damping
1780597319.312639,10.291317900002468,10530,0.056396,-0.035889,1.12915,2.351145,2.984733,-0.732824,1.131127,3.869566,638,1125,487,638,0,75.0,6,damping
1780597319.3439746,10.322653600000194,10561,0.034668,-0.033936,1.086426,1.725191,2.358779,-0.824427,1.087508,3.036413,639,1128,489,639,1,75.0,17,damping
1780597319.3752308,10.353909800003748,10592,0.040039,-0.010254,1.042236,1.045802,3.145038,-0.870229,1.043056,3.426699,641,1131,490,641,0,75.0,6,damping
1780597319.4058003,10.384479200001806,10624,0.044434,-0.020264,1.046143,2.183206,2.923664,-0.679389,1.047282,3.711572,642,1133,491,642,0,64.057,6,damping
1780597319.4376028,10.416281600002549,10655,0.056396,-0.013184,1.052978,1.549618,3.251908,-0.961832,1.05457,3.728451,646,1139,493,646,0,64.057,6,damping
1780597319.4691672,10.44784609999624,10686,0.048584,-0.016602,1.057373,1.183206,2.671756,-0.770992,1.058619,3.022033,650,1145,495,650,0,64.057,0,damping
1780597319.4996383,10.478317300003255,10717,0.03125,-0.030029,1.038574,2.175573,2.709924,-0.725191,1.039478,3.550029,651,1148,497,651,1,64.057,16,damping
1780597319.5303895,10.509068600003957,10748,0.029053,-0.003906,1.05957,2.038168,2.648855,-0.832061,1.059976,3.444254,653,1151,498,653,0,64.057,7,damping
1780597319.560206,10.538884800000233,10778,0.0625,-0.02417,1.071045,1.145038,2.877863,-0.854962,1.073139,3.213124,654,1153,499,654,0,64.057,6,damping
1780597319.5905294,10.569208400003845,10808,0.047363,-0.034912,1.049805,1.793893,2.656489,-1.099237,1.051452,3.388703,655,1156,501,655,1,64.057,16,damping
1780597319.6215298,10.600208699994255,10839,0.056641,-0.028076,1.065918,1.961832,2.694656,-1.19084,1.067791,3.5395,660,1163,503,660,0,64.057,1,damping
1780597319.6528788,10.631557700005942,10870,0.04834,-0.017578,1.055176,1.610687,2.732824,-0.908397,1.056429,3.299671,662,1167,505,662,0,64.057,0,damping
1780597319.6846285,10.663307499999064,10901,0.049561,-0.02002,1.048584,1.793893,3.427481,-0.541985,1.049945,3.906332,665,1171,506,665,0,83.032,6,damping
1780597319.7155685,10.694247599996743,10933,0.047607,-0.01123,1.061768,1.694656,2.862595,-0.847328,1.062894,3.432824,666,1173,507,666,0,83.032,6,damping
1780597319.7469208,10.725599800003693,10964,0.047607,-0.020264,1.055908,1.648855,2.343511,-1.007634,1.057175,3.037448,667,1176,509,667,1,83.032,16,damping
1780597319.7770727,10.755751699995017,10995,0.034912,-0.01001,1.060303,1.396947,2.137405,-1.091603,1.060924,2.776969,669,1179,510,669,0,83.032,6,damping
1780597319.8088868,10.787565599996014,11026,0.01416,-0.026367,1.061768,1.709924,2.977099,-1.053435,1.062189,3.591195,670,1181,511,670,0,83.032,6,damping
1780597319.841076,10.819754900003318,11058,0.063721,-0.03418,1.060303,2.541985,3.061069,-0.938931,1.062766,4.088205,673,1185,512,673,0,83.032,6,damping
1780597319.8731935,10.851872500003083,11090,0.030273,-0.019775,1.056152,1.679389,2.954198,-0.625954,1.056771,3.455352,674,1187,513,674,0,83.032,6,damping
1780597319.9045203,10.883199100004276,11121,0.036865,-0.019531,1.057373,1.664122,2.916031,-0.694656,1.058196,3.428569,675,1190,515,675,1,83.032,16,damping
1780597319.9358342,10.914513099996839,11153,0.029297,-0.029053,1.051758,1.625954,2.793893,-1.030534,1.052567,3.39287,677,1193,516,677,0,47.619,6,damping
1780597319.9708054,10.949484299999312,11184,0.010254,-0.025635,1.051514,1.70229,2.854962,-1.0,1.051876,3.471109,679,1197,518,679,0,47.619,1,damping
1780597320.0023327,10.981011600000784,11219,0.039307,-0.030762,1.054199,1.717557,2.129771,-1.274809,1.05538,3.018454,682,1201,519,682,0,47.619,6,damping
1780597320.032473,11.011152100007166,11250,0.039062,-0.021729,1.057129,1.671756,2.732824,-0.80916,1.058074,3.304215,683,1203,520,683,0,47.619,6,damping
1780597320.0640562,11.042735199996969,11281,0.041016,-0.014404,1.04541,2.236641,2.977099,-1.251908,1.046314,3.92848,684,1206,522,684,1,47.619,17,damping
1780597320.0941725,11.072851500008255,11312,0.044922,-0.011719,1.060791,1.687023,3.167939,-1.145038,1.061806,3.767359,686,1209,523,686,0,47.619,6,damping
1780597320.1255436,11.104222599999048,11343,0.058838,-0.024658,1.061523,1.961832,2.977099,-1.435114,1.063439,3.843366,687,1211,524,687,0,47.619,6,damping
1780597320.1554697,11.134148500001174,11374,0.053955,-0.016113,1.061768,1.70229,3.381679,-1.10687,1.06326,3.944453,691,1217,526,691,0,47.619,7,damping
1780597320.1875443,11.166223399995943,11405,0.034668,-0.003662,1.051025,1.374046,2.862595,-0.717557,1.051603,3.255356,695,1223,528,695,0,71.429,0,damping
1780597320.2188022,11.197481199997128,11436,0.029785,-0.02417,1.051514,1.687023,2.70229,-0.824427,1.052213,3.290608,696,1226,530,696,1,71.429,17,damping
1780597320.2490528,11.227731799997855,11467,0.018311,0.0,1.053467,1.061069,2.801527,-0.793893,1.053626,3.099142,698,1229,531,698,0,71.429,6,damping
1780597320.2876027,11.26628160000837,11498,0.032959,-0.033447,1.05127,1.679389,2.793893,-1.206107,1.052318,3.475756,699,1231,532,699,0,71.429,6,damping
1780597320.3123755,11.291054400004214,11529,0.052246,-0.034668,1.053223,1.503817,3.419847,-1.015267,1.055087,3.87138,701,1234,533,701,1,71.429,16,damping
1780597320.3426971,11.32137619999412,11560,0.056152,-0.027344,1.052978,1.450382,3.152672,-1.145038,1.054829,3.654321,706,1241,535,706,0,71.429,0,damping
1780597320.376084,11.35476309999649,11592,0.032959,-0.031494,1.050049,2.801527,3.19084,-1.099237,1.051038,4.386152,707,1244,537,707,1,71.429,16,damping
1780597320.4058468,11.384525800007395,11623,0.04126,-0.012939,1.049316,1.671756,2.572519,-0.847328,1.050207,3.182858,709,1247,538,709,0,71.429,6,damping
1780597320.4369047,11.415583599999081,11654,0.062012,-0.022949,1.060547,1.022901,2.351145,-0.916031,1.062606,2.722741,710,1249,539,710,0,71.429,6,damping
1780597320.4678116,11.446490600006655,11685,0.054932,-0.041504,1.054932,3.068702,3.48855,-0.847328,1.057176,4.722804,711,1252,541,711,1,57.143,17,damping
1780597320.5000515,11.478730400005588,11716,0.056885,-0.011475,1.052978,0.748092,3.122137,-0.572519,1.054576,3.26116,714,1257,543,714,0,57.143,0,damping
1780597320.5290964,11.50777540000854,11747,0.028564,-0.020508,1.048584,1.030534,3.549618,-0.961832,1.049173,3.819282,715,1259,544,715,0,57.143,6,damping
1780597320.5605156,11.539194600001792,11778,0.03833,-0.028809,1.057861,1.91603,2.694656,-0.877863,1.058947,3.420963,718,1263,545,718,0,57.143,7,damping
1780597320.5928438,11.571522800004459,11810,0.045654,-0.029053,1.062988,1.442748,2.89313,-0.969466,1.064365,3.375142,721,1267,546,721,0,57.143,6,damping
1780597320.6231852,11.601864099997329,11841,0.03125,-0.038086,1.066406,2.984733,3.167939,-1.229008,1.067544,4.522712,722,1270,548,722,1,57.143,16,damping
1780597320.6546953,11.633374099998036,11872,0.026123,-0.019775,1.061523,0.954198,3.496183,-0.946565,1.062029,3.745634,724,1273,549,724,0,57.143,7,damping
1780597320.685996,11.664674900006503,11903,0.023926,-0.031494,1.060791,1.854962,2.961832,-1.251908,1.061528,3.712224,726,1277,551,726,0,57.143,1,damping
1780597320.7167099,11.69538879999891,11934,0.0354,-0.035645,1.06543,2.335878,3.648855,-1.343511,1.066613,4.536022,728,1280,552,728,1,57.143,14,damping
1780597320.7485147,11.727193700004136,11965,0.03833,-0.029785,1.052246,1.664122,3.335878,-1.068702,1.053365,3.878081,733,1287,554,733,0,78.571,1,damping
1780597320.7783678,11.757046600003378,11996,0.05249,-0.03833,1.064453,1.839695,3.145038,-1.312977,1.066436,3.872938,734,1290,556,734,1,78.571,15,damping
1780597320.8102586,11.788937599994824,12027,0.037842,-0.021973,1.053223,1.778626,2.870229,-0.916031,1.054131,3.498691,736,1293,557,736,0,78.571,7,damping
1780597320.841943,11.820621999999275,12058,0.03125,-0.029541,1.058106,1.931298,2.419847,-0.793893,1.058979,3.196222,737,1295,558,737,0,78.571,7,damping
1780597320.8706532,11.849332099998719,12089,0.035645,-0.033447,1.061523,1.770992,2.59542,-0.885496,1.062648,3.264464,739,1300,561,739,1,78.571,13,damping
1780597320.9031067,11.881785599995055,12120,0.027832,-0.026367,1.049072,1.427481,3.122137,-0.732824,1.049772,3.510338,744,1307,563,744,0,78.571,0,damping
1780597320.9336476,11.91232659999514,12151,0.027588,-0.022949,1.050293,1.885496,3.282443,-1.114504,1.050906,3.946092,746,1311,565,746,0,78.571,1,damping
1780597320.9648232,11.943502199996146,12182,0.060059,-0.024902,1.062012,2.083969,3.778626,-1.244275,1.064,4.491009,748,1314,566,748,1,78.571,14,damping
1780597320.9957912,11.974470100001781,12213,0.043457,-0.026367,1.065186,1.061069,3.267176,-1.480916,1.066398,3.740778,750,1317,567,750,0,78.571,7,damping
1780597321.0276842,12.006363100008457,12245,0.040039,-0.008301,1.055908,1.641221,2.770992,-1.137405,1.0567,3.415508,751,1320,569,751,1,64.286,15,damping
1780597321.058755,12.037433899997268,12276,0.038818,-0.027344,1.061279,2.061069,2.70229,-0.854962,1.062341,3.504474,756,1327,571,756,0,64.286,1,damping
1780597321.0911272,12.069806100000278,12307,0.0354,-0.014404,1.065918,1.396947,2.717557,-0.969466,1.066603,3.205689,758,1331,573,758,0,64.286,0,damping
1780597321.1205776,12.09925650000514,12338,0.04248,-0.033936,1.054688,1.900763,3.610687,-0.832061,1.056088,4.164407,760,1336,576,760,1,64.286,13,damping
1780597321.1519067,12.130585599996266,12369,0.04248,-0.010254,1.048584,1.89313,2.961832,-0.572519,1.049494,3.561484,762,1339,577,762,0,64.286,8,damping
1780597321.1832302,12.161909000002197,12400,0.044434,-0.032959,1.058106,1.755725,3.648855,-1.091603,1.059551,4.193842,763,1341,578,763,0,64.286,7,damping
1780597321.2137105,12.192389600008028,12431,0.069824,-0.009521,1.061523,2.603053,3.076336,-1.167939,1.06386,4.195689,765,1344,579,765,1,64.286,14,damping
1780597321.2450418,12.223720800000592,12462,0.048828,-0.036621,1.05835,1.580153,2.816794,-1.160305,1.060108,3.431839,770,1351,581,770,0,64.286,0,damping
1780597321.2776692,12.256348199996864,12493,0.053223,-0.032227,1.05957,1.320611,3.068702,-1.29771,1.061396,3.583992,772,1356,584,772,1,64.286,14,damping
1780597321.3085606,12.287239500001306,12525,0.032959,-0.014893,1.062744,2.396947,2.709924,-0.977099,1.063359,3.747501,782,1367,585,782,0,110.714,1,damping
1780597321.3385706,12.317249500003527,12556,0.036377,-0.037354,1.059814,1.961832,2.465649,-1.007634,1.061096,3.308102,783,1369,586,783,0,110.714,8,damping
1780597321.3697128,12.348391699997592,12587,0.049561,-0.012451,1.054932,1.80916,3.229008,-1.137405,1.056169,3.872111,784,1372,588,784,1,110.714,15,damping
1780597321.401671,12.380349900005967,12618,0.049072,-0.022705,1.057861,1.251908,3.282443,-1.045802,1.059242,3.665434,789,1379,590,789,0,110.714,0,damping
1780597321.433697,12.412375900006737,12650,0.032959,-0.03418,1.049072,1.687023,3.343511,-0.984733,1.050146,3.872314,791,1384,593,791,1,110.714,13,damping
1780597321.4660058,12.444684700007201,12682,0.046143,-0.030273,1.054199,1.534351,2.740458,-1.21374,1.055643,3.367122,803,1397,594,803,0,110.714,0,damping
1780597321.4972093,12.475888200002373,12714,0.035156,-0.025635,1.059814,2.671756,2.687023,-0.961832,1.060707,3.909411,804,1399,595,804,0,110.714,8,damping
1780597321.5274515,12.506130399997346,12745,0.047852,-0.028564,1.055176,1.610687,3.251908,-1.0,1.056646,3.764202,805,1402,597,805,1,110.714,15,damping
1780597321.5590606,12.53773939999519,12776,0.056152,-0.024902,1.059082,1.183206,3.603053,-1.022901,1.060862,3.927887,808,1407,599,808,0,103.586,1,damping
1780597321.5905023,12.569181099999696,12807,0.047852,-0.026367,1.063965,2.015267,3.274809,-1.114504,1.065367,4.003473,810,1411,601,810,0,103.586,0,damping
1780597321.62175,12.600429099999019,12838,0.055664,-0.02002,1.05249,1.694656,3.557252,-0.816794,1.054151,4.02406,815,1417,602,815,0,103.586,7,damping
1780597321.6533778,12.632056800008286,12870,0.018066,-0.025635,1.055664,1.48855,3.19084,-1.503817,1.05613,3.828668,818,1421,603,818,0,103.586,8,damping
1780597321.6854496,12.664128599994001,12902,0.060791,-0.040039,1.046387,1.854962,2.870229,-1.068702,1.048916,3.580674,819,1424,605,819,1,103.586,15,damping
1780597321.7156475,12.694326400000136,12933,0.05542,-0.017334,1.05249,1.022901,3.51145,-0.916031,1.054091,3.770374,821,1427,606,821,0,103.586,8,damping
1780597321.7465196,12.725198400003137,12964,0.053711,-0.033447,1.064941,2.282443,3.221374,-1.0,1.066819,4.072689,823,1431,608,823,0,103.586,0,damping
1780597321.7772262,12.755905099998927,12994,0.062256,-0.042725,1.060059,2.335878,3.480916,-1.091603,1.062744,4.331824,825,1436,611,825,1,103.586,14,damping
1780597321.8074656,12.786144400000921,13025,0.053223,-0.028076,1.052734,0.770992,3.862595,-0.526718,1.054453,3.973852,829,1441,612,829,0,103.586,8,damping
1780597321.8395112,12.818190200006939,13056,0.050781,-0.02832,1.052978,0.114504,3.389313,-1.137405,1.054583,3.576904,830,1444,614,830,1,78.571,16,damping
1780597321.8712304,12.849909199998365,13087,0.02002,-0.015869,1.057129,0.274809,2.458015,-1.312977,1.057438,2.800226,832,1447,615,832,0,78.571,8,damping
1780597321.902592,12.881270800004131,13119,0.038574,-0.031738,1.059326,0.916031,3.282443,-0.778626,1.060503,3.495684,833,1449,616,833,0,78.571,7,damping
1780597321.9326704,12.911349300004076,13150,0.037842,-0.036133,1.06543,1.900763,2.80916,-0.793893,1.066714,3.483468,835,1454,619,835,1,78.571,13,damping
1780597321.962645,12.941324100000202,13181,0.027588,-0.034912,1.0625,1.19084,3.40458,-0.832061,1.063431,3.701566,840,1461,621,840,0,78.571,1,damping
1780597321.9932544,12.971933299995726,13211,0.04541,-0.029053,1.05835,1.305344,3.0,-1.145038,1.059722,3.466271,841,1463,622,841,0,78.571,7,damping
1780597322.0240571,13.002735999994911,13241,0.049561,-0.023193,1.056152,2.770992,3.21374,-1.366412,1.057569,4.457982,842,1466,624,842,1,78.571,15,damping
1780597322.0547714,13.033450300004915,13272,0.046631,-0.002441,1.062988,1.167939,2.832061,-1.0,1.064013,3.222522,844,1469,625,844,0,78.571,7,damping
1780597322.0850804,13.06375939999998,13302,0.04126,-0.035889,1.056396,1.793893,3.099237,-1.137405,1.057811,3.757261,846,1473,627,846,0,78.571,1,damping
1780597322.1154494,13.094128400000045,13333,0.045166,-0.033936,1.056396,3.045802,3.244275,-1.0,1.057906,4.560946,849,1478,629,849,1,68.592,14,damping
1780597322.1473634,13.126042400006554,13363,0.06665,-0.031494,1.056885,1.549618,2.916031,-0.671756,1.059452,3.369838,854,1485,631,854,0,68.592,1,damping
1780597322.1755755,13.154254499997478,13394,0.061768,-0.027344,1.059814,1.564886,3.0,-1.099237,1.061965,3.557694,855,1487,632,855,0,68.592,7,damping
1780597322.206528,13.185206900001504,13424,0.064941,-0.017578,1.055908,2.458015,3.946565,-1.114504,1.058049,4.781144,858,1491,633,858,0,68.592,7,damping
1780597322.2384202,13.21709930000361,13456,0.050293,-0.007813,1.060791,1.007634,2.770992,-0.931298,1.062011,3.092093,859,1493,634,859,0,68.592,8,damping
1780597322.2698147,13.248493599996436,13487,0.037354,-0.025635,1.056396,1.70229,2.572519,-1.251908,1.057367,3.329102,861,1498,637,861,1,68.592,12,damping
1780597322.3000803,13.278759299995727,13517,0.037842,-0.008545,1.060303,1.862595,2.80916,-1.48855,1.061012,3.68462,866,1505,639,866,0,68.592,1,damping
1780597322.3302667,13.308945700002369,13548,0.033447,-0.008057,1.052734,1.618321,2.603053,-0.938931,1.053296,3.205689,868,1509,641,868,0,68.592,0,damping
1780597322.3616042,13.340283099998487,13579,0.049316,-0.041748,1.051758,2.557252,2.59542,-1.229008,1.053741,3.845283,869,1512,643,869,1,68.592,16,damping
1780597322.392328,13.371006999994279,13609,0.054199,-0.022705,1.059814,3.022901,3.099237,-0.633588,1.061442,4.375458,871,1515,644,871,0,79.71,7,damping
1780597322.4217978,13.400476700000581,13640,0.043213,-0.034424,1.057617,2.244275,2.70229,-0.755725,1.059059,3.593085,872,1517,645,872,0,79.71,7,damping
1780597322.4535437,13.432222600007663,13670,0.052246,-0.018311,1.062256,2.625954,2.671756,-1.366412,1.063697,3.987605,874,1522,648,874,1,79.71,13,damping
1780597322.4839587,13.462637699994957,13701,0.056152,-0.016357,1.059326,0.78626,3.259542,-0.946565,1.060939,3.484079,879,1529,650,879,0,79.71,1,damping
1780597322.5151365,13.493815499998163,13732,0.066162,-0.027344,1.064453,1.625954,3.435115,-0.89313,1.066858,3.904026,881,1533,652,881,0,79.71,0,damping
1780597322.546081,13.524760100001004,13763,0.066162,-0.016113,1.064697,1.89313,3.389313,-1.160305,1.066873,4.051875,884,1537,653,884,0,79.71,8,damping
1780597322.5771387,13.555817700005719,13794,0.039062,-0.007324,1.057617,1.236641,3.145038,-0.572519,1.058364,3.427583,885,1539,654,885,0,79.71,7,damping
1780597322.6081355,13.586814299997059,13825,0.041992,-0.004639,1.060547,1.40458,3.137405,-1.290076,1.061388,3.671573,886,1542,656,886,1,79.71,15,damping
1780597322.6394598,13.618138899997575,13856,0.040283,-0.007324,1.052978,1.625954,3.083969,-0.732824,1.053774,3.562531,891,1549,658,891,0,79.71,1,damping
1780597322.6702847,13.648963600004208,13887,0.024414,-0.017578,1.060547,1.725191,2.824427,-1.061069,1.060974,3.475563,893,1555,662,893,0,79.137,1,damping
1780597322.700953,13.679631999999401,13918,0.049072,-0.020996,1.062744,1.740458,3.374046,-1.175572,1.064084,3.974336,894,1558,664,894,1,79.137,15,damping
1780597322.730709,13.709388000002946,13949,0.041748,-0.004639,1.054688,1.038168,3.473282,-0.618321,1.055524,3.677472,896,1561,665,896,0,79.137,7,damping
1780597322.7634323,13.742111300001852,13980,0.043457,-0.034424,1.045654,1.931298,2.824427,-1.122137,1.047123,3.600902,897,1563,666,897,0,79.137,8,damping
1780597322.79367,13.772348900005454,14011,0.060303,-0.00708,1.049072,1.977099,3.129771,-1.381679,1.050828,3.951383,900,1568,668,900,1,79.137,12,damping
1780597322.8244195,13.803098400007002,14042,0.053223,-0.026611,1.062744,1.549618,2.78626,-1.114504,1.064409,3.377378,905,1575,670,905,0,79.137,0,damping
1780597322.855375,13.834054100007052,14073,0.052979,-0.026611,1.059326,1.778626,2.526718,-1.664122,1.060984,3.509575,907,1580,673,907,1,79.137,13,damping
1780597322.8880599,13.866738900003838,14105,0.023438,-0.004639,1.051514,1.442748,2.427481,-0.801527,1.051785,2.93541,917,1591,674,917,0,79.137,0,damping
1780597322.9189057,13.897584599995753,14136,0.041504,-0.036133,1.055664,1.221374,2.748092,-1.244275,1.057097,3.254532,918,1593,675,918,0,79.137,7,damping
1780597322.9506207,13.929299700001138,14167,0.04834,-0.011475,1.060791,1.137405,3.526718,-0.908397,1.061954,3.815313,919,1596,677,919,1,92.857,15,damping
1780597322.9811714,13.959850400002324,14198,0.044678,-0.006348,1.062988,0.656489,3.122137,-0.900763,1.063946,3.315131,924,1603,679,924,0,92.857,0,damping
1780597323.0127664,13.991445399995428,14229,0.058105,-0.019531,1.065186,1.21374,3.274809,-1.08397,1.066948,3.656847,926,1607,681,926,0,92.857,0,damping
1780597323.0439906,14.022669500001939,14260,0.056152,-0.022949,1.052002,1.748092,3.061069,-0.969466,1.053749,3.655931,931,1613,682,931,0,92.857,7,damping
1780597323.075188,14.053866899994318,14292,0.036133,-0.029297,1.061768,1.541985,2.793893,-1.053435,1.062786,3.360548,932,1615,683,932,0,92.857,7,damping
1780597323.1059008,14.084579600006691,14323,0.021729,-0.026855,1.050781,2.015267,2.351145,-1.351145,1.051349,3.378576,933,1618,685,933,1,92.857,16,damping
1780597323.1374972,14.116176199997426,14354,0.058594,-0.036133,1.060303,1.961832,2.847328,-0.839695,1.062535,3.558251,936,1623,687,936,0,92.857,1,damping
1780597323.168454,14.14713290000509,14385,0.040771,-0.036377,1.060547,2.21374,2.480916,-1.358779,1.061954,3.591917,938,1627,689,938,0,92.857,0,damping
1780597323.1992443,14.177923199997167,14416,0.050537,-0.019531,1.062988,2.229008,3.129771,-0.992366,1.064368,3.968467,940,1632,692,940,1,92.857,14,damping
1780597323.2293205,14.207999499994912,14447,0.039551,-0.015869,1.045654,1.442748,2.984733,-0.80916,1.046522,3.412461,942,1635,693,942,0,82.143,8,damping
1780597323.2605596,14.239238399997703,14478,0.037354,-0.035889,1.051514,1.167939,3.435115,-1.21374,1.052789,3.825867,943,1638,695,943,1,82.143,16,damping
1780597323.2920964,14.270775199998752,14509,0.033203,-0.024902,1.059082,1.458015,2.931298,-0.969466,1.059895,3.414408,945,1641,696,945,0,82.143,8,damping
1780597323.3239703,14.302649200006272,14541,0.034912,-0.035156,1.051025,1.633588,3.175573,-0.793893,1.052192,3.658297,947,1645,698,947,0,82.143,0,damping
1780597323.3551161,14.333794999998645,14572,0.046875,-0.039062,1.05249,1.91603,2.748092,-1.175572,1.054258,3.550373,949,1650,701,949,1,82.143,14,damping
1780597323.3861694,14.364848400000483,14603,0.061035,-0.02002,1.05957,1.534351,3.183206,-0.763359,1.061516,3.615211,953,1655,702,953,0,82.143,7,damping
1780597323.4177425,14.39642140000069,14634,0.036865,-0.024902,1.047363,1.641221,3.022901,-0.885496,1.048308,3.55185,954,1657,703,954,0,82.143,7,damping
1780597323.4484754,14.427154400007566,14666,0.050049,-0.027832,1.0625,1.977099,2.59542,-0.900763,1.064042,3.384745,957,1661,704,957,0,82.143,7,damping
1780597323.4798982,14.458577099998365,14696,0.030518,-0.018555,1.061768,1.091603,3.450382,-0.862595,1.062368,3.720323,959,1665,706,959,0,82.143,0,damping
1780597323.5109007,14.489579700006288,14727,0.038574,-0.029297,1.063232,2.152672,3.022901,-0.931298,1.064335,3.826126,961,1670,709,961,1,67.857,14,damping
1780597323.5420156,14.520694399994682,14758,0.020264,-0.025879,1.046387,1.465649,2.587786,-1.022901,1.046903,3.14501,964,1675,711,964,0,67.857,1,damping
1780597323.5734172,14.552096100000199,14790,0.03418,-0.02417,1.051025,1.885496,2.442748,-0.992366,1.051859,3.241436,965,1677,712,965,0,67.857,7,damping
1780597323.6039038,14.58258270000806,14821,0.039062,-0.010986,1.052246,2.419847,2.618321,-0.877863,1.053028,3.671772,966,1680,714,966,1,67.857,16,damping
1780597323.6344078,14.613086600002134,14852,0.036133,-0.000977,1.047363,1.099237,2.824427,-1.0,1.047987,3.191506,968,1683,715,968,0,67.857,7,damping
1780597323.665592,14.644270899996627,14882,0.045166,-0.039307,1.049805,1.458015,2.709924,-1.206107,1.051511,3.305176,970,1687,717,970,0,67.857,1,damping
1780597323.6968596,14.675538499999675,14913,0.041992,-0.02417,1.051758,1.984733,3.572519,-0.870229,1.052873,4.17844,973,1691,718,973,0,67.857,7,damping
1780597323.7276354,14.706314399998519,14945,0.039307,-0.016357,1.062744,1.671756,3.015267,-0.59542,1.063597,3.498732,974,1693,719,974,0,67.857,7,damping
1780597323.7603679,14.73904680000851,14976,0.051758,-0.01123,1.061768,1.351145,2.610687,-1.618321,1.063088,3.355628,975,1696,721,975,1,67.857,16,damping
1780597323.7917907,14.770469700000831,15008,0.040527,-0.003906,1.05835,1.251908,3.083969,-1.267176,1.059132,3.561443,977,1699,722,977,0,56.94,7,damping
1780597323.8217628,14.80044170000474,15039,0.020264,-0.025635,1.05127,1.419847,3.48855,-0.977099,1.051777,3.891101,978,1701,723,978,0,56.94,7,damping
1780597323.8525982,14.831277200006298,15070,0.033936,-0.022461,1.062988,1.725191,3.694656,-1.122137,1.063767,4.22918,980,1706,726,980,1,56.94,13,damping
1780597323.8828578,14.861536700002034,15100,0.052002,-0.006348,1.059082,1.137405,3.206107,-1.320611,1.060377,3.649222,982,1709,727,982,0,56.94,7,damping
1780597323.9123433,14.89102229999844,15130,0.053467,-0.037842,1.059082,1.358779,3.312977,-1.053435,1.061106,3.732536,983,1711,728,983,0,56.94,7,damping
1780597323.9452903,14.923969199997373,15161,0.054932,-0.020996,1.058838,2.007634,4.08397,-0.89313,1.06047,4.637573,985,1714,729,985,1,56.94,14,damping
1780597323.9754806,14.954159600005369,15192,0.039795,-0.019775,1.067383,1.29771,3.236641,-0.89313,1.068307,3.599664,987,1717,730,987,0,56.94,7,damping
1780597324.005653,14.98433190000651,15222,0.045166,-0.043945,1.048828,1.694656,3.206107,-1.099237,1.05072,3.789367,988,1720,732,988,1,56.94,16,damping
1780597324.036594,15.01527289999649,15254,0.033447,-0.031738,1.05542,1.664122,2.351145,-1.198473,1.056427,3.11986,992,1725,733,992,0,56.94,7,damping
1780597324.0679328,15.04661180000403,15285,0.033691,-0.022461,1.054443,1.900763,2.862595,-0.870229,1.05522,3.544665,993,1727,734,993,0,57.762,7,damping
1780597324.100061,15.078739799995674,15316,0.036377,-0.036621,1.056641,1.755725,2.656489,-0.961832,1.057901,3.326353,994,1730,736,994,1,57.762,16,damping
1780597324.1301093,15.108788199999253,15347,0.051514,-0.001465,1.063477,1.603053,3.557252,-0.862595,1.064724,3.995984,996,1733,737,996,0,57.762,7,damping
1780597324.1612403,15.139919299996109,15378,0.051025,-0.031738,1.061279,1.709924,2.755725,-1.007634,1.062979,3.396054,997,1735,738,997,0,57.762,7,damping
1780597324.19177,15.170448999997461,15409,0.057129,-0.022217,1.052246,1.801527,3.648855,-0.770992,1.05403,4.141747,1000,1739,739,1000,0,57.762,7,damping
1780597324.2236114,15.202290200002608,15440,0.035889,-0.018555,1.052734,1.389313,3.152672,-1.137405,1.053509,3.628115,1003,1743,740,1003,0,57.762,7,damping
1780597324.2539284,15.232607400001143,15471,0.049805,-0.009766,1.056152,1.259542,3.343511,-1.358779,1.057371,3.822538,1005,1748,743,1005,1,57.762,14,damping
1780597324.2852125,15.263891499998863,15502,0.026367,-0.026611,1.042969,1.274809,2.664122,-1.175572,1.043641,3.178782,1007,1751,744,1007,0,57.762,7,damping
1780597324.3152816,15.293960599999991,15533,0.044434,-0.022461,1.070068,1.992366,2.931298,-1.152672,1.071226,3.727021,1008,1753,745,1008,0,57.762,7,damping
1780597324.3473408,15.326019700005418,15564,0.053711,-0.017578,1.066162,2.10687,3.40458,-0.992366,1.067659,4.124907,1009,1756,747,1009,1,57.348,15,damping
1780597324.3778691,15.356548099996871,15595,0.05542,-0.007324,1.057129,1.0,3.236641,-0.870229,1.058606,3.497591,1012,1761,749,1012,0,57.348,0,damping
1780597324.407494,15.386173000006238,15625,0.040527,-0.034668,1.057617,1.89313,2.954198,-0.755725,1.058961,3.589199,1014,1765,751,1014,0,57.348,0,damping
1780597324.4393115,15.417990400004783,15656,0.047852,-0.037109,1.05127,2.381679,3.312977,-1.0,1.053012,4.200978,1017,1770,753,1017,1,57.348,12,damping
1780597324.4694705,15.448149400006514,15686,0.049072,-0.041504,1.058106,1.755725,3.022901,-1.099237,1.060056,3.664536,1019,1773,754,1019,0,57.348,7,damping
1780597324.5010388,15.479717700000037,15717,0.055176,-0.020264,1.061279,1.48855,3.480916,-1.374046,1.062906,4.027476,1020,1775,755,1020,1,57.348,6,damping
1780597324.531121,15.509799999999814,15748,0.056641,-0.03418,1.059082,1.610687,3.48855,-1.053435,1.061146,3.984221,1023,1779,756,1023,0,57.348,8,damping
1780597324.5623608,15.541039799994905,15779,0.022217,-0.035156,1.074219,1.290076,3.053435,-1.0,1.075023,3.462335,1025,1783,758,1025,0,57.348,0,damping
1780597324.5942795,15.572958500008099,15810,0.02124,-0.022949,1.053711,1.740458,2.870229,-1.229008,1.054175,3.574614,1027,1788,761,1027,1,57.348,13,damping
1780597324.6225274,15.601206299994374,15841,0.03125,-0.003418,1.056152,1.458015,2.89313,-1.053435,1.05662,3.406719,1033,1795,762,1033,0,86.643,8,damping
1780597324.6546583,15.63333729999431,15871,0.022705,-0.028809,1.056396,1.198473,2.587786,-1.152672,1.057033,3.075976,1034,1797,763,1034,0,86.643,7,damping
1780597324.6837442,15.662423100002343,15902,0.041748,-0.014648,1.050049,2.0,3.396947,-1.267176,1.05098,4.14065,1035,1800,765,1035,1,86.643,15,damping
1780597324.7158794,15.694558300005156,15932,0.064697,-0.028076,1.064453,1.839695,2.984733,-0.755725,1.066787,3.586674,1037,1803,766,1037,0,86.643,7,damping
1780597324.7462838,15.724962799999048,15963,0.042236,-0.028809,1.060547,1.725191,3.167939,-1.343511,1.061778,3.849304,1039,1807,768,1039,0,86.643,0,damping
1780597324.7792537,15.757932699998491,15995,0.042725,-0.014648,1.049805,1.541985,3.137405,-0.923664,1.050776,3.615824,1043,1813,770,1043,0,86.643,7,damping
1780597324.8087769,15.787455800003954,16026,0.048096,-0.012207,1.061768,1.793893,3.175573,-0.862595,1.062926,3.747851,1046,1817,771,1046,0,86.643,7,damping
1780597324.8408642,15.81954310000583,16057,0.063721,-0.010986,1.065186,1.755725,3.015267,-1.320611,1.067146,3.73074,1047,1820,773,1047,1,86.643,15,damping
1780597324.871067,15.849745900006383,16088,0.033447,-0.021729,1.060547,1.977099,2.717557,-0.847328,1.061297,3.465834,1049,1823,774,1049,0,86.643,8,damping
1780597324.9028494,15.881528300000355,16119,0.029541,-0.035645,1.050049,1.259542,2.748092,-0.839695,1.051069,3.137442,1050,1825,775,1050,0,61.151,7,damping
1780597324.933347,15.912026000005426,16150,0.049561,-0.008789,1.054688,2.152672,2.801527,-1.122137,1.055888,3.706985,1052,1830,778,1052,1,61.151,13,damping
1780597324.962943,15.941621899997699,16181,0.043945,-0.009033,1.052246,1.59542,2.793893,-0.763359,1.053202,3.306648,1057,1837,780,1057,0,61.151,1,damping
1780597324.9943345,15.97301349999907,16212,0.043701,-0.02832,1.054688,2.091603,3.145038,-1.099237,1.055972,3.93375,1058,1839,781,1058,0,61.151,7,damping
1780597325.0256088,16.004287699994165,16243,0.055176,-0.024658,1.064941,2.099237,3.183206,-0.908397,1.066655,3.919794,1061,1843,782,1061,0,61.151,7,damping
1780597325.056204,16.034883000000264,16274,0.049561,-0.015869,1.065186,1.793893,2.816794,-0.854962,1.066456,3.447222,1062,1845,783,1062,0,61.151,7,damping
1780597325.0880342,16.06671300000744,16305,0.051025,-0.006592,1.058594,0.984733,3.129771,-1.061069,1.059843,3.448338,1064,1850,786,1064,1,61.151,13,damping
1780597325.1185858,16.097264700001688,16336,0.034912,-0.009277,1.061279,1.625954,2.763359,-1.152672,1.061894,3.40713,1070,1857,787,1070,0,61.151,1,damping
1780597325.1498783,16.1285571000044,16367,0.051025,-0.016113,1.05835,0.534351,2.709924,-1.480916,1.059701,3.13406,1072,1861,789,1072,0,61.151,0,damping
1780597325.1819808,16.160659700006363,16398,0.05127,-0.033691,1.052734,2.183206,3.732824,-1.290076,1.05452,4.512722,1073,1864,791,1073,1,82.437,15,damping
1780597325.2116632,16.190342100002454,16429,0.054443,-0.009521,1.05957,1.969466,4.122138,-1.114504,1.061011,4.702439,1075,1867,792,1075,0,82.437,9,damping
1780597325.2507093,16.229388200008543,16460,0.031494,-0.011963,1.05957,1.145038,3.687023,-1.335878,1.060106,4.085318,1076,1869,793,1076,0,82.437,8,damping
1780597325.2748606,16.253539500001352,16491,0.045898,-0.010254,1.056641,2.091603,2.954198,-1.206107,1.057687,3.815336,1077,1874,797,1077,1,82.437,13,damping
1780597325.3074164,16.28609540000616,16523,0.055176,-0.011475,1.055908,1.519084,2.473282,-1.251908,1.057411,3.161015,1079,1877,798,1079,0,82.437,9,damping
1780597325.3373194,16.315998200007016,16554,0.035156,-0.030518,1.056396,1.534351,2.923664,-1.427481,1.057422,3.597186,1080,1880,800,1080,1,82.437,13,damping
1780597325.3677824,16.34646139999677,16585,0.037354,0.0,1.05957,2.519084,2.549618,-1.267176,1.060228,3.801588,1088,1889,801,1088,0,82.437,0,damping
1780597325.3991516,16.3778306000022,16616,0.046143,-0.02417,1.066894,2.267176,2.503817,-1.183206,1.068165,3.578989,1089,1891,802,1089,0,82.437,9,damping
1780597325.430324,16.409003000007942,16647,0.046387,-0.022217,1.061523,4.503816,2.526718,-1.305344,1.062769,5.326592,1090,1894,804,1090,1,82.437,14,damping
1780597325.4612179,16.439896800002316,16678,0.033447,-0.02124,1.048584,2.007634,3.412214,-0.977099,1.049332,4.077808,1092,1897,805,1092,0,67.857,10,damping
1780597325.4920504,16.470729299995583,16709,0.036133,-0.012207,1.052734,1.862595,3.137405,-1.221374,1.053425,3.847639,1093,1899,806,1093,0,67.857,10,damping
1780597325.5232196,16.501898600006825,16740,0.0354,-0.002441,1.052246,0.458015,3.496183,-1.427481,1.052844,3.804047,1094,1902,808,1094,1,67.857,13,damping
1780597325.5612085,16.539887399994768,16771,0.03418,-0.029297,1.057129,0.183206,3.641221,-0.679389,1.058087,3.708588,1096,1905,809,1096,0,67.857,9,damping
1780597325.5921772,16.570856000005733,16808,0.053711,-0.030518,1.055908,1.160305,2.557252,-1.137405,1.057714,3.029775,1097,1908,811,1097,1,67.857,13,damping
1780597325.6216667,16.600345600003493,16839,0.069336,-0.022949,1.067383,1.465649,3.580153,-0.480916,1.069879,3.89832,1099,1911,812,1099,0,67.857,9,damping
1780597325.6533415,16.632020400007605,16870,0.056641,-0.014648,1.05249,0.534351,3.221374,-1.167939,1.054115,3.467977,1100,1914,814,1100,1,67.857,13,damping
1780597325.685873,16.664552000002004,16902,0.048096,-0.026611,1.05127,1.183206,2.916031,-1.503817,1.052706,3.48779,1109,1924,815,1109,0,67.857,0,damping
1780597325.7170296,16.69570840000233,16933,0.031738,-0.031494,1.057373,1.832061,2.625954,-1.458015,1.058318,3.518223,1110,1926,816,1110,0,70.588,9,damping
1780597325.748446,16.727124900004128,16965,0.049561,-0.040039,1.058838,1.679389,3.687023,-0.992366,1.060753,4.171244,1111,1929,818,1111,1,70.588,13,damping
1780597325.779651,16.75832989999617,16996,0.031006,-0.031738,1.047119,1.358779,3.21374,-1.076336,1.048059,3.651425,1113,1932,819,1113,0,70.588,9,damping
1780597325.8105438,16.789222799998242,17027,0.029297,-0.031738,1.046631,1.839695,3.160305,-1.091603,1.047522,3.816229,1114,1937,823,1114,1,70.588,0,damping
1780597325.843996,16.822674900002312,17060,0.043213,-0.009521,1.059814,1.053435,2.648855,-1.167939,1.060738,3.080623,1123,1947,824,1123,0,70.588,1,damping
1780597325.8749297,16.853608599994914,17091,0.04126,-0.0354,1.045166,0.862595,3.030534,-0.923664,1.046579,3.283499,1124,1949,825,1124,0,70.588,9,damping
1780597325.9048347,16.88351369999873,17122,0.049805,-0.010498,1.046387,1.007634,3.251908,-1.0,1.047624,3.548272,1125,1952,827,1125,1,70.588,13,damping
1780597325.9343357,16.913014699995983,17152,0.033447,-0.009277,1.056152,-0.206107,2.908397,-0.931298,1.056722,3.060812,1127,1955,828,1127,0,70.588,9,damping
1780597325.9661443,16.94482319999952,17183,0.044434,-0.020752,1.043945,1.389313,2.59542,-1.274809,1.045096,3.208042,1129,1959,830,1129,0,76.0,1,damping
1780597325.9965425,16.97522150000441,17213,0.039551,-0.034668,1.066162,3.923664,3.244275,-1.641221,1.067458,5.349212,1132,1964,832,1132,1,76.0,13,damping
1780597326.026005,17.004683999999543,17244,0.037842,-0.009766,1.05249,2.458015,2.740458,-1.358779,1.053216,3.924058,1137,1971,834,1137,0,76.0,1,damping
1780597326.0580425,17.036721500000567,17275,0.031982,-0.044189,1.051025,1.503817,3.679389,-1.580153,1.05244,4.277412,1138,1974,836,1138,1,76.0,15,damping
1780597326.0897682,17.068447199999355,17307,0.031494,-0.024414,1.055664,1.778626,3.198473,-1.21374,1.056416,3.855763,1148,1985,837,1148,0,76.0,1,damping
1780597326.1215217,17.1002007000061,17338,0.052734,-0.013428,1.058594,1.519084,2.396947,-1.10687,1.059992,3.046002,1149,1987,838,1149,0,76.0,8,damping
1780597326.1527812,17.131460200005677,17369,0.05249,-0.027588,1.050049,1.740458,2.709924,-1.244275,1.051722,3.452695,1151,1992,841,1151,1,76.0,13,damping
1780597326.183168,17.161846899995,17400,0.041504,-0.016846,1.053467,1.992366,2.244275,-1.351145,1.054419,3.291183,1156,1999,843,1156,0,76.0,1,damping
1780597326.2138557,17.192534800007707,17431,0.044434,-0.026855,1.05835,1.740458,2.572519,-1.328244,1.059622,3.378059,1157,2001,844,1157,0,76.0,7,damping
1780597326.245004,17.22368280000228,17462,0.049072,-0.045898,1.047852,1.877863,4.122138,-1.10687,1.050004,4.662997,1159,2004,845,1159,1,107.527,15,damping
1780597326.2758007,17.254479700000957,17493,0.025879,-0.03125,1.050537,1.862595,3.007634,-1.076336,1.05132,3.697786,1161,2007,846,1161,0,107.527,8,damping
1780597326.3071811,17.285860000003595,17523,0.050781,-0.027588,1.056396,1.709924,3.564885,-1.175572,1.057976,4.12483,1163,2012,849,1163,1,107.527,12,damping
1780597326.3382843,17.316963200006285,17554,0.028076,-0.019531,1.053711,1.129771,2.641221,-1.061069,1.054266,3.062401,1168,2019,851,1168,0,107.527,0,damping
1780597326.3696997,17.348378599999705,17586,0.033936,-0.039551,1.060303,2.091603,3.458015,-0.534351,1.061583,4.076544,1170,2023,853,1170,0,107.527,1,damping
1780597326.4005165,17.379195500005153,17617,0.049072,-0.036377,1.060059,2.664122,2.717557,-1.59542,1.061817,4.126503,1171,2026,855,1171,1,107.527,15,damping
1780597326.4315534,17.410232399997767,17648,0.053711,-0.036377,1.059326,0.931298,3.435115,-0.740458,1.06131,3.635328,1173,2029,856,1173,0,107.527,7,damping
1780597326.4621468,17.440825600002427,17679,0.031982,-0.031494,1.049316,2.19084,3.061069,-0.717557,1.050276,3.832076,1174,2031,857,1174,0,107.527,8,damping
1780597326.4947813,17.473460199995316,17710,0.055664,-0.025391,1.060547,2.580153,3.351145,-0.908397,1.06231,4.3258,1177,2036,859,1177,1,107.527,13,damping
1780597326.52466,17.503339000002597,17741,0.034912,-0.018555,1.056152,0.816794,3.091603,-0.664122,1.056892,3.265918,1182,2043,861,1182,0,82.437,0,damping
1780597326.5557566,17.534435499997926,17772,0.048828,-0.035645,1.056641,1.732824,2.946565,-0.992366,1.058369,3.559455,1183,2046,863,1183,1,82.437,15,damping
1780597326.5871317,17.565810600004625,17804,0.037598,-0.007813,1.058594,0.832061,2.885496,-0.870229,1.05929,3.126614,1185,2049,864,1185,0,82.437,7,damping
1780597326.618248,17.596927000005962,17834,0.019775,-0.041748,1.064453,0.290076,2.564885,-1.061069,1.065455,2.790815,1186,2051,865,1186,0,82.437,8,damping
1780597326.6479993,17.626678300002823,17865,0.022461,-0.023193,1.045898,2.473282,2.755725,-1.312977,1.046397,3.928747,1187,2054,867,1187,1,82.437,16,damping
1780597326.6796527,17.658331700004055,17896,0.017578,-0.007568,1.058594,1.419847,2.89313,-1.030534,1.058767,3.383514,1191,2059,868,1191,0,82.437,7,damping
1780597326.7107472,17.689426299999468,17927,0.037354,-0.025391,1.050781,1.885496,2.496183,-1.114504,1.051752,3.320865,1193,2063,870,1193,0,82.437,0,damping
1780597326.7404714,17.71915030000673,17958,0.0625,-0.030029,1.051514,2.793893,3.343511,-0.954198,1.053797,4.460426,1194,2066,872,1194,1,82.437,15,damping
1780597326.773045,17.75172400000156,17989,0.043945,-0.032471,1.056396,1.145038,2.938931,-0.877863,1.057808,3.273999,1196,2069,873,1196,0,82.437,7,damping
1780597326.8032289,17.781907700002193,18020,0.062988,-0.016602,1.058594,1.618321,2.755725,-1.114504,1.060596,3.384538,1197,2072,875,1197,1,53.763,16,damping
1780597326.8352244,17.813903400005074,18051,0.032959,-0.019775,1.043457,1.725191,2.862595,-1.145038,1.044165,3.532966,1201,2077,876,1201,0,53.763,8,damping
1780597326.8654652,17.84414420000394,18082,0.043457,-0.021729,1.060303,0.877863,2.78626,-1.145038,1.061415,3.137674,1202,2079,877,1202,0,53.763,7,damping
1780597326.8964133,17.875092200003564,18113,0.03833,-0.029785,1.042725,2.053435,2.740458,-0.618321,1.043854,3.479803,1204,2084,880,1204,1,53.763,13,damping
1780597326.9266534,17.90533239999786,18144,0.018555,-0.005859,1.05249,1.549618,2.801527,-0.992366,1.05267,3.351814,1206,2087,881,1206,0,53.763,6,damping
1780597326.9577901,17.936469100008253,18174,0.046875,-0.010498,1.055176,1.038168,2.152672,-1.053435,1.056269,2.611803,1207,2089,882,1207,0,53.763,6,damping
1780597326.9888275,17.967506400003913,18205,0.03418,-0.042236,1.046387,2.251908,2.664122,-1.496183,1.047796,3.795682,1208,2092,884,1208,1,53.763,16,damping
1780597327.019632,17.998311100003775,18236,0.041504,-0.009766,1.052246,1.664122,3.496183,-0.70229,1.05311,3.935202,1212,2097,885,1212,0,53.763,7,damping
1780597327.0500293,18.028708199999528,18267,0.045898,-0.006592,1.063965,1.160305,3.183206,-1.366412,1.064975,3.653244,1213,2099,886,1213,0,53.763,6,damping
1780597327.0804946,18.059173500005272,18298,0.046387,-0.023438,1.055176,1.694656,3.29771,-0.824427,1.056455,3.798214,1216,2103,887,1216,0,68.345,7,damping
1780597327.111723,18.09040190000087,18329,0.034668,-0.028076,1.060791,1.580153,3.267176,-0.89313,1.061729,3.737512,1217,2105,888,1217,0,68.345,7,damping
1780597327.1433403,18.122019300004467,18360,0.031494,-0.040039,1.059814,1.648855,3.137405,-0.916031,1.061038,3.660757,1218,2108,890,1218,1,68.345,16,damping
1780597327.1744223,18.153101100004278,18391,0.045654,-0.027344,1.06958,2.244275,3.007634,-1.183206,1.070903,3.934794,1221,2113,892,1221,0,68.345,0,damping
1780597327.2063093,18.184988299995894,18423,0.032227,-0.032471,1.053223,1.816794,3.351145,-1.175572,1.054216,3.989096,1223,2117,894,1223,0,68.345,0,damping
1780597327.237143,18.21582209999906,18454,0.047363,-0.014648,1.048584,2.152672,3.030534,-1.335878,1.049755,3.950026,1225,2122,897,1225,1,68.345,13,damping
1780597327.267592,18.24627089999558,18485,0.043945,-0.031494,1.064697,1.206107,2.816794,-1.10687,1.066069,3.257942,1227,2125,898,1227,0,68.345,8,damping
1780597327.2996511,18.278330000001006,18516,0.044189,-0.017334,1.055664,1.541985,3.022901,-1.198473,1.056731,3.598886,1228,2127,899,1228,0,68.345,7,damping
1780597327.3309162,18.309594999998808,18547,0.056641,-0.013916,1.063477,1.412214,3.343511,-0.992366,1.065075,3.762739,1231,2131,900,1231,0,68.345,8,damping
1780597327.361237,18.339915899996413,18578,0.032715,-0.031982,1.053711,1.80916,3.114504,-1.229008,1.054704,3.80574,1235,2137,902,1235,0,67.857,0,damping
1780597327.3931947,18.37187350000022,18609,0.058838,-0.005371,1.06543,2.267176,2.847328,-1.442748,1.067067,3.915212,1237,2142,905,1237,1,67.857,13,damping
1780597327.424576,18.403254899996682,18641,0.034424,-0.013916,1.050537,1.80916,2.679389,-0.916031,1.051193,3.360253,1249,2155,906,1249,0,67.857,0,damping
1780597327.4559515,18.434630300005665,18672,0.0354,-0.030029,1.051514,1.862595,3.007634,-1.335878,1.052538,3.781494,1250,2157,907,1250,0,67.857,8,damping
1780597327.4880443,18.466723200006527,18704,0.042725,-0.018066,1.049561,1.946565,3.496183,-0.824427,1.050585,4.085596,1251,2160,909,1251,1,67.857,15,damping
1780597327.5179818,18.496660699995118,18735,0.053223,-0.022461,1.057617,1.427481,3.229008,-1.358779,1.059194,3.782918,1254,2165,911,1254,0,67.857,1,damping
1780597327.5505545,18.529233499997645,18766,0.050293,-0.029541,1.063477,1.244275,3.366412,-1.40458,1.065075,3.854062,1256,2170,914,1256,1,67.857,14,damping
1780597327.5806699,18.559348900002078,18798,0.026611,-0.017822,1.056396,1.78626,2.984733,-1.114504,1.056882,3.652598,1261,2177,916,1261,0,67.857,0,damping
1780597327.6129117,18.59159070000169,18829,0.041504,-0.010254,1.055908,1.59542,3.038168,-0.687023,1.056773,3.49969,1262,2179,917,1262,0,107.57,8,damping
1780597327.642846,18.621524999995017,18860,0.036377,-0.035645,1.044189,2.648855,2.946565,-1.122137,1.045431,4.117994,1263,2182,919,1263,1,107.57,15,damping
1780597327.6744242,18.653103000004194,18891,0.041016,-0.031494,1.049072,2.206107,3.160305,-1.061069,1.050346,3.997537,1266,2187,921,1266,0,107.57,0,damping
1780597327.7050414,18.68372040000395,18922,0.025879,-0.02832,1.055664,1.709924,3.229008,-1.038168,1.056361,3.798437,1268,2191,923,1268,0,107.57,1,damping
1780597327.7360024,18.71468150000146,18953,0.065674,-0.040771,1.064453,1.954198,3.51145,-0.870229,1.067256,4.111748,1270,2196,926,1270,1,107.57,14,damping
1780597327.7683308,18.747009700004128,18984,0.039795,-0.028809,1.054932,2.083969,2.748092,-1.08397,1.056075,3.615235,1274,2201,927,1274,0,107.57,8,damping
1780597327.799013,18.777691800001776,19015,0.061035,-0.030518,1.060059,1.435114,3.335878,-0.854962,1.062253,3.730764,1275,2204,929,1275,1,107.57,15,damping
1780597327.8303487,18.809027600000263,19046,0.030518,-0.02002,1.057861,1.557252,2.656489,-1.10687,1.058491,3.272175,1277,2207,930,1277,0,107.57,8,damping
1780597327.8613648,18.840043699994567,19077,0.03418,-0.022949,1.063965,1.541985,2.290076,-0.885496,1.064761,2.899357,1279,2211,932,1279,0,107.57,1,damping
1780597327.892514,18.87119299999904,19108,0.035889,-0.026855,1.049316,1.526718,2.603053,-1.10687,1.050273,3.21433,1281,2216,935,1281,1,68.1,13,damping
1780597327.9219685,18.900647300004493,19139,0.031738,-0.001465,1.052002,1.167939,2.824427,-0.778626,1.052482,3.154002,1290,2227,937,1290,0,68.1,0,damping
1780597327.9529285,18.931607599995914,19170,0.021729,-0.028076,1.056396,1.450382,2.419847,-0.931298,1.056993,2.970956,1291,2229,938,1291,0,68.1,8,damping
1780597327.9836326,18.96231160000025,19201,0.0354,-0.010986,1.050781,2.053435,3.091603,-1.251908,1.051435,3.916871,1292,2232,940,1292,1,68.1,15,damping
1780597328.015053,18.993732000002638,19232,0.033447,-0.022949,1.044678,1.068702,3.465649,-1.08397,1.045465,3.785213,1294,2235,941,1294,0,68.1,8,damping
1780597328.0459812,19.024660099996254,19263,0.044922,-0.020264,1.050781,1.80916,3.541985,-0.938931,1.051936,4.086601,1296,2239,943,1296,0,68.1,0,damping
1780597328.0779264,19.056605300007504,19294,0.050781,-0.031006,1.054199,1.564886,3.854962,-0.694656,1.055877,4.218074,1301,2245,944,1301,0,68.1,8,damping
1780597328.1091344,19.087813399994047,19326,0.049561,-0.030029,1.072022,1.480916,3.587786,-0.992366,1.073586,4.00626,1304,2249,945,1304,0,68.1,7,damping
1780597328.1401017,19.118780500008143,19357,0.050537,-0.030518,1.06543,1.641221,2.221374,-1.19084,1.067064,3.007692,1305,2252,947,1305,1,68.1,15,damping
1780597328.1714292,19.1501081000024,19388,0.039062,-0.006836,1.054199,1.305344,3.053435,-0.740458,1.054945,3.402303,1307,2255,948,1307,0,92.857,7,damping
1780597328.20231,19.18098910000117,19419,0.023193,-0.025391,1.053223,1.824428,3.114504,-1.221374,1.053784,3.810567,1309,2259,950,1309,0,92.857,1,damping
1780597328.2335474,19.21222640000633,19450,0.0354,-0.009521,1.048828,1.770992,3.633588,-0.969466,1.049468,4.15683,1311,2264,953,1311,1,92.857,13,damping
1780597328.2641954,19.242874300005496,19481,0.033936,-0.02124,1.05542,1.351145,2.908397,-1.061069,1.056179,3.377904,1316,2271,955,1316,0,92.857,0,damping
1780597328.2949584,19.273637200007215,19512,0.041748,-0.027588,1.060303,1.816794,2.877863,-0.984733,1.061483,3.542955,1317,2273,956,1317,0,92.857,7,damping
1780597328.3257606,19.304439600004116,19543,0.046387,-0.022217,1.056641,1.29771,3.671756,-0.755725,1.057892,3.966984,1320,2277,957,1320,0,92.857,8,damping
1780597328.358986,19.337664899998344,19574,0.044434,-0.02124,1.059082,1.381679,3.015267,-0.763359,1.060226,3.403468,1321,2279,958,1321,0,92.857,7,damping
1780597328.3974588,19.37613770000462,19605,0.049316,-0.009033,1.058838,2.198473,2.29771,-0.969466,1.060024,3.324548,1323,2285,962,1323,1,92.857,0,damping
1780597328.419463,19.398141900004703,19635,0.046387,-0.021484,1.05542,1.885496,2.099237,-1.053435,1.056657,3.011912,1328,2294,966,1328,0,92.857,0,damping
1780597328.4492497,19.427928799996153,19667,0.043457,-0.008545,1.069092,0.80916,2.78626,-1.221374,1.070009,3.147974,1329,2296,967,1329,0,78.853,8,damping
1780597328.4822087,19.460887599998387,19698,0.046631,-0.038818,1.050537,2.389313,2.992366,-1.068702,1.052288,3.975575,1330,2299,969,1330,1,78.853,15,damping
1780597328.512507,19.491185799997766,19730,0.039307,-0.005859,1.060547,0.969466,3.519084,-0.694656,1.061291,3.715692,1332,2302,970,1332,0,78.853,8,damping
1780597328.5440402,19.522719100001268,19760,0.043213,-0.036865,1.066894,1.671756,2.78626,-0.885496,1.068406,3.367806,1334,2306,972,1334,0,78.853,0,damping
1780597328.5742888,19.55296790000284,19791,0.058105,-0.026855,1.053955,2.572519,3.625954,-0.603053,1.055897,4.486544,1337,2311,974,1337,1,78.853,13,damping
1780597328.6052785,19.583957399998326,19822,0.033691,-0.015625,1.056885,1.603053,2.770992,-1.29771,1.057537,3.454306,1342,2318,976,1342,0,78.853,0,damping
1780597328.6370747,19.615753699996276,19853,0.036133,-0.02124,1.056396,1.557252,3.465649,-0.755725,1.057228,3.873871,1343,2321,978,1343,1,78.853,15,damping
1780597328.6689453,19.64762420000625,19885,0.039795,-0.01416,1.060303,1.725191,2.839695,-1.053435,1.061144,3.485667,1345,2324,979,1345,0,78.853,7,damping
1780597328.699597,19.678275900005247,19916,0.047363,-0.014893,1.071045,1.580153,3.343511,-1.053435,1.072195,3.845215,1346,2326,980,1346,0,78.853,8,damping
1780597328.7312996,19.709978600003524,19947,0.042969,-0.038574,1.052734,1.725191,2.900763,-1.236641,1.054317,3.594439,1348,2331,983,1348,1,67.857,13,damping
1780597328.761925,19.740603900005226,19978,0.054199,-0.015625,1.059326,1.10687,3.648855,-0.961832,1.060827,3.932484,1354,2340,986,1354,0,67.857,0,damping
1780597328.7931309,19.771809900004882,20009,0.069092,-0.031982,1.062012,2.099237,3.114504,-0.946565,1.064737,3.87336,1355,2342,987,1355,0,67.857,7,damping
1780597328.8243713,19.803050300004543,20041,0.048828,-0.025879,1.054688,2.312977,2.862595,-1.328244,1.056134,3.912614,1358,2346,988,1358,0,67.857,7,damping
1780597328.8567307,19.835409599996638,20073,0.051514,-0.027344,1.06543,1.091603,2.587786,-0.717557,1.067025,2.898814,1359,2348,989,1359,0,67.857,7,damping
1780597328.8867056,19.865384599994286,20104,0.033447,-0.026367,1.045166,2.19084,2.648855,-1.312977,1.046033,3.67969,1361,2353,992,1361,1,67.857,13,damping
1780597328.9179456,19.89662450000469,20135,0.038086,0.003174,1.052978,1.442748,2.755725,-0.816794,1.053672,3.216006,1366,2360,994,1366,0,67.857,0,damping
1780597328.950038,19.928716800000984,20166,0.036377,-0.027832,1.056641,1.145038,2.816794,-1.053435,1.057633,3.217944,1368,2364,996,1368,0,67.857,1,damping
1780597328.9810405,19.959719499995117,20197,0.055664,-0.021729,1.05542,2.045802,2.549618,-1.114504,1.05711,3.45369,1369,2367,998,1369,1,84.0,16,damping
1780597329.0124662,19.991145199994207,20228,0.042725,-0.029297,1.055908,1.320611,3.229008,-0.839695,1.057178,3.588257,1371,2370,999,1371,0,84.0,7,damping
1780597329.0449028,20.023581800007378,20260,0.035889,-0.036133,1.056396,1.877863,3.091603,-1.358779,1.057623,3.864021,1372,2373,1001,1372,1,84.0,16,damping
1780597329.075014,20.053693099995144,20292,0.022705,-0.006836,1.05835,1.633588,2.496183,-1.236641,1.058615,3.229369,1376,2378,1002,1376,0,84.0,7,damping
1780597329.1056445,20.084323400005815,20323,0.029541,-0.020752,1.059082,1.51145,3.068702,-0.89313,1.059697,3.535406,1378,2382,1004,1378,0,84.0,0,damping
1780597329.1364865,20.11516549999942,20354,0.028809,-0.032471,1.049561,2.229008,2.496183,-0.984733,1.050458,3.488424,1379,2385,1006,1379,1,84.0,16,damping
1780597329.1688006,20.147479499995825,20385,0.032715,-0.034912,1.047607,2.053435,2.984733,-1.099237,1.048699,3.785967,1381,2388,1007,1381,0,84.0,7,damping
1780597329.1996777,20.178356599994004,20416,0.026611,-0.032715,1.049316,1.396947,2.89313,-1.29771,1.050164,3.464926,1382,2390,1008,1382,0,84.0,7,damping
1780597329.2292264,20.207905400005984,20446,0.040771,-0.010986,1.057129,2.519084,2.854962,-1.129771,1.057972,3.97152,1383,2393,1010,1383,1,84.0,15,damping
1780597329.2612422,20.239921000000322,20477,0.048828,-0.021729,1.055176,1.603053,3.282443,-0.969466,1.056528,3.779428,1388,2400,1012,1388,0,67.857,0,damping
1780597329.2933736,20.272052600004827,20509,0.040771,-0.022949,1.047607,2.053435,3.022901,-1.007634,1.048652,3.790759,1390,2405,1015,1390,1,67.857,14,damping
1780597329.324714,20.303392999994685,20541,0.021973,-0.020996,1.04541,1.816794,3.053435,-1.137405,1.045852,3.73067,1392,2408,1016,1392,0,67.857,7,damping
1780597329.3558698,20.334548700004234,20572,0.032959,-0.024658,1.055664,2.022901,3.068702,-0.847328,1.056466,3.771873,1393,2410,1017,1393,0,67.857,7,damping
1780597329.3864894,20.36516830000619,20603,0.019287,-0.022705,1.052246,1.603053,2.458015,-1.221374,1.052668,3.17858,1394,2413,1019,1394,1,67.857,15,damping
1780597329.4175546,20.396233499996015,20634,0.032959,-0.0271,1.05957,1.725191,3.389313,-0.694656,1.060429,3.866041,1399,2420,1021,1399,0,67.857,0,damping
1780597329.4480605,20.42673950000608,20665,0.050293,-0.027588,1.064453,1.351145,3.099237,-1.129771,1.065998,3.564722,1401,2424,1023,1401,0,67.857,0,damping
1780597329.47936,20.458039100005408,20696,0.040771,-0.043457,1.050781,1.900763,3.938931,-1.045802,1.05247,4.496864,1403,2427,1024,1403,1,67.857,15,damping
1780597329.5106025,20.489281500005745,20727,0.038818,-0.017578,1.046875,1.030534,2.931298,-0.78626,1.047742,3.205107,1405,2430,1025,1405,0,68.0,7,damping
1780597329.541553,20.520231999995303,20758,0.052979,-0.048096,1.061035,1.328244,3.030534,-1.08397,1.063445,3.481862,1406,2433,1027,1406,1,68.0,15,damping
1780597329.5728607,20.551539699998102,20789,0.051025,-0.031982,1.056152,1.984733,2.251908,-1.221374,1.057868,3.24068,1408,2436,1028,1408,0,68.0,7,damping
1780597329.6025643,20.58124329999555,20820,0.05542,-0.016602,1.053467,1.687023,3.778626,-0.870229,1.055054,4.228636,1410,2440,1030,1410,0,68.0,0,damping
1780597329.635089,20.613767799994093,20851,0.041016,-0.036133,1.058106,2.450382,2.709924,-1.091603,1.059516,3.81309,1412,2445,1033,1412,1,68.0,13,damping
1780597329.6654143,20.64409329999762,20882,0.052246,-0.012695,1.062744,1.763359,2.152672,-0.984733,1.064103,2.951801,1414,2448,1034,1414,0,68.0,7,damping
1780597329.6962917,20.674970699998084,20913,0.045898,-0.041748,1.055664,1.885496,2.763359,-0.839695,1.057486,3.449106,1415,2450,1035,1415,0,68.0,8,damping
1780597329.7275658,20.706244600005448,20944,0.060547,-0.012207,1.059326,1.877863,2.954198,-1.08397,1.061125,3.664512,1416,2453,1037,1416,1,68.0,16,damping
1780597329.7587748,20.737453699999605,20975,0.052002,-0.031738,1.057617,1.274809,3.770992,-0.59542,1.05937,4.024928,1421,2460,1039,1421,0,68.0,0,damping
1780597329.789915,20.768594000008306,21006,0.02832,-0.019531,1.054199,1.877863,3.465649,-0.51145,1.05476,3.974754,1422,2462,1040,1422,0,60.932,7,damping
1780597329.8206751,20.799354000002495,21037,0.04248,-0.013916,1.063965,1.572519,3.076336,-0.877863,1.064904,3.56473,1425,2466,1041,1425,0,60.932,7,damping
1780597329.8523684,20.831047200001194,21068,0.032471,-0.025879,1.050781,1.557252,3.572519,-0.755725,1.051601,3.969767,1426,2468,1042,1426,0,60.932,7,damping
1780597329.8826635,20.861342400006833,21099,0.03125,-0.013428,1.050781,1.641221,3.129771,-0.931298,1.051332,3.65464,1427,2471,1044,1427,1,60.932,16,damping
1780597329.914007,20.892685800004983,21130,0.021729,-0.015625,1.058106,1.419847,2.48855,-0.992366,1.058444,3.032101,1429,2474,1045,1429,0,60.932,7,damping
1780597329.9455693,20.924248299998,21161,0.027344,-0.017334,1.065674,1.244275,2.320611,-0.694656,1.066165,2.723234,1430,2476,1046,1430,0,60.932,7,damping
1780597329.9761994,20.954878400007146,21192,0.026123,-0.028809,1.041016,2.282443,2.793893,-0.923664,1.041742,3.724049,1432,2481,1049,1432,1,60.932,13,damping
1780597330.006444,20.98512280000432,21223,0.050781,-0.014404,1.056152,2.129771,2.847328,-0.671756,1.057471,3.618626,1434,2484,1050,1434,0,60.932,7,damping
1780597330.0374424,21.016121499997098,21254,0.058594,-0.027344,1.057129,1.0,3.183206,-1.152672,1.059105,3.530078,1435,2486,1051,1435,0,60.932,7,damping
1780597330.068374,21.04705290000129,21285,0.05249,-0.003418,1.060303,2.251908,2.70229,-1.068702,1.061607,3.676355,1437,2489,1052,1437,0,53.763,15,damping
1780597330.099294,21.07797300000675,21315,0.048828,-0.032715,1.057617,2.610687,2.763359,-1.022901,1.059249,3.936771,1441,2494,1053,1441,0,53.763,7,damping
1780597330.1321595,21.110838399996283,21347,0.053955,-0.032959,1.059082,1.40458,3.21374,-0.816794,1.060968,3.601128,1443,2499,1056,1443,1,53.763,13,damping
1780597330.1628025,21.141481300001033,21378,0.044434,-0.026123,1.051514,1.534351,2.793893,-0.885496,1.052776,3.308198,1445,2502,1057,1445,0,53.763,7,damping
1780597330.192133,21.170811899995897,21409,0.050537,-0.022705,1.058106,1.671756,2.70229,-0.717557,1.059555,3.25761,1446,2504,1058,1446,0,53.763,7,damping
1780597330.222979,21.20165810000617,21439,0.052979,-0.029297,1.049805,1.343511,2.557252,-0.916031,1.051549,3.030458,1447,2507,1060,1447,1,53.763,16,damping
1780597330.2543976,21.233076599994092,21470,0.034912,-0.017334,1.050293,2.145038,2.251908,-1.267176,1.051016,3.358276,1451,2512,1061,1451,0,53.763,0,damping
1780597330.2845087,21.263187599994126,21501,0.04126,-0.01123,1.068359,1.549618,2.740458,-0.725191,1.069215,3.230686,1453,2516,1063,1453,0,53.763,0,damping
1780597330.3157368,21.29441570000199,21532,0.040039,-0.029053,1.053467,1.427481,2.870229,-1.137405,1.054628,3.401412,1455,2521,1066,1455,1,53.763,13,damping
1780597330.3467252,21.325404100003652,21563,0.041016,-0.014648,1.064209,2.259542,2.51145,-1.267176,1.0651,3.608136,1457,2524,1067,1457,0,71.942,7,damping
1780597330.377144,21.35582310000609,21594,0.049072,-0.029053,1.059326,1.519084,3.091603,-0.694656,1.06086,3.513997,1458,2526,1068,1458,0,71.942,7,damping
1780597330.4085023,21.38718119999976,21625,0.030518,-0.006104,1.055176,1.862595,3.473282,-0.564886,1.055635,3.981463,1460,2529,1069,1460,1,71.942,15,damping
1780597330.4401839,21.418862899998203,21656,0.026367,-0.018066,1.047607,1.641221,2.618321,-1.038168,1.048095,3.259909,1465,2536,1071,1465,0,71.942,0,damping
1780597330.4707122,21.449391100002686,21687,0.039062,-0.026855,1.057617,2.137405,3.351145,-0.908397,1.058679,4.077236,1467,2541,1074,1467,1,71.942,13,damping
1780597330.5013804,21.480059399997117,21718,0.020508,-0.015625,1.055664,1.862595,2.610687,-1.129771,1.055979,3.400196,1469,2544,1075,1469,0,71.942,7,damping
1780597330.5333538,21.512032800004818,21750,0.033691,-0.02002,1.05957,1.458015,3.328244,-0.89313,1.060295,3.741751,1470,2546,1076,1470,0,71.942,8,damping
1780597330.564327,21.543006000007153,21781,0.05957,-0.040771,1.049561,2.045802,3.091603,-1.137405,1.05204,3.877757,1471,2549,1078,1471,1,71.942,15,damping
1780597330.5959613,21.574640200007707,21812,0.059326,-0.025635,1.058838,2.053435,3.389313,-1.198473,1.060808,4.140094,1474,2554,1080,1474,0,71.942,1,damping
1780597330.6266096,21.60528859999613,21843,0.051758,-0.031006,1.062012,1.450382,3.496183,-1.114504,1.063724,3.94576,1476,2558,1082,1476,0,67.857,0,damping
1780597330.658051,21.63672989999759,21874,0.051025,-0.033691,1.057617,1.671756,3.854962,-0.89313,1.059383,4.295716,1479,2563,1084,1479,1,67.857,13,damping
1780597330.6880186,21.66669759999786,21905,0.053467,-0.02124,1.064209,1.694656,3.526718,-1.290076,1.065763,4.119939,1481,2566,1085,1481,0,67.857,8,damping
1780597330.7200384,21.698717399995076,21936,0.04834,-0.04541,1.052002,1.175572,3.21374,-0.70229,1.05409,3.493324,1482,2569,1087,1482,1,67.857,15,damping
1780597330.7513347,21.73001369999838,21967,0.053467,-0.029541,1.058594,1.770992,3.129771,-1.167939,1.060355,3.781,1484,2573,1089,1484,1,67.857,1,damping
1780597330.7827106,21.761389399995096,21999,0.046143,-0.029053,1.056885,2.183206,2.78626,-0.862595,1.05829,3.643309,1487,2578,1091,1487,0,67.857,0,damping
1780597330.8125956,21.791274500006693,22030,0.030029,-0.033203,1.053467,1.473282,2.801527,-1.0,1.054418,3.319505,1489,2583,1094,1489,1,67.857,13,damping
1780597330.8435073,21.82218630000716,22060,0.039307,-0.008789,1.059326,1.648855,2.641221,-0.725191,1.060092,3.196979,1491,2586,1095,1491,0,67.857,7,damping
1780597330.874391,21.853069999997388,22091,0.050049,-0.017822,1.06958,1.770992,2.862595,-1.312977,1.070899,3.613139,1492,2588,1096,1492,0,67.857,7,damping
1780597330.9055815,21.884260399994673,22122,0.042725,-0.01416,1.054688,2.351145,3.068702,-1.236641,1.055648,4.05883,1493,2591,1098,1493,1,60.932,15,damping
1780597330.9367774,21.915456300004735,22153,0.04248,-0.003906,1.060303,1.167939,3.51145,-0.755725,1.061161,3.776968,1496,2596,1100,1496,0,60.932,0,damping
1780597330.9686735,21.94735230000515,22184,0.059082,-0.039795,1.059326,1.671756,3.48855,-1.473282,1.061718,4.139482,1498,2600,1102,1498,0,60.932,1,damping
1780597330.9997327,21.978411600008258,22215,0.046143,-0.031494,1.057617,2.206107,3.839695,-0.740458,1.059092,4.489815,1501,2605,1104,1501,1,60.932,13,damping
1780597331.0297492,22.008428200002527,22246,0.037109,-0.034912,1.057129,1.335878,3.51145,-0.740458,1.058356,3.829247,1503,2608,1105,1503,0,60.932,7,damping
1780597331.0614643,22.04014320000715,22277,0.030518,-0.037598,1.052734,1.977099,2.984733,-0.80916,1.053847,3.670462,1504,2611,1107,1504,1,60.932,15,damping
1780597331.0924168,22.071095699997386,22308,0.020752,-0.018066,1.053223,1.137405,2.259542,-1.526718,1.053582,2.954672,1507,2616,1109,1507,0,60.932,0,damping
1780597331.1230855,22.101764399994863,22339,0.033691,-0.023438,1.068359,1.068702,3.236641,-1.038168,1.069148,3.563112,1509,2620,1111,1509,0,60.932,0,damping
1780597331.1538672,22.132546099994215,22370,0.028076,-0.031006,1.055664,2.435115,2.679389,-1.48855,1.056492,3.914676,1512,2627,1115,1512,1,60.932,13,damping
1780597331.1899343,22.168613300003926,22406,0.042236,-0.008301,1.066162,1.160305,2.603053,-1.08397,1.067031,3.049128,1514,2630,1116,1514,0,73.944,8,damping
1780597331.2217653,22.200444300004165,22437,0.043701,-0.009033,1.053711,1.89313,2.51145,-1.351145,1.054655,3.422998,1515,2633,1118,1515,1,73.944,16,damping
1780597331.2502325,22.22891140000138,22468,0.048828,-0.001465,1.061279,1.564886,2.40458,-0.847328,1.062403,2.991461,1518,2638,1120,1518,0,73.944,0,damping
1780597331.2828057,22.261484600006952,22498,0.024658,-0.0354,1.060791,1.70229,3.083969,-0.755725,1.061668,3.602746,1520,2642,1122,1520,0,73.944,0,damping
1780597331.31843,22.297108800004935,22528,0.058105,-0.018066,1.060547,1.80916,2.648855,-0.977099,1.062291,3.35324,1522,2647,1125,1522,1,73.944,14,damping
1780597331.343151,22.321830000000773,22559,0.041504,-0.023682,1.061523,1.51145,2.633588,-0.870229,1.062598,3.158729,1525,2651,1126,1525,0,73.944,2,damping
1780597331.3748696,22.353548600003705,22590,0.052979,-0.018311,1.062256,1.274809,2.618321,-0.977099,1.063734,3.07172,1526,2653,1127,1526,0,73.944,7,damping
1780597331.405866,22.384544900007313,22622,0.039062,-0.014404,1.059814,2.29771,3.450382,-0.870229,1.060632,4.235788,1527,2656,1129,1527,1,73.944,15,damping
1780597331.436927,22.415606099995784,22653,0.044189,-0.009766,1.060059,0.824427,3.725191,-0.992366,1.061024,3.942273,1530,2661,1131,1530,0,73.944,0,damping
1780597331.4680922,22.44677120000415,22684,0.05127,-0.039795,1.056885,2.854962,3.389313,-0.877863,1.058876,4.51762,1532,2665,1133,1532,0,64.748,0,damping
1780597331.4992452,22.47792410000693,22715,0.048584,-0.012207,1.057861,2.137405,3.549618,-0.824427,1.059047,4.224686,1535,2671,1136,1535,0,64.748,8,damping
1780597331.5306885,22.509367499995278,22747,0.055664,-0.010498,1.065918,0.21374,2.847328,-0.977099,1.067422,3.017894,1536,2673,1137,1536,0,64.748,7,damping
1780597331.5623305,22.541009499997017,22778,0.052734,-0.02124,1.056885,1.587786,2.969466,-1.229008,1.058413,3.584586,1537,2676,1139,1537,1,64.748,15,damping
1780597331.592605,22.571284000005107,22809,0.036621,0.007568,1.063721,2.183206,2.320611,-1.061069,1.064378,3.358198,1540,2681,1141,1540,0,64.748,1,damping
1780597331.6232944,22.601973299999372,22840,0.052734,-0.016357,1.062744,0.824427,2.931298,-1.221374,1.064177,3.280845,1542,2685,1143,1542,0,64.748,0,damping
1780597331.6543577,22.633036500003072,22871,0.047852,-0.032959,1.049316,2.900763,2.587786,-1.519084,1.050924,4.17357,1545,2692,1147,1545,1,64.748,13,damping
1780597331.6847413,22.663420099997893,22902,0.043945,-0.012939,1.055176,2.0,3.282443,-0.824427,1.05617,3.931172,1547,2695,1148,1547,0,64.748,7,damping
1780597331.7162757,22.694954699996742,22933,0.051025,-0.032471,1.055176,0.763359,3.732824,-0.992366,1.056908,3.937192,1548,2697,1149,1548,0,64.748,7,damping
1780597331.747852,22.726531000007526,22964,0.056152,-0.023438,1.0625,2.89313,3.038168,-1.030534,1.064241,4.32003,1550,2700,1150,1550,0,64.286,14,damping
1780597331.77761,22.756288899996434,22995,0.032715,-0.008789,1.063477,2.427481,3.328244,-1.21374,1.064016,4.294536,1555,2707,1152,1555,0,64.286,0,damping
1780597331.8096344,22.788313400000334,23025,0.052979,-0.01123,1.06543,1.167939,3.603053,-0.862595,1.066805,3.884604,1557,2711,1154,1557,0,64.286,0,damping
1780597331.840213,22.818891899994924,23056,0.054199,-0.02417,1.059326,0.679389,3.435115,-1.08397,1.060987,3.665593,1562,2717,1155,1562,0,64.286,7,damping
1780597331.8709745,22.849653400000534,23087,0.062988,-0.012695,1.06665,2.290076,2.519084,-1.167939,1.068584,3.59921,1563,2719,1156,1563,0,64.286,7,damping
1780597331.9011524,22.87983140000142,23118,0.05957,-0.009766,1.053711,1.038168,3.137405,-0.984733,1.055439,3.448304,1564,2722,1158,1564,1,64.286,15,damping
1780597331.9329503,22.911629299997003,23149,0.026123,0.011475,1.05127,0.48855,2.587786,-0.992366,1.051657,2.814269,1568,2727,1159,1568,0,64.286,0,damping
1780597331.9646251,22.943304000000353,23180,0.04834,-0.013672,1.065186,2.709924,2.778626,-1.221374,1.066369,4.068932,1570,2731,1161,1570,0,64.286,0,damping
1780597331.9946425,22.973321400000714,23211,0.036133,-0.029297,1.051758,1.91603,2.603053,-1.045802,1.052786,3.397169,1572,2736,1164,1572,1,64.286,13,damping
1780597332.0247993,23.003478200000245,23242,0.044189,-0.03125,1.055176,0.641221,3.290076,-0.946565,1.056563,3.483066,1574,2739,1165,1574,0,86.331,8,damping
1780597332.0553849,23.034063900006004,23272,0.033691,-0.033203,1.060791,2.21374,2.496183,-0.656489,1.061845,3.400375,1575,2741,1166,1575,0,86.331,7,damping
1780597332.086905,23.065583999996306,23303,0.05542,-0.011963,1.065674,1.870229,2.496183,-1.290076,1.067181,3.37535,1576,2744,1168,1576,1,86.331,15,damping
1780597332.1174436,23.096122400005697,23334,0.060791,-0.021973,1.061035,0.656489,3.671756,-0.847328,1.063002,3.825014,1581,2751,1170,1581,0,86.331,0,damping
1780597332.1488364,23.127515400003176,23365,0.040527,-0.01001,1.068115,1.740458,3.10687,-0.755725,1.068931,3.640461,1583,2755,1172,1583,0,86.331,0,damping
1780597332.1800733,23.15875220000453,23396,0.057129,-0.01001,1.063477,1.022901,3.992366,-0.900763,1.065057,4.218612,1586,2759,1173,1586,0,86.331,8,damping
1780597332.2098563,23.188535199995385,23427,0.042236,-0.025391,1.061035,0.992366,3.351145,-1.351145,1.062179,3.747073,1587,2761,1174,1587,0,86.331,7,damping
1780597332.2425597,23.221238600002835,23458,0.035645,-0.017578,1.049561,1.824428,2.458015,-1.328244,1.050313,3.336856,1588,2765,1177,1588,1,86.331,0,damping
1780597332.2746096,23.253288399995654,23490,0.054932,-0.010986,1.058594,1.396947,3.358779,-1.251908,1.060075,3.847094,1593,2772,1179,1593,0,86.331,1,damping
1780597332.3069992,23.28567810000095,23522,0.043701,-0.035156,1.057129,1.671756,2.78626,-0.89313,1.058616,3.36982,1595,2776,1181,1595,0,75.0,0,damping
1780597332.3512323,23.329911199994967,23553,0.060791,-0.023193,1.067871,2.610687,2.89313,-1.198473,1.069852,4.077036,1597,2781,1184,1597,1,75.0,13,damping
1780597332.3678045,23.34648350000498,23584,0.063965,-0.033447,1.063232,1.435114,3.366412,-0.938931,1.06568,3.778078,1599,2784,1185,1599,0,75.0,7,damping
1780597332.397827,23.376505799998995,23615,0.044922,-0.022217,1.058838,1.40458,3.70229,-1.061069,1.060023,4.099471,1600,2786,1186,1600,0,75.0,7,damping
1780597332.429335,23.40801410000131,23645,0.060303,-0.028809,1.053467,2.587786,3.045802,-1.068702,1.055584,4.137109,1602,2789,1187,1602,1,75.0,14,damping
1780597332.459571,23.438249800004996,23676,0.040527,-0.024414,1.063965,1.832061,3.19084,-0.900763,1.065016,3.788044,1607,2796,1189,1607,0,75.0,1,damping
1780597332.4914749,23.47015380000812,23707,0.065918,-0.023682,1.05249,1.709924,3.145038,-0.916031,1.054818,3.695161,1609,2801,1192,1609,1,75.0,13,damping
1780597332.5228937,23.501572699999087,23740,0.027588,-0.018066,1.056641,2.351145,2.465649,-1.198473,1.057155,3.611599,1619,2812,1193,1619,0,75.0,0,damping
1780597332.5537972,23.532476299995324,23771,0.025391,-0.025635,1.048828,1.358779,2.839695,-0.816794,1.049448,3.252276,1620,2814,1194,1620,0,75.0,8,damping
1780597332.5856926,23.564371700005722,23802,0.051758,-0.023926,1.054932,2.160305,2.923664,-1.068702,1.056472,3.789044,1621,2817,1196,1621,1,92.857,15,damping
1780597332.6170483,23.595727100007934,23833,0.035156,-0.016602,1.058106,1.641221,3.587786,-0.89313,1.05882,4.045182,1626,2824,1198,1626,0,92.857,1,damping
1780597332.6478806,23.62655950000044,23864,0.04834,-0.022461,1.066406,1.503817,3.40458,-0.992366,1.067738,3.851937,1628,2828,1200,1628,0,92.857,1,damping
1780597332.6777983,23.656477199998335,23894,0.038574,-0.029785,1.052978,1.633588,3.450382,-0.969466,1.054106,3.938732,1630,2833,1203,1630,1,92.857,14,damping
1780597332.7087412,23.687420200003544,23925,0.052734,-0.026855,1.061035,1.80916,3.0,-0.755725,1.062684,3.583878,1632,2836,1204,1632,0,92.857,8,damping
1780597332.7398856,23.718564499999047,23955,0.065918,-0.030029,1.060791,1.946565,3.465649,-1.099237,1.063261,4.124095,1633,2838,1205,1633,0,92.857,8,damping
1780597332.7694016,23.748080400007893,23986,0.071289,-0.018555,1.056396,2.145038,3.366412,-1.0,1.058962,4.115084,1636,2843,1207,1636,1,92.857,13,damping
1780597332.80172,23.780398799994146,24017,0.049561,-0.029541,1.061523,1.603053,3.251908,-1.007634,1.06309,3.762979,1641,2850,1209,1641,0,92.857,1,damping
1780597332.8318818,23.810560600002646,24048,0.055664,-0.020264,1.050293,1.824428,3.328244,-0.778626,1.051962,3.874533,1643,2855,1212,1643,1,92.857,13,damping
1780597332.8625584,23.84123730000283,24079,0.040771,-0.02124,1.061768,1.839695,2.251908,-0.824427,1.062762,3.022457,1645,2858,1213,1645,0,86.643,8,damping
1780597332.893657,23.872335899999598,24110,0.048828,-0.032959,1.065918,1.412214,2.557252,-0.961832,1.067545,3.07555,1646,2860,1214,1646,0,86.643,8,damping
1780597332.9248607,23.903539599996293,24141,0.042969,-0.030273,1.055908,2.015267,2.51145,-1.167939,1.057216,3.425312,1647,2863,1216,1647,1,86.643,15,damping
1780597332.956157,23.93483600000036,24172,0.035889,-0.026367,1.05957,0.931298,2.709924,-0.763359,1.060506,2.96542,1652,2870,1218,1652,0,86.643,1,damping
1780597332.9864128,23.965091799997026,24203,0.037354,-0.025879,1.062988,1.824428,2.992366,-0.801527,1.063959,3.595168,1654,2874,1220,1654,0,86.643,1,damping
1780597333.0177782,23.996457100001862,24234,0.049072,-0.01709,1.056152,1.961832,2.862595,-0.870229,1.05743,3.577784,1655,2877,1222,1655,1,86.643,15,damping
1780597333.0481339,24.02681290000328,24265,0.058594,-0.012207,1.062988,0.763359,3.954198,-0.839695,1.064672,4.113817,1657,2880,1223,1657,0,86.643,8,damping
1780597333.078668,24.05734699999448,24296,0.038574,-0.012939,1.056641,1.610687,3.580153,-0.80916,1.057424,4.00831,1658,2882,1224,1658,0,86.643,8,damping
1780597333.1093044,24.087983400007943,24326,0.055908,-0.037842,1.056396,2.29771,3.572519,-0.977099,1.058551,4.358565,1661,2887,1226,1661,1,86.643,13,damping
1780597333.1399693,24.11864830000559,24356,0.041748,-0.022461,1.059326,1.045802,3.206107,-0.641221,1.060386,3.432781,1666,2894,1228,1666,0,75.812,0,damping
1780597333.17164,24.150318900006823,24387,0.045654,-0.017822,1.05835,1.824428,3.259542,-1.10687,1.059484,3.895935,1667,2896,1229,1667,0,75.812,7,damping
1780597333.2023046,24.180983500002185,24418,0.062988,-0.024902,1.059814,2.091603,3.625954,-0.725191,1.061977,4.248323,1670,2900,1230,1670,0,75.812,8,damping
1780597333.233189,24.211867999998503,24450,0.044434,-0.010498,1.067383,1.908397,2.816794,-0.648855,1.068359,3.463715,1671,2902,1231,1671,0,75.812,7,damping
1780597333.2790236,24.25770270000794,24481,0.020264,-0.036865,1.040772,1.572519,2.572519,-1.122137,1.041621,3.21712,1672,2905,1233,1672,1,75.812,15,damping
1780597333.2969685,24.275647300004493,24513,0.05542,-0.031738,1.057129,1.152672,2.78626,-0.839695,1.059056,3.130013,1677,2912,1235,1677,0,75.812,0,damping
1780597333.3273425,24.306021500000497,24544,0.035645,-0.033447,1.062988,2.038168,2.503817,-1.068702,1.064112,3.400787,1679,2916,1237,1679,0,75.812,0,damping
1780597333.3585165,24.33719530000235,24575,0.04541,-0.022217,1.047363,2.083969,3.343511,-1.221374,1.048583,4.124773,1680,2919,1239,1680,1,75.812,15,damping
1780597333.3908389,24.36951780000527,24606,0.046631,-0.029297,1.051025,1.290076,3.274809,-0.770992,1.052467,3.603207,1682,2922,1240,1682,0,64.0,7,damping
1780597333.4204993,24.399178200008464,24637,0.046387,-0.03125,1.052002,1.687023,3.198473,-1.206107,1.053488,3.811951,1683,2924,1241,1683,0,64.0,7,damping
