host_epoch_s,host_elapsed_s,time_ms,ax,ay,az,gx,gy,gz,acc_mag,gyro_mag,pulse_count,edge_count,rise_count,fall_count,state,pulse_rate_hz,last_edge_dt_ms,label
1780595045.9476304,0.02502430000458844,188,0.036865,-0.028564,1.046143,1.335878,3.557252,-0.51145,1.047182,3.834083,18,30,12,18,0,0.0,0,damping
1780595045.9792693,0.056663199997274205,219,0.049316,-0.018555,1.056885,1.664122,3.366412,-0.916031,1.058197,3.865378,20,34,14,20,0,0.0,0,damping
1780595046.0097878,0.08718170000065584,250,0.03418,-0.02002,1.048096,1.709924,2.832061,-0.679389,1.048844,3.377274,23,40,17,23,0,92.0,6,damping
1780595046.0408447,0.1182388000015635,281,0.043701,-0.019775,1.064697,1.328244,3.221374,-0.656489,1.065777,3.545766,27,46,19,27,0,92.0,0,damping
1780595046.0717297,0.14912370000092778,312,0.027588,-0.029785,1.05249,1.236641,2.374046,-0.70229,1.053273,2.767415,29,51,22,29,1,92.0,14,damping
1780595046.1041758,0.18156979999912437,343,0.024658,-0.010986,1.054199,1.465649,2.709924,-1.022901,1.054545,3.24625,34,58,24,34,0,92.0,0,damping
1780595046.1332111,0.2106052000017371,374,0.02832,-0.009277,1.056641,1.480916,2.885496,-0.770992,1.057061,3.333711,36,62,26,36,0,92.0,1,damping
1780595046.164337,0.24173100000189152,404,0.044922,-0.019775,1.048828,1.465649,2.832061,-0.931298,1.049976,3.322049,38,67,29,38,1,92.0,14,damping
1780595046.206402,0.2837961000041105,435,0.038574,-0.022705,1.055176,1.435114,3.129771,-1.091603,1.056125,3.61201,42,72,30,42,0,92.0,5,damping
1780595046.2254078,0.30280190000485163,466,0.04248,-0.025635,1.04541,1.847328,3.0,-0.931298,1.046587,3.644165,44,76,32,44,0,92.0,0,damping
1780595046.2559876,0.33338160000857897,496,0.060547,-0.02832,1.052978,1.641221,2.961832,-1.259542,1.055098,3.612825,45,79,34,45,1,92.0,17,damping
1780595046.2866273,0.3640213000035146,527,0.053955,-0.015381,1.059082,0.816794,3.465649,-0.557252,1.060567,3.603943,50,86,36,50,0,97.473,0,damping
1780595046.3180606,0.3954546000022674,558,0.041748,-0.033447,1.066406,2.236641,3.19084,-0.80916,1.067747,3.979794,52,90,38,52,0,97.473,0,damping
1780595046.3486612,0.4260552000050666,589,0.063965,-0.028076,1.058838,2.015267,3.816794,-0.618321,1.06114,4.360222,56,96,40,56,0,97.473,7,damping
1780595046.3809364,0.45833029999630526,620,0.041016,-0.01416,1.061523,1.320611,3.618321,-0.816794,1.06241,3.937437,60,102,42,60,0,97.473,0,damping
1780595046.412455,0.4898492000065744,652,0.034668,-0.027588,1.038818,1.534351,2.564885,-1.167939,1.039763,3.208886,62,107,45,62,1,97.473,14,damping
1780595046.4435647,0.5209585999982664,683,0.037598,-0.009277,1.060303,1.931298,2.778626,-1.290076,1.06101,3.62146,67,114,47,67,0,97.473,1,damping
1780595046.47408,0.551474000007147,714,0.043457,-0.013916,1.056641,1.51145,3.236641,-0.992366,1.057625,3.707441,69,118,49,69,0,97.473,0,damping
1780595046.504853,0.582247099999222,745,0.054688,-0.015869,1.05957,1.129771,2.908397,-1.183206,1.061099,3.336934,71,123,52,71,1,97.473,13,damping
1780595046.5358784,0.6132725000061328,776,0.053711,-0.007568,1.053711,1.160305,3.236641,-0.679389,1.055106,3.504815,76,130,54,76,0,97.473,0,damping
1780595046.5679631,0.645357100002002,807,0.052246,-0.039062,1.049316,1.717557,2.908397,-0.664122,1.051342,3.442359,78,134,56,78,0,100.0,1,damping
1780595046.598693,0.6760868999990635,838,0.056152,-0.037598,1.057373,2.320611,3.160305,-0.572519,1.05953,3.962391,82,140,58,82,0,100.0,6,damping
1780595046.6308594,0.7082534000073792,870,0.041748,-0.01416,1.06543,1.564886,3.137405,-0.832061,1.066341,3.603401,86,146,60,86,0,100.0,1,damping
1780595046.6613083,0.7387023000046611,901,0.040527,-0.010742,1.046875,1.656489,2.755725,-0.877863,1.047714,3.332959,88,151,63,88,1,100.0,14,damping
1780595046.6930275,0.7704215999983717,932,0.02124,-0.029297,1.041504,1.91603,2.541985,-1.129771,1.042132,3.377757,93,158,65,93,0,100.0,0,damping
1780595046.7236218,0.8010158999968553,963,0.021973,-0.016357,1.060547,2.068702,2.801527,-0.824427,1.060901,3.578793,95,162,67,95,0,100.0,0,damping
1780595046.7538896,0.8312834999960614,994,0.027344,-0.023682,1.041992,1.541985,3.122137,-0.801527,1.04262,3.57322,97,167,70,97,1,100.0,14,damping
1780595046.786014,0.8634082000062335,1025,0.048096,-0.016113,1.05249,1.465649,3.274809,-0.916031,1.053712,3.70292,102,174,72,102,0,100.0,1,damping
1780595046.815864,0.8932580999971833,1056,0.035645,-0.033203,1.052002,2.229008,3.061069,-1.061069,1.053129,3.932491,104,178,74,104,0,100.0,0,damping
1780595046.848006,0.9254000000073574,1087,0.044678,-0.017334,1.057129,1.847328,3.793893,-0.748092,1.058215,4.285544,107,183,76,107,1,103.571,13,damping
1780595046.8779962,0.9553902000043308,1118,0.050293,-0.01709,1.062988,1.374046,2.992366,-0.954198,1.064315,3.428229,112,190,78,112,0,103.571,0,damping
1780595046.9108655,0.9882595999952173,1150,0.043213,-0.022217,1.057129,1.305344,3.244275,-0.519084,1.058245,3.535348,114,195,81,114,1,103.571,14,damping
1780595046.941674,1.01906790000794,1181,0.040771,-0.01709,1.057861,1.236641,2.503817,-0.877863,1.058785,2.927289,118,201,83,118,1,103.571,3,damping
1780595046.9733357,1.050729800001136,1213,0.035645,-0.010254,1.049316,1.328244,2.908397,-0.748092,1.049972,3.283694,121,206,85,121,0,103.571,0,damping
1780595047.0043612,1.0817552000080468,1244,0.053467,-0.01709,1.057861,1.580153,2.977099,-1.091603,1.059349,3.542824,123,211,88,123,1,103.571,13,damping
1780595047.0363374,1.1137314000079641,1275,0.055908,-0.017578,1.053223,1.274809,3.610687,-0.648855,1.054852,3.883711,128,218,90,128,0,103.571,0,damping
1780595047.0667186,1.1441126999998232,1306,0.043457,-0.033691,1.054443,1.526718,3.496183,-0.80916,1.055876,3.89986,130,222,92,130,0,103.571,1,damping
1780595047.0977266,1.1751205000036862,1337,0.054443,-0.021484,1.057373,1.885496,3.40458,-0.618321,1.058992,3.940632,134,228,94,134,0,108.0,6,damping
1780595047.128661,1.2060550000023795,1368,0.054443,-0.013916,1.070068,1.40458,3.267176,-0.870229,1.071543,3.661226,138,234,96,138,0,108.0,1,damping
1780595047.15864,1.2360337999998592,1399,0.050537,-0.034912,1.060547,1.335878,2.984733,-0.923664,1.062324,3.397993,140,238,98,140,1,108.0,0,damping
1780595047.1898232,1.267217200002051,1430,0.046143,-0.023682,1.05835,1.618321,2.274809,-0.969466,1.05962,2.955263,145,244,99,145,0,108.0,5,damping
1780595047.220856,1.2982500000071013,1461,0.040039,-0.02832,1.053711,1.748092,2.366412,-0.931298,1.054852,3.085944,149,250,101,149,0,108.0,0,damping
1780595047.251802,1.3291959000052884,1492,0.02832,-0.026123,1.05127,1.679389,2.40458,-0.961832,1.051975,3.086661,151,255,104,151,1,108.0,14,damping
1780595047.2835615,1.3609555000002729,1523,0.041992,-0.004883,1.054932,1.541985,2.931298,-1.022901,1.055778,3.46649,156,262,106,156,0,108.0,0,damping
1780595047.3148034,1.3921973999968031,1554,0.046387,-0.030029,1.050293,1.824428,2.763359,-1.099237,1.051746,3.488984,158,266,108,158,0,108.0,0,damping
1780595047.3452177,1.4226116000063485,1585,0.056152,-0.017334,1.063721,2.396947,2.847328,-1.068702,1.065343,3.872306,161,271,110,161,1,108.0,13,damping
1780595047.3757908,1.4531849000049988,1616,0.038818,-0.030273,1.052002,1.022901,3.312977,-0.725191,1.053153,3.542322,166,278,112,166,0,114.695,0,damping
1780595047.4073348,1.4847288000019034,1647,0.050537,-0.016602,1.05542,1.687023,3.396947,-0.877863,1.05676,3.893062,168,282,114,168,0,114.695,1,damping
1780595047.4396446,1.5170385999954306,1678,0.047363,-0.013916,1.058838,1.503817,3.412214,-0.412214,1.059988,3.751612,172,288,116,172,0,114.695,6,damping
1780595047.4688606,1.5462547000061022,1709,0.044922,-0.012207,1.059326,1.320611,2.984733,-0.923664,1.060348,3.39202,176,294,118,176,0,114.695,0,damping
1780595047.5011377,1.5785316999972565,1740,0.04126,-0.007813,1.053955,1.442748,3.053435,-0.954198,1.054791,3.509342,178,299,121,178,1,114.695,13,damping
1780595047.5309508,1.6083447999990312,1771,0.024414,-0.023193,1.053467,1.465649,2.549618,-0.900763,1.054005,3.07572,183,306,123,183,0,114.695,0,damping
1780595047.562469,1.6398629000032088,1802,0.037598,-0.02832,1.061035,1.824428,3.061069,-0.984733,1.062079,3.697077,185,310,125,185,0,114.695,1,damping
1780595047.5931952,1.6705892000027234,1833,0.050049,-0.031982,1.053711,1.740458,2.80916,-1.038168,1.055384,3.463866,187,315,128,187,1,114.695,14,damping
1780595047.6243007,1.7016947000083746,1864,0.045654,-0.017822,1.052002,1.80916,3.183206,-1.160305,1.053143,3.840856,192,322,130,192,0,114.695,1,damping
1780595047.655225,1.7326191000029212,1895,0.032227,-0.035645,1.052246,2.015267,3.007634,-0.816794,1.053343,3.711376,194,326,132,194,0,100.358,0,damping
1780595047.6865592,1.7639533000037773,1926,0.034668,-0.018799,1.059814,1.793893,3.412214,-0.885496,1.060548,3.955422,197,331,134,197,1,100.358,14,damping
1780595047.717754,1.7951479000039399,1957,0.05127,-0.022705,1.048096,1.267176,3.267176,-0.648855,1.049594,3.563872,202,338,136,202,0,100.358,0,damping
1780595047.749617,1.827011000001221,1989,0.053223,-0.017822,1.053467,1.870229,3.045802,-0.900763,1.054961,3.685924,204,343,139,204,1,100.358,14,damping
1780595047.7816756,1.8590695000020787,2021,0.021729,-0.017334,1.05127,1.534351,2.564885,-1.473282,1.051637,3.332181,209,350,141,209,0,100.358,1,damping
1780595047.813573,1.8909668999986025,2053,0.043213,-0.019287,1.053223,1.236641,2.755725,-0.862595,1.054285,3.141238,211,354,143,211,0,100.358,0,damping
1780595047.844126,1.921520000003511,2084,0.046631,-0.014893,1.05249,1.496183,3.572519,-1.114504,1.053628,4.030332,214,359,145,214,1,100.358,13,damping
1780595047.8758614,1.9532553000026383,2115,0.05957,-0.028076,1.048096,1.091603,2.885496,-0.900763,1.050163,3.213886,219,366,147,219,0,100.358,0,damping
1780595047.9056118,1.9830057000071974,2146,0.055908,-0.029053,1.059082,1.740458,2.908397,-0.694656,1.060955,3.459843,221,370,149,221,0,107.57,1,damping
1780595047.937595,2.0149889000022085,2177,0.058594,-0.020264,1.059326,1.648855,2.961832,-0.48855,1.061139,3.424888,225,376,151,225,0,107.57,6,damping
1780595047.9684684,2.0458625000028405,2208,0.042236,-0.008057,1.066162,1.366412,3.022901,-0.671756,1.067029,3.384711,229,382,153,229,0,107.57,1,damping
1780595048.0000386,2.077432599995518,2239,0.046143,-0.01123,1.05249,1.725191,3.015267,-0.824427,1.053561,3.570406,231,387,156,231,1,107.57,13,damping
1780595048.0302773,2.107671300007496,2270,0.032227,-0.020508,1.041504,1.351145,2.465649,-1.236641,1.042204,3.07153,236,394,158,236,0,107.57,0,damping
1780595048.0620952,2.139489199995296,2301,0.050049,-0.040283,1.057861,1.984733,2.89313,-0.931298,1.05981,3.62997,237,396,159,237,0,107.57,5,damping
1780595048.0921183,2.1695122999954037,2332,0.035889,-0.020264,1.046631,1.580153,2.816794,-0.984733,1.047442,3.376523,239,401,162,239,1,107.57,14,damping
1780595048.1226237,2.2000176000001375,2363,0.040771,-0.02124,1.052002,1.557252,3.091603,-0.80916,1.053006,3.554966,244,408,164,244,0,107.57,1,damping
1780595048.153526,2.2309201000025496,2394,0.029541,-0.035889,1.042236,2.145038,3.160305,-0.954198,1.043272,3.936904,246,412,166,246,0,107.57,0,damping
1780595048.1859646,2.2633586000010837,2425,0.039062,-0.016846,1.054688,1.89313,3.206107,-1.030534,1.055545,3.863297,249,417,168,249,1,100.358,14,damping
1780595048.2156668,2.293060800002422,2456,0.04126,-0.0271,1.055908,1.229008,3.335878,-0.70229,1.057061,3.623776,254,424,170,254,0,100.358,0,damping
1780595048.2475433,2.3249374000006355,2487,0.04126,-0.018555,1.056152,1.244275,3.427481,-0.770992,1.057121,3.726966,256,428,172,256,0,100.358,0,damping
1780595048.2782278,2.3556219000020064,2518,0.041748,-0.023926,1.054443,1.480916,3.290076,-0.29771,1.055541,3.620269,260,434,174,260,0,100.358,6,damping
1780595048.309994,2.387388100003591,2550,0.044434,-0.023926,1.064697,1.358779,3.21374,-0.526718,1.065893,3.528716,264,440,176,264,0,100.358,0,damping
1780595048.341076,2.418470000004163,2581,0.033447,-0.029053,1.054443,1.977099,2.603053,-0.992366,1.055374,3.41608,266,445,179,266,1,100.358,13,damping
1780595048.371976,2.449369800000568,2612,0.045166,-0.007568,1.056885,1.725191,2.916031,-1.343511,1.057876,3.644797,271,452,181,271,0,100.358,1,damping
1780595048.4030108,2.4804049000085797,2643,0.042725,-0.033691,1.056641,1.80916,3.038168,-1.175572,1.058041,3.726325,272,454,182,272,0,100.358,6,damping
1780595048.4340732,2.511467200005427,2674,0.043213,-0.028076,1.051758,1.435114,3.946565,-1.015267,1.05302,4.320381,275,459,184,275,1,100.358,13,damping
1780595048.465309,2.5427027999976417,2705,0.057617,-0.03418,1.055664,0.954198,3.389313,-1.022901,1.057788,3.666642,280,466,186,280,0,110.714,0,damping
1780595048.4964445,2.57383850000042,2736,0.05127,-0.02124,1.053955,1.580153,3.541985,-0.900763,1.055415,3.981697,282,470,188,282,0,110.714,1,damping
1780595048.5278764,2.6052704000030644,2767,0.041992,-0.026855,1.053223,1.946565,3.10687,-0.21374,1.054402,3.672526,286,476,190,286,0,110.714,6,damping
1780595048.5589738,2.6363677000044845,2799,0.039062,-0.036865,1.054443,1.496183,3.396947,-0.755725,1.05581,3.787998,290,482,192,290,0,110.714,1,damping
1780595048.590796,2.6681899999966845,2830,0.028809,-0.028076,1.050293,1.656489,2.541985,-0.78626,1.051063,3.134302,292,487,195,292,1,110.714,14,damping
1780595048.6222134,2.6996073000045726,2862,0.046143,-0.029297,1.057617,1.801527,2.89313,-1.099237,1.059028,3.581064,297,494,197,297,0,110.714,1,damping
1780595048.653357,2.7307510999962687,2893,0.046143,-0.034424,1.053711,1.618321,2.816794,-0.923664,1.055282,3.377343,299,498,199,299,0,110.714,0,damping
1780595048.684076,2.7614699999976438,2924,0.044434,-0.036377,1.054932,1.580153,3.564885,-0.938931,1.056493,4.010846,302,503,201,302,1,110.714,14,damping
1780595048.715799,2.793193200006499,2955,0.036133,-0.020508,1.054199,1.40458,3.19084,-1.10687,1.055018,3.657795,307,510,203,307,0,108.0,0,damping
1780595048.7469945,2.8243885999982012,2987,0.045898,-0.020264,1.057129,1.931298,3.274809,-0.70229,1.058319,3.866199,308,513,205,308,1,108.0,17,damping
1780595048.7783828,2.855776700002025,3018,0.040771,-0.028564,1.050781,1.709924,2.725191,-0.473282,1.05196,3.251846,313,520,207,313,0,108.0,0,damping
1780595048.8096018,2.8869957999995677,3050,0.037842,-0.002686,1.057129,1.473282,2.908397,-0.778626,1.057809,3.351954,315,524,209,315,0,108.0,0,damping
1780595048.8407059,2.918099800008349,3081,0.049561,-0.026855,1.05249,1.656489,2.740458,-1.198473,1.053999,3.419123,317,529,212,317,1,108.0,13,damping
1780595048.8717833,2.9491773000045214,3112,0.044678,-0.016846,1.047852,1.320611,3.015267,-0.885496,1.048939,3.408805,322,536,214,322,0,108.0,0,damping
1780595048.9028862,2.9802801000041654,3143,0.046387,-0.030762,1.053223,1.435114,3.152672,-1.152672,1.054692,3.650691,324,540,216,324,0,108.0,1,damping
1780595048.934414,3.011807899994892,3174,0.053223,-0.025879,1.054932,1.969466,3.816794,-0.748092,1.05659,4.359627,328,546,218,328,0,108.0,6,damping
1780595048.9649947,3.042388600006234,3205,0.040527,-0.012695,1.056152,1.335878,3.480916,-0.40458,1.057006,3.750337,332,552,220,332,0,100.0,1,damping
1780595048.996485,3.073879000003217,3236,0.043701,-0.039307,1.055664,1.381679,3.21374,-0.801527,1.057299,3.588817,334,556,222,334,0,100.0,0,damping
1780595049.027155,3.104548999996041,3267,0.046631,-0.020508,1.055664,1.946565,3.274809,-0.580153,1.056892,3.853578,339,562,223,339,0,100.0,5,damping
1780595049.0579457,3.135339800006477,3298,0.035889,-0.040039,1.053955,1.183206,3.381679,-0.59542,1.055326,3.631839,343,568,225,343,0,100.0,0,damping
1780595049.0893583,3.166752400007681,3329,0.018311,-0.029541,1.059814,1.396947,2.587786,-0.969466,1.060384,3.096444,344,571,227,344,1,100.0,17,damping
1780595049.1207943,3.198188199996366,3360,0.05127,-0.029541,1.056396,1.625954,2.916031,-1.145038,1.058052,3.5296,350,578,228,350,0,100.0,0,damping
1780595049.1522646,3.2296586000011303,3392,0.048584,-0.032471,1.063477,1.664122,3.183206,-1.114504,1.065081,3.76088,352,582,230,352,0,100.0,0,damping
1780595049.1828327,3.2602268000046024,3423,0.039551,-0.033691,1.056641,2.091603,3.114504,-0.778626,1.057917,3.831605,355,587,232,355,1,100.0,13,damping
1780595049.2145286,3.2919226000085473,3454,0.047363,-0.02002,1.054932,1.244275,3.427481,-0.664122,1.056184,3.706333,360,594,234,360,0,100.0,0,damping
1780595049.2455182,3.322912300005555,3485,0.049561,-0.020508,1.053711,1.160305,3.320611,-0.770992,1.055075,3.600999,362,598,236,362,0,107.143,1,damping
1780595049.275194,3.352587900008075,3516,0.03125,-0.022705,1.054688,1.70229,2.648855,-0.557252,1.055395,3.197617,367,604,237,367,0,107.143,6,damping
1780595049.306875,3.3842689000011887,3546,0.054199,-0.015381,1.062988,1.755725,3.068702,-0.732824,1.06448,3.610614,371,610,239,371,0,107.143,1,damping
1780595049.3391926,3.4165865999966627,3578,0.025391,-0.028564,1.056152,1.625954,2.671756,-0.984733,1.056844,3.278979,373,615,242,373,1,107.143,14,damping
1780595049.3703604,3.4477543999964837,3610,0.047607,-0.018311,1.061768,1.503817,2.977099,-0.70229,1.062992,3.408489,378,622,244,378,0,107.143,1,damping
1780595049.4025903,3.4799842000065837,3642,0.046875,-0.038086,1.05249,1.610687,3.351145,-0.931298,1.054222,3.832988,380,626,246,380,0,107.143,0,damping
1780595049.4340622,3.5114562999951886,3673,0.045166,-0.0271,1.050537,1.641221,3.908397,-0.572519,1.051857,4.277494,383,630,247,383,0,107.143,6,damping
1780595049.4642556,3.541649499995401,3705,0.048584,-0.013916,1.063477,1.274809,3.229008,-0.816794,1.064677,3.56634,387,636,249,387,0,107.143,0,damping
1780595049.4964235,3.573817600001348,3736,0.046631,-0.013672,1.057129,1.473282,2.374046,-0.580153,1.058245,2.853635,389,641,252,389,1,107.57,14,damping
1780595049.5284135,3.605807600004482,3768,0.036133,-0.014404,1.057617,1.351145,2.526718,-1.427481,1.058332,3.201187,395,648,253,395,0,107.57,0,damping
1780595049.5603662,3.6377601999993203,3800,0.043213,-0.030029,1.060059,1.694656,3.122137,-1.167939,1.061364,3.739476,397,652,255,397,0,107.57,0,damping
1780595049.59199,3.6693840000079945,3831,0.041504,-0.04126,1.054443,1.938931,3.564885,-0.89313,1.056066,4.155182,400,657,257,400,0,107.57,13,damping
1780595049.6227934,3.7001874999987194,3862,0.044189,-0.029541,1.052734,1.320611,3.351145,-0.801527,1.054076,3.690072,405,664,259,405,0,107.57,0,damping
1780595049.653291,3.7306849000015063,3893,0.060791,-0.047363,1.054443,1.40458,3.465649,-1.08397,1.057256,3.893399,407,668,261,407,0,107.57,1,damping
1780595049.6847641,3.762158099998487,3924,0.050781,-0.027588,1.051514,1.648855,2.984733,-0.801527,1.0531,3.502827,412,674,262,412,0,107.57,6,damping
1780595049.7148361,3.792230200007907,3955,0.053467,-0.02002,1.064697,1.221374,3.152672,-0.549618,1.066227,3.425372,416,680,264,416,0,107.57,1,damping
1780595049.7468894,3.824283399997512,3986,0.046875,-0.021973,1.057373,1.717557,2.473282,-0.923664,1.05864,3.149648,418,685,267,418,1,116.0,14,damping
1780595049.7775345,3.8549284000037005,4017,0.044434,-0.009033,1.055664,1.587786,2.557252,-1.114504,1.056637,3.209786,421,690,269,421,0,116.0,1,damping
1780595049.8081658,3.885559700007434,4048,0.036377,-0.031006,1.06543,1.778626,2.519084,-0.778626,1.066501,3.180496,423,694,271,423,0,116.0,0,damping
1780595049.839742,3.9171359000029042,4079,0.056641,-0.018555,1.054443,2.152672,3.305344,-1.267176,1.056126,4.14307,425,699,274,425,1,116.0,13,damping
1780595049.8706276,3.9480217000091216,4110,0.040771,-0.025391,1.052246,1.10687,3.091603,-0.732824,1.053342,3.364551,430,706,276,430,0,116.0,0,damping
1780595049.901597,3.9789910999970743,4141,0.041992,-0.025391,1.056152,1.870229,3.21374,-1.114504,1.057292,3.881752,432,710,278,432,0,116.0,0,damping
1780595049.9324603,4.009854300005827,4172,0.053467,-0.009277,1.067139,1.755725,3.725191,-0.160305,1.068517,4.121324,436,716,280,436,0,116.0,6,damping
1780595049.9638178,4.041211899995687,4203,0.046875,-0.025146,1.051025,1.267176,3.427481,-0.381679,1.052371,3.674104,440,722,282,440,0,116.0,0,damping
1780595049.9949005,4.07229450000159,4234,0.053467,-0.030518,1.056152,1.763359,3.015267,-0.770992,1.057945,3.577108,442,727,285,442,1,116.0,13,damping
1780595050.0257132,4.10310720000416,4265,0.022217,-0.023682,1.048828,1.549618,2.824427,-1.045802,1.049331,3.387094,447,734,287,447,0,103.943,0,damping
1780595050.0572305,4.134624600003008,4297,0.045654,-0.018555,1.05542,1.137405,2.656489,-0.954198,1.05657,3.043208,449,738,289,449,0,103.943,1,damping
1780595050.0891128,4.166506699999445,4328,0.054932,-0.025635,1.052734,2.236641,2.938931,-1.145038,1.054478,3.866652,451,743,292,451,1,103.943,14,damping
1780595050.1199126,4.197306600006414,4360,0.036377,-0.024658,1.058838,1.015267,3.480916,-0.877863,1.05975,3.730709,456,750,294,456,0,103.943,1,damping
1780595050.151006,4.22839990000648,4391,0.04248,-0.020508,1.056152,1.625954,3.442748,-0.977099,1.057205,3.930771,458,754,296,458,0,103.943,0,damping
1780595050.1833792,4.260773100002552,4422,0.045166,-0.026123,1.051758,1.969466,2.992366,-0.427481,1.053051,3.60774,462,760,298,462,0,103.943,7,damping
1780595050.2151287,4.292522600007942,4454,0.051514,-0.042236,1.072266,1.633588,2.877863,-0.534351,1.074333,3.352049,466,766,300,466,0,103.943,0,damping
1780595050.2450879,4.322481800001697,4485,0.037598,-0.028564,1.04834,1.587786,3.0,-0.862595,1.049403,3.502162,468,771,303,468,1,103.943,13,damping
1780595050.2763197,4.353713799995603,4516,0.044678,-0.029053,1.056641,1.435114,2.725191,-1.427481,1.057984,3.39469,473,778,305,473,0,103.586,0,damping
1780595050.3074217,4.3848156000021845,4547,0.040771,-0.028809,1.055908,1.908397,2.870229,-0.877863,1.057088,3.556801,475,782,307,475,0,103.586,1,damping
1780595050.3391633,4.416557300006389,4578,0.044922,-0.037109,1.061523,1.778626,3.587786,-0.78626,1.063121,4.080922,477,785,308,477,1,103.586,16,damping
1780595050.3844898,4.461883700001636,4609,0.042236,-0.026123,1.060791,1.137405,3.267176,-0.664122,1.061953,3.522667,482,792,310,482,0,103.586,1,damping
1780595050.4001484,4.477542499997071,4640,0.044678,-0.022705,1.058594,1.503817,3.450382,-0.78626,1.059779,3.845101,484,796,312,484,0,103.586,0,damping
1780595050.4317575,4.5091514000087045,4671,0.047852,-0.02417,1.049316,1.977099,2.725191,-0.641221,1.050685,3.427353,488,802,314,488,0,103.586,6,damping
1780595050.463277,4.540671199996723,4703,0.04541,-0.017334,1.059814,1.099237,3.045802,-0.931298,1.060928,3.369354,492,808,316,492,0,103.586,0,damping
1780595050.4941447,4.571538600008353,4734,0.044189,-0.023193,1.0625,1.40458,2.503817,-0.732824,1.063672,2.962934,494,813,319,494,1,103.586,13,damping
1780595050.5257282,4.6031222000019625,4765,0.048828,-0.018555,1.05957,1.412214,2.610687,-1.137405,1.060857,3.178635,500,820,320,500,0,103.586,0,damping
1780595050.5564911,4.633885100003681,4797,0.034912,-0.023926,1.047607,1.580153,2.977099,-1.053435,1.048462,3.53125,502,824,322,502,0,103.203,1,damping
1780595050.588167,4.665560900000855,4828,0.040039,-0.039062,1.054932,2.145038,3.587786,-0.717557,1.056414,4.24126,506,830,324,506,0,103.203,6,damping
1780595050.6190288,4.696422900000471,4859,0.044434,-0.026611,1.05542,1.236641,3.801527,-0.458015,1.05669,4.023762,509,834,325,509,0,103.203,5,damping
1780595050.6509,4.728293899999699,4890,0.061768,-0.031738,1.055176,1.900763,3.671756,-0.740458,1.057458,4.200354,511,839,328,511,1,103.203,14,damping
1780595050.6809201,4.758314100006828,4921,0.04248,-0.023682,1.047852,1.366412,2.816794,-0.839695,1.04898,3.241373,515,844,329,515,0,103.203,6,damping
1780595050.7123122,4.789706299998215,4952,0.052734,-0.02417,1.063477,1.374046,2.984733,-0.709924,1.065058,3.36164,519,850,331,519,0,103.203,0,damping
1780595050.7437973,4.821191399998497,4983,0.043457,-0.026611,1.056885,1.465649,2.824427,-0.763359,1.058112,3.272344,521,855,334,521,1,103.203,13,damping
1780595050.7749915,4.852385599995614,5014,0.053223,-0.02002,1.062256,1.312977,2.78626,-0.854962,1.063777,3.196578,526,862,336,526,0,103.203,1,damping
1780595050.806561,4.883954999997513,5046,0.051758,-0.031982,1.055664,1.755725,3.061069,-0.572519,1.057416,3.574981,528,866,338,528,0,103.203,1,damping
1780595050.8378646,4.915258699998958,5077,0.055664,-0.020996,1.064209,2.282443,3.412214,-1.030534,1.06587,4.232582,532,872,340,532,0,107.143,6,damping
1780595050.8696702,4.947064200008754,5109,0.060547,-0.015869,1.069092,1.381679,2.954198,-0.641221,1.070922,3.323777,536,878,342,536,0,107.143,1,damping
1780595050.900305,4.977699099996244,5140,0.052002,-0.01001,1.053223,1.564886,2.664122,-0.770992,1.054553,3.184469,538,883,345,538,1,107.143,14,damping
1780595050.9318285,5.009222599997884,5171,0.037842,-0.029785,1.056641,1.572519,2.580153,-1.129771,1.057738,3.225893,543,890,347,543,0,107.143,1,damping
1780595050.9622803,5.039674200001173,5203,0.032227,-0.008789,1.067139,1.801527,3.061069,-1.0,1.067661,3.689938,544,892,348,544,0,107.143,6,damping
1780595050.9943259,5.071719800005667,5233,0.041992,-0.024658,1.05542,1.648855,2.633588,-1.045802,1.056543,3.278446,546,897,351,546,1,107.143,13,damping
1780595051.0245175,5.101911599995219,5264,0.047607,-0.011475,1.052002,1.267176,3.015267,-0.885496,1.053141,3.388462,551,904,353,551,0,107.143,0,damping
1780595051.0553825,5.132776600003126,5295,0.045898,-0.029297,1.051514,1.580153,2.954198,-0.755725,1.052923,3.434427,553,908,355,553,0,107.143,1,damping
1780595051.0863786,5.163772500003688,5326,0.047119,-0.038818,1.053223,2.305344,3.175573,-0.801527,1.05499,4.005162,556,913,357,556,0,107.143,14,damping
1780595051.1175153,5.194909400001052,5357,0.032959,-0.02124,1.059326,1.29771,3.625954,-0.671756,1.060052,3.909329,561,920,359,561,0,103.571,1,damping
1780595051.1505687,5.227962799996021,5388,0.042725,-0.040039,1.05249,1.526718,3.419847,-0.763359,1.054118,3.822164,563,924,361,563,1,103.571,0,damping
1780595051.1794114,5.256805400000303,5419,0.037109,-0.026123,1.043701,1.610687,2.618321,-0.885496,1.044687,3.199066,568,930,362,568,0,103.571,5,damping
1780595051.211501,5.288895000005141,5450,0.036621,-0.029785,1.058838,1.427481,3.167939,-0.870229,1.05989,3.582016,572,936,364,572,0,103.571,0,damping
1780595051.2430768,5.320470699996804,5482,0.053467,-0.027588,1.054688,1.587786,2.916031,-1.251908,1.056402,3.548461,574,941,367,574,1,103.571,13,damping
1780595051.27381,5.351204000005964,5513,0.054932,-0.012939,1.05957,1.381679,3.091603,-1.022901,1.061072,3.537424,579,948,369,579,0,103.571,0,damping
1780595051.3115573,5.388951200002339,5545,0.046143,-0.02832,1.05835,2.053435,3.328244,-0.793893,1.059733,3.990498,581,952,371,581,1,103.571,1,damping
1780595051.3423564,5.419750400003977,5582,0.058838,-0.026367,1.0625,0.938931,2.938931,-1.137405,1.064454,3.288251,587,960,373,587,0,103.571,0,damping
1780595051.3739307,5.45132459999877,5613,0.047119,-0.021484,1.056641,1.496183,3.229008,-1.137405,1.057909,3.73614,589,964,375,589,0,109.375,1,damping
1780595051.4047434,5.482137400002102,5644,0.055908,-0.021729,1.057373,1.51145,3.198473,-0.091603,1.059073,3.5388,593,970,377,593,0,109.375,6,damping
1780595051.4357011,5.513095100002829,5675,0.046875,-0.025391,1.066162,1.419847,3.312977,-0.656489,1.067494,3.663708,597,976,379,597,0,109.375,1,damping
1780595051.4667222,5.544116300006863,5706,0.040283,-0.016113,1.053467,1.328244,2.610687,-0.78626,1.05436,3.032841,599,981,382,599,1,109.375,14,damping
1780595051.4966764,5.574070500006201,5737,0.022705,-0.008545,1.04834,1.534351,2.40458,-1.137405,1.04862,3.070819,602,986,384,602,0,109.375,1,damping
1780595051.5272868,5.604680799995549,5767,0.042969,-0.041748,1.063232,1.435114,3.381679,-0.847328,1.064919,3.77005,603,988,385,603,0,109.375,6,damping
1780595051.5586586,5.636052700006985,5798,0.033203,-0.025146,1.052978,1.412214,2.641221,-0.587786,1.053802,3.052194,605,993,388,605,1,109.375,13,damping
1780595051.5901296,5.6675236000010045,5829,0.04834,-0.020264,1.058838,1.51145,2.709924,-1.229008,1.060134,3.337458,610,1000,390,610,0,109.375,0,damping
1780595051.621025,5.698419000007561,5861,0.044434,-0.041504,1.045654,1.70229,3.091603,-0.969466,1.04742,3.660009,612,1004,392,612,0,109.375,1,damping
1780595051.652149,5.729543000008562,5891,0.054443,-0.013428,1.052978,1.740458,3.114504,-0.954198,1.054471,3.693213,615,1009,394,615,1,93.525,14,damping
1780595051.683633,5.761027100001229,5923,0.036865,-0.020752,1.050537,1.160305,3.587786,-0.519084,1.051388,3.806306,620,1016,396,620,0,93.525,1,damping
1780595051.7147188,5.792112800001632,5954,0.061523,-0.023438,1.071045,1.679389,3.572519,-0.564886,1.073066,3.987774,622,1021,399,622,1,93.525,14,damping
1780595051.7457325,5.823126600007527,5985,0.052979,-0.024658,1.050293,1.442748,2.832061,-0.633588,1.051917,3.240914,626,1026,400,626,1,93.525,6,damping
1780595051.7770007,5.854394599999068,6016,0.046387,-0.021729,1.057861,1.671756,3.10687,-0.763359,1.059101,3.609727,630,1032,402,630,0,93.525,0,damping
1780595051.8088388,5.886232899996685,6048,0.05249,-0.028076,1.063232,1.564886,2.671756,-1.160305,1.064897,3.306578,632,1037,405,632,1,93.525,13,damping
1780595051.839886,5.917280000008759,6079,0.040527,-0.011963,1.048584,1.748092,3.206107,-0.969466,1.049435,3.778202,635,1042,407,635,0,93.525,0,damping
1780595051.870826,5.948219900004915,6110,0.045654,-0.025879,1.050781,1.572519,3.015267,-0.992366,1.052091,3.542519,637,1046,409,637,0,93.525,1,damping
1780595051.902708,5.980102100002114,6141,0.052734,-0.018799,1.061523,1.80916,3.541985,-0.526718,1.062999,4.012,641,1052,411,641,0,104.0,6,damping
1780595051.933442,6.010836200002814,6173,0.046143,-0.02832,1.052978,1.251908,3.198473,-0.977099,1.054369,3.571026,645,1058,413,645,0,104.0,1,damping
1780595051.964421,6.0418151000048965,6204,0.048096,-0.007568,1.047852,1.312977,2.473282,-0.458015,1.048982,2.837396,647,1063,416,647,1,104.0,14,damping
1780595051.995626,6.073020099996938,6235,0.030029,-0.020996,1.049805,1.572519,2.473282,-1.114504,1.050444,3.135612,652,1070,418,652,0,104.0,1,damping
1780595052.0265265,6.1039203999971505,6266,0.048828,-0.030273,1.057129,1.946565,2.694656,-0.870229,1.058689,3.436217,654,1074,420,654,0,104.0,0,damping
1780595052.057597,6.1349909999989904,6297,0.041504,-0.019775,1.054443,1.832061,2.954198,-1.076336,1.055445,3.638988,656,1079,423,656,1,104.0,13,damping
1780595052.0881839,6.165578000000096,6328,0.040527,-0.009766,1.049805,1.755725,3.022901,-0.877863,1.050632,3.604323,661,1086,425,661,0,104.0,0,damping
1780595052.1186516,6.196045699995011,6359,0.04126,-0.033447,1.049072,1.580153,3.251908,-1.175572,1.050416,3.80181,663,1090,427,663,0,104.0,1,damping
1780595052.1498864,6.227280300008715,6389,0.04248,-0.038574,1.055176,1.847328,2.969466,-1.251908,1.056735,3.714515,666,1095,429,666,1,104.0,14,damping
1780595052.1805532,6.2579473000078,6420,0.05542,-0.020264,1.057373,1.755725,2.900763,-1.167939,1.059018,3.586235,671,1102,431,671,0,107.527,1,damping
1780595052.2120297,6.2894238000008045,6451,0.041748,-0.02417,1.052734,1.465649,2.938931,-0.89313,1.053839,3.403399,673,1106,433,673,0,107.527,0,damping
1780595052.2431912,6.32058529999631,6482,0.049805,-0.029053,1.05127,1.725191,3.061069,-0.389313,1.05285,3.53525,678,1112,434,678,0,107.527,6,damping
1780595052.2750819,6.352476000000024,6514,0.032471,-0.029541,1.064941,1.175572,3.229008,-0.70229,1.065846,3.507374,682,1118,436,682,0,107.527,0,damping
1780595052.3051085,6.382502599997679,6545,0.048828,-0.023438,1.052734,1.099237,2.778626,-0.496183,1.054127,3.029072,684,1123,439,684,1,107.527,13,damping
1780595052.3369732,6.414367200006382,6576,0.062012,-0.0271,1.059326,1.335878,2.80916,-0.877863,1.061486,3.232119,688,1128,440,688,0,107.527,6,damping
1780595052.3678484,6.445242400004645,6607,0.042236,-0.021973,1.051758,1.51145,2.854962,-0.931298,1.052835,3.361935,690,1132,442,690,0,107.527,1,damping
1780595052.3985827,6.475976700006868,6638,0.057617,-0.01123,1.058594,1.40458,3.328244,-0.938931,1.06022,3.732512,692,1135,443,692,1,107.527,16,damping
1780595052.4304318,6.507825900000171,6669,0.049072,-0.030762,1.05542,1.076336,3.625954,-0.480916,1.057008,3.812784,697,1142,445,697,0,107.527,0,damping
1780595052.4615607,6.538954800009378,6701,0.05249,-0.02832,1.056152,1.519084,3.328244,-0.793893,1.057835,3.743674,699,1147,448,699,1,99.644,14,damping
1780595052.4931083,6.57050220000383,6732,0.02832,-0.021484,1.057129,1.648855,2.816794,-1.099237,1.057726,3.444034,704,1154,450,704,0,99.644,0,damping
1780595052.524598,6.601991800009273,6764,0.049316,-0.023438,1.057861,1.854962,2.732824,-0.80916,1.05927,3.400581,706,1158,452,706,0,99.644,1,damping
1780595052.556097,6.633491000000504,6795,0.045166,-0.01709,1.053955,2.229008,2.442748,-1.389313,1.055061,3.586877,708,1163,455,708,1,99.644,13,damping
1780595052.5854192,6.6628131000034045,6826,0.04541,0.001221,1.054932,1.473282,3.045802,-1.08397,1.055909,3.55281,713,1170,457,713,0,99.644,1,damping
1780595052.6169238,6.694317800007411,6856,0.034424,-0.018066,1.056641,1.648855,3.038168,-1.21374,1.057356,3.663653,715,1174,459,715,0,99.644,0,damping
1780595052.647871,6.725265100001707,6887,0.043213,-0.011963,1.057861,1.671756,3.40458,-1.114504,1.058811,3.953233,718,1179,461,718,1,99.644,14,damping
1780595052.6789382,6.756332200006,6918,0.049561,-0.027344,1.064697,1.290076,3.21374,-0.877863,1.066201,3.572543,722,1184,462,722,0,99.644,6,damping
1780595052.7096632,6.787057099994854,6949,0.043701,-0.027588,1.052734,1.320611,3.59542,-1.053435,1.054002,3.972504,724,1188,464,724,0,99.644,0,damping
1780595052.7416484,6.819042500006617,6980,0.051758,-0.028076,1.059326,2.061069,2.954198,-0.618321,1.060961,3.654807,727,1194,467,727,0,100.358,6,damping
1780595052.7722094,6.849603499998921,7011,0.048828,-0.014404,1.064941,1.496183,2.900763,-0.832061,1.066157,3.368281,731,1200,469,731,0,100.358,1,damping
1780595052.8025067,6.879900600004476,7042,0.017822,-0.017822,1.045166,1.473282,3.022901,-0.862595,1.04547,3.47168,733,1205,472,733,1,100.358,14,damping
1780595052.833612,6.911005900008604,7073,0.019043,0.005615,1.04834,0.977099,2.778626,-1.19084,1.048528,3.17704,738,1212,474,738,0,100.358,1,damping
1780595052.8649747,6.942368700008956,7104,0.029785,-0.028564,1.057373,1.641221,3.015267,-1.030534,1.058178,3.584334,740,1216,476,740,0,100.358,0,damping
1780595052.8957076,6.97310170000128,7135,0.039551,-0.01001,1.056641,1.954198,2.824427,-1.473282,1.057428,3.737224,743,1221,478,743,1,100.358,13,damping
1780595052.9271383,7.004532400009339,7166,0.053711,-0.036133,1.056641,1.21374,3.320611,-1.030534,1.058622,3.682611,746,1226,480,746,0,100.358,0,damping
1780595052.9579687,7.035362700000405,7197,0.050781,-0.026123,1.056396,1.793893,3.091603,-1.022901,1.057939,3.717847,748,1230,482,748,0,100.358,0,damping
1780595052.9894567,7.066850600007456,7228,0.047119,-0.018799,1.063965,1.931298,3.366412,-0.458015,1.065174,3.907994,752,1236,484,752,0,100.358,6,damping
1780595053.0208542,7.098248299997067,7260,0.041504,-0.027588,1.067383,1.48855,3.450382,-0.496183,1.068546,3.790398,756,1242,486,756,0,103.571,0,damping
1780595053.0520618,7.129455700007384,7291,0.02417,-0.028076,1.047363,1.625954,2.687023,-0.80916,1.048018,3.243233,758,1247,489,758,1,103.571,13,damping
1780595053.08243,7.159824000002118,7322,0.035645,-0.009766,1.066406,1.198473,2.862595,-1.022901,1.067046,3.267586,763,1254,491,763,0,103.571,0,damping
1780595053.1132224,7.190616299994872,7353,0.022949,-0.027832,1.052978,1.870229,3.0,-0.946565,1.053596,3.659746,765,1258,493,765,0,103.571,1,damping
1780595053.145391,7.222785000005388,7384,0.049805,-0.0354,1.052734,1.793893,3.587786,-0.969466,1.054506,4.126757,767,1263,496,767,1,103.571,14,damping
1780595053.18118,7.258574000006774,7415,0.052734,-0.030029,1.053223,1.061069,3.450382,-0.78626,1.054969,3.694483,772,1270,498,772,0,103.571,1,damping
1780595053.2072065,7.284600500002853,7446,0.048096,-0.019775,1.05957,1.229008,3.007634,-0.80916,1.060846,3.348292,774,1274,500,774,0,103.571,0,damping
1780595053.2383685,7.315762500002165,7477,0.052734,-0.030762,1.054443,1.251908,3.229008,-0.717557,1.056209,3.536758,779,1280,501,779,0,103.571,6,damping
1780595053.2699406,7.347334699996281,7509,0.045166,-0.020264,1.059326,1.877863,3.167939,-0.854962,1.060482,3.78063,783,1286,503,783,0,103.571,0,damping
1780595053.3013895,7.3787834999966435,7540,0.036865,-0.02002,1.054688,1.694656,2.954198,-0.78626,1.055522,3.495333,785,1291,506,785,1,103.571,13,damping
1780595053.332148,7.409542100009276,7571,0.043945,-0.019775,1.056885,1.59542,3.099237,-0.832061,1.057983,3.583707,790,1298,508,790,0,103.571,1,damping
1780595053.363487,7.4408811000030255,7603,0.054688,-0.033447,1.060059,1.587786,3.40458,-0.954198,1.061995,3.875916,792,1302,510,792,0,103.571,0,damping
1780595053.3953738,7.472767900006147,7634,0.051025,-0.023193,1.055176,2.083969,3.389313,-0.824427,1.056663,4.063256,795,1306,511,795,0,103.571,6,damping
1780595053.4268098,7.504203799995594,7666,0.037598,-0.009521,1.061035,1.51145,3.458015,-1.061069,1.061744,3.920232,799,1312,513,799,0,103.571,0,damping
1780595053.4581149,7.535508900007699,7697,0.031738,-0.026123,1.052002,1.732824,2.267176,-0.938931,1.052805,3.004057,801,1317,516,801,1,103.571,13,damping
1780595053.488538,7.565932099998463,7728,0.040771,-0.004639,1.060791,1.396947,2.519084,-1.229008,1.061584,3.131725,806,1324,518,806,0,103.571,1,damping
1780595053.5200617,7.5974557000008645,7759,0.047852,-0.031494,1.052978,1.328244,3.061069,-1.007634,1.054536,3.485642,808,1328,520,808,0,103.571,1,damping
1780595053.5512745,7.628668500008644,7790,0.059082,-0.011719,1.061523,1.709924,3.381679,-1.389313,1.063231,4.03606,810,1333,523,810,1,100.0,14,damping
1780595053.5815492,7.6589431000029435,7821,0.045898,-0.029541,1.057617,1.236641,3.129771,-0.877863,1.059025,3.477843,815,1340,525,815,0,100.0,0,damping
1780595053.6128356,7.690229700005148,7852,0.052002,-0.034668,1.056885,1.80916,3.053435,-0.923664,1.058731,3.667381,817,1344,527,817,0,100.0,1,damping
1780595053.6443198,7.721713899998576,7883,0.042969,-0.026855,1.047363,1.603053,3.137405,-0.625954,1.048588,3.578395,821,1350,529,821,0,100.0,6,damping
1780595053.6758895,7.753283400001237,7915,0.039062,-0.026123,1.06543,1.08397,3.290076,-0.633588,1.066466,3.521509,825,1356,531,825,0,100.0,1,damping
1780595053.706863,7.784257000006619,7946,0.0271,-0.029053,1.050049,1.587786,2.572519,-0.900763,1.0508,3.154409,827,1361,534,827,1,100.0,14,damping
1780595053.73864,7.816034000003128,7977,0.053223,-0.029541,1.055664,1.389313,2.916031,-0.732824,1.057418,3.312168,833,1368,535,833,0,100.0,0,damping
1780595053.7692664,7.846660299997893,8009,0.045898,-0.026123,1.052246,1.816794,3.10687,-0.870229,1.05357,3.702794,835,1372,537,835,0,100.0,0,damping
1780595053.800814,7.8782079000084195,8040,0.04248,-0.034912,1.059814,2.236641,3.832061,-0.877863,1.06124,4.523041,838,1377,539,838,0,112.0,13,damping
1780595053.8317192,7.909113200003048,8071,0.033936,-0.030762,1.056885,1.320611,3.236641,-0.839695,1.057877,3.595128,843,1384,541,843,0,112.0,0,damping
1780595053.8629982,7.94039220000559,8102,0.051758,-0.028809,1.050781,1.48855,3.641221,-0.732824,1.05245,4.001412,845,1388,543,845,0,112.0,0,damping
1780595053.8938148,7.971208800008753,8133,0.043701,-0.023682,1.052734,1.900763,2.671756,-0.931298,1.053907,3.408592,850,1394,544,850,0,112.0,5,damping
1780595053.924818,8.002212000006693,8164,0.047119,-0.039551,1.05957,1.778626,2.931298,-0.603053,1.061355,3.481334,852,1398,546,852,0,112.0,0,damping
1780595053.9546065,8.032000499995775,8195,0.0354,-0.029297,1.049805,1.328244,2.70229,-0.870229,1.05081,3.134311,854,1403,549,854,1,112.0,13,damping
1780595053.984952,8.062346000006073,8225,0.030518,-0.002441,1.052734,1.618321,2.816794,-1.08397,1.053179,3.424658,859,1410,551,859,0,112.0,0,damping
1780595054.0169146,8.094308600004297,8256,0.043457,-0.02417,1.057129,1.236641,2.885496,-0.70229,1.058298,3.216921,861,1414,553,861,0,112.0,1,damping
1780595054.0473812,8.124775100004626,8287,0.043945,-0.01709,1.053223,1.89313,3.541985,-1.274809,1.054278,4.213637,863,1419,556,863,1,112.0,14,damping
1780595054.0778916,8.155285700006061,8318,0.048096,-0.002197,1.050781,1.366412,3.396947,-0.709924,1.051884,3.729654,868,1426,558,868,0,107.914,0,damping
1780595054.1096213,8.187015400006203,8349,0.048584,-0.024902,1.064453,1.679389,3.083969,-1.244275,1.065852,3.725512,870,1430,560,870,0,107.914,0,damping
1780595054.1417673,8.21916130000318,8380,0.050049,-0.017334,1.061768,1.78626,3.030534,-0.274809,1.063088,3.52851,873,1434,561,873,0,107.914,6,damping
1780595054.1724038,8.249797900003614,8412,0.032959,-0.009277,1.068359,1.351145,3.022901,-0.80916,1.068908,3.408557,877,1440,563,877,0,107.914,1,damping
1780595054.2040038,8.281397900005686,8443,0.028076,-0.028076,1.057129,1.572519,2.587786,-0.816794,1.057874,3.136336,879,1445,566,879,1,107.914,14,damping
1780595054.2357404,8.31313450000016,8475,0.05835,-0.02124,1.053223,1.641221,3.167939,-0.694656,1.055052,3.63483,884,1452,568,884,0,107.914,1,damping
1780595054.2671685,8.344562500002212,8506,0.043945,-0.030029,1.064209,1.78626,3.091603,-0.847328,1.065539,3.6697,886,1456,570,886,0,107.914,0,damping
1780595054.302909,8.380302899997332,8537,0.053711,-0.041016,1.057861,2.076336,3.755725,-0.70229,1.060018,4.348546,889,1461,572,889,1,107.914,13,damping
1780595054.3282695,8.405663400000776,8568,0.052979,-0.029541,1.059326,0.961832,3.251908,-0.954198,1.061061,3.522857,894,1468,574,894,0,104.0,0,damping
1780595054.3587685,8.436162400001194,8599,0.046631,-0.031738,1.061523,1.70229,3.167939,-0.78626,1.063021,3.681281,896,1472,576,896,0,104.0,1,damping
1780595054.3893611,8.466755200002808,8629,0.052979,-0.032471,1.059814,1.480916,3.19084,-0.450382,1.061634,3.546465,900,1478,578,900,0,104.0,5,damping
1780595054.4213748,8.49876879999647,8660,0.049316,-0.018066,1.066894,1.343511,3.503817,-0.549618,1.068186,3.792603,904,1484,580,904,0,104.0,0,damping
1780595054.452024,8.529417900004773,8691,0.048828,-0.010986,1.05957,1.557252,2.541985,-0.572519,1.060752,3.035539,906,1489,583,906,1,104.0,14,damping
1780595054.4826505,8.560044600002584,8722,0.034424,-0.00293,1.058594,1.442748,2.923664,-1.129771,1.059157,3.450466,911,1496,585,911,0,104.0,0,damping
1780595054.5141158,8.591509799996857,8753,0.045654,-0.019287,1.054688,1.374046,3.129771,-0.801527,1.055851,3.510828,913,1500,587,913,0,104.0,1,damping
1780595054.5446708,8.62206480000168,8784,0.051514,-0.017822,1.054932,2.183206,2.931298,-1.129771,1.056339,3.825608,915,1505,590,915,1,104.0,14,damping
1780595054.5757194,8.653113399996073,8815,0.058594,-0.03418,1.055176,0.824427,3.236641,-0.801527,1.057354,3.434818,920,1512,592,920,0,104.0,0,damping
1780595054.6068435,8.684237399997073,8846,0.052002,-0.017334,1.061279,1.580153,3.160305,-1.206107,1.062694,3.733511,921,1514,593,921,0,97.122,6,damping
1780595054.637722,8.715116100007435,8877,0.064941,-0.019531,1.065186,1.572519,2.755725,-0.633588,1.067342,3.235471,925,1520,595,925,0,97.122,6,damping
1780595054.6683667,8.745760699996026,8908,0.04834,-0.017334,1.067139,1.267176,3.076336,-0.854962,1.068374,3.435191,929,1526,597,929,0,97.122,1,damping
1780595054.7002795,8.777673600008711,8939,0.058594,-0.015137,1.054443,1.358779,2.648855,-0.763359,1.056179,3.073342,931,1531,600,931,1,97.122,14,damping
1780595054.7306528,8.808046899997862,8970,0.031738,-0.00293,1.059082,1.694656,2.931298,-1.389313,1.059562,3.659858,936,1538,602,936,0,97.122,1,damping
1780595054.7607536,8.838147600006778,9001,0.042725,-0.004883,1.0625,2.221374,2.740458,-1.175572,1.06337,3.718412,938,1542,604,938,0,97.122,1,damping
1780595054.7909186,8.86831269999675,9031,0.039307,-0.026611,1.054688,1.748092,2.29771,-0.740458,1.055755,2.980532,939,1545,606,939,1,97.122,17,damping
1780595054.8229733,8.900367199996253,9062,0.043701,-0.012207,1.058838,1.847328,2.78626,-1.007634,1.05981,3.491588,943,1550,607,943,0,97.122,5,damping
1780595054.853054,8.93044799999916,9093,0.042236,-0.03125,1.056396,1.984733,3.045802,-0.824427,1.057702,3.727701,945,1554,609,945,0,97.122,0,damping
1780595054.8851573,8.962551300006453,9124,0.040771,-0.038574,1.052002,1.885496,3.412214,-0.648855,1.053498,3.952128,948,1559,611,948,1,97.122,13,damping
1780595054.9154675,8.992861400009133,9155,0.045166,-0.022949,1.056152,1.526718,3.015267,-0.549618,1.057367,3.424147,953,1566,613,953,0,97.122,0,damping
1780595054.9465916,9.023985599997104,9186,0.044189,-0.022217,1.057129,2.038168,3.160305,-0.763359,1.058285,3.837236,955,1570,615,955,0,97.122,1,damping
1780595054.978092,9.055485899996711,9217,0.035156,-0.018066,1.047363,1.48855,2.900763,-0.656489,1.048109,3.325836,960,1576,616,960,0,97.122,5,damping
1780595055.008428,9.085822100008954,9248,0.033447,-0.040771,1.054199,1.29771,3.251908,-0.618321,1.055517,3.555458,964,1582,618,964,0,97.122,0,damping
1780595055.0400758,9.11746989999665,9279,0.020264,-0.025879,1.048828,1.564886,2.832061,-0.977099,1.049343,3.379964,966,1587,621,966,1,97.122,13,damping
1780595055.0712335,9.148627500006114,9310,0.057617,-0.026123,1.060547,1.48855,3.374046,-1.08397,1.062432,3.84382,971,1594,623,971,0,97.122,0,damping
1780595055.1014671,9.178861200009123,9341,0.051514,-0.032959,1.060059,2.015267,2.961832,-0.458015,1.061821,3.611583,973,1598,625,973,0,97.122,0,damping
1780595055.1332715,9.21066540000902,9372,0.05249,-0.036865,1.054688,2.007634,3.51145,-0.816794,1.056636,4.126503,976,1603,627,976,1,97.122,14,damping
1780595055.164318,9.241712000002735,9403,0.061523,-0.034424,1.053223,1.335878,3.312977,-0.923664,1.055579,3.689653,981,1610,629,981,0,118.28,0,damping
1780595055.1947582,9.27215210000577,9434,0.050049,-0.029541,1.051025,1.427481,3.21374,-0.725191,1.052631,3.590506,983,1614,631,983,0,118.28,1,damping
1780595055.2487254,9.326119400007883,9465,0.025879,-0.024902,1.051514,1.70229,2.526718,-0.687023,1.052127,3.123154,988,1620,632,988,0,118.28,5,damping
1780595055.2560563,9.333450400008587,9495,0.040771,-0.031982,1.061035,1.656489,3.465649,-0.679389,1.0623,3.900801,992,1626,634,992,0,118.28,0,damping
1780595055.2876735,9.365067400009139,9527,0.019043,-0.030518,1.047363,1.557252,2.847328,-0.961832,1.047981,3.384883,994,1631,637,994,1,118.28,13,damping
1780595055.318551,9.395944999996573,9558,0.041016,-0.025879,1.048096,1.549618,2.740458,-0.847328,1.049217,3.260275,999,1638,639,999,0,118.28,0,damping
1780595055.3495634,9.426957400006359,9589,0.043457,-0.031494,1.055908,2.129771,2.984733,-0.78626,1.057271,3.750034,1001,1642,641,1001,0,118.28,1,damping
1780595055.3807712,9.458165100004408,9620,0.047119,-0.021484,1.054199,2.152672,3.274809,-0.648855,1.05547,3.972327,1004,1647,643,1004,1,118.28,14,damping
1780595055.4134042,9.490798300001188,9652,0.0354,-0.010498,1.063721,1.10687,3.312977,-0.603053,1.064361,3.544665,1009,1654,645,1009,0,118.28,0,damping
1780595055.4433837,9.520777600002475,9683,0.046631,-0.009277,1.060547,1.679389,3.198473,-0.80916,1.061612,3.70207,1011,1659,648,1011,1,107.143,13,damping
1780595055.4744406,9.551834600002621,9714,0.034424,-0.020996,1.048584,1.496183,3.022901,-1.030534,1.049359,3.526825,1015,1664,649,1015,0,107.143,6,damping
1780595055.5055776,9.582971600000747,9745,0.030273,-0.020508,1.056396,1.938931,3.175573,-0.717557,1.057029,3.789275,1017,1668,651,1017,0,107.143,1,damping
1780595055.535966,9.613360000003013,9776,0.057617,-0.026367,1.053711,1.534351,2.59542,-1.152672,1.055614,3.227862,1019,1673,654,1019,1,107.143,14,damping
1780595055.5674582,9.64485219999915,9807,0.060547,-0.013916,1.053955,1.480916,3.175573,-0.969466,1.055784,3.635552,1024,1680,656,1024,0,107.143,0,damping
1780595055.5989826,9.676376700008404,9838,0.045166,-0.033691,1.059082,1.78626,3.068702,-0.748092,1.06058,3.628677,1026,1684,658,1026,0,107.143,1,damping
1780595055.6308072,9.708201200002804,9869,0.063477,-0.039551,1.056152,2.305344,3.633588,-0.625954,1.058797,4.348492,1030,1690,660,1030,0,107.143,6,damping
1780595055.6614077,9.738801700004842,9901,0.049805,-0.012695,1.063477,1.519084,3.366412,-0.992366,1.064718,3.824283,1033,1694,661,1033,0,107.143,5,damping
1780595055.6936421,9.771036100006313,9932,0.031982,-0.02832,1.048096,1.022901,2.916031,-0.450382,1.048966,3.122884,1035,1699,664,1035,1,107.143,14,damping
1780595055.723603,9.800996899997699,9963,0.043213,-0.007568,1.057861,1.709924,2.687023,-1.160305,1.058771,3.389726,1040,1706,666,1040,0,103.571,0,damping
1780595055.7545476,9.831941700002062,9994,0.053223,-0.012207,1.060547,1.572519,2.89313,-0.938931,1.061952,3.424122,1042,1710,668,1042,0,103.571,1,damping
1780595055.785218,9.862612099997932,10025,0.041748,-0.004395,1.048096,1.328244,3.526718,-1.557252,1.048936,4.077622,1044,1715,671,1044,1,103.571,14,damping
1780595055.8163114,9.893705299997237,10056,0.055908,-0.022949,1.056152,0.870229,3.083969,-1.007634,1.05788,3.359091,1049,1722,673,1049,0,103.571,0,damping
1780595055.8480723,9.925466300002881,10087,0.041504,-0.014404,1.053955,1.969466,3.267176,-1.022901,1.05487,3.949627,1051,1726,675,1051,0,103.571,0,damping
1780595055.8790543,9.956448199998704,10118,0.056152,-0.007568,1.063721,1.465649,2.717557,-0.862595,1.065229,3.205825,1055,1732,677,1055,0,103.571,6,damping
1780595055.9097102,9.987104100000579,10149,0.049561,-0.012939,1.063721,1.396947,3.282443,-0.664122,1.064953,3.628629,1057,1736,679,1057,0,103.571,1,damping
1780595055.941821,10.019215000007534,10180,0.03833,-0.021973,1.049072,1.48855,2.450382,-0.778626,1.050002,2.970927,1059,1741,682,1059,1,103.571,14,damping
1780595055.9729176,10.050311500002863,10212,0.040771,-0.01001,1.057129,1.572519,2.954198,-0.969466,1.057962,3.484246,1065,1748,683,1065,0,103.571,0,damping
1780595056.0046542,10.082048099997337,10244,0.040527,-0.022217,1.050293,1.450382,3.183206,-1.022901,1.051309,3.644548,1067,1752,685,1067,0,96.085,1,damping
1780595056.0359497,10.113343799996073,10275,0.063721,-0.018555,1.05835,2.091603,3.068702,-0.465649,1.060428,3.742802,1071,1758,687,1071,0,96.085,6,damping
1780595056.0670674,10.144461400006549,10306,0.054688,-0.024414,1.072998,0.984733,3.061069,-0.618321,1.074668,3.274471,1074,1762,688,1074,0,96.085,6,damping
1780595056.098141,10.175534900001367,10337,0.053955,-0.018555,1.054199,1.816794,2.916031,-0.534351,1.055742,3.476997,1076,1767,691,1076,1,96.085,13,damping
1780595056.1294231,10.206817199999932,10368,0.037109,-0.019531,1.051025,1.541985,2.427481,-1.198473,1.051862,3.115561,1081,1774,693,1081,0,96.085,0,damping
1780595056.1722553,10.24964930000715,10399,0.036621,0.00415,1.061035,1.847328,2.877863,-0.954198,1.061675,3.550382,1083,1778,695,1083,0,96.085,0,damping
1780595056.1914785,10.268872600005125,10430,0.042236,-0.027588,1.051025,2.030534,3.061069,-1.198473,1.052235,3.863878,1085,1783,698,1085,1,96.085,13,damping
1780595056.2218301,10.299224100002903,10461,0.039062,-0.010742,1.048096,1.40458,3.320611,-1.030534,1.048878,3.74984,1090,1790,700,1090,0,96.085,0,damping
1780595056.25354,10.330933999997796,10492,0.034424,-0.024414,1.048096,2.022901,2.931298,-0.763359,1.048945,3.642438,1092,1794,702,1092,0,96.085,0,damping
1780595056.283765,10.36115900000732,10523,0.060303,-0.01416,1.054443,2.083969,3.671756,-0.557252,1.056261,4.25855,1096,1800,704,1096,0,103.943,6,damping
1780595056.3149164,10.39231049999944,10554,0.060059,-0.030029,1.057617,1.618321,3.343511,-0.70229,1.059747,3.780376,1100,1806,706,1100,0,103.943,0,damping
1780595056.3469043,10.424298300000373,10585,0.057373,-0.019531,1.058594,1.435114,3.045802,-0.664122,1.060327,3.431839,1102,1811,709,1102,1,103.943,14,damping
1780595056.3776212,10.455015300001833,10617,0.047852,-0.021484,1.055664,1.0,3.198473,-1.145038,1.056966,3.541376,1107,1818,711,1107,0,103.943,1,damping
1780595056.4083776,10.485771599996951,10648,0.038818,-0.03125,1.054932,1.770992,2.961832,-0.70229,1.056108,3.521658,1109,1822,713,1109,0,103.943,0,damping
1780595056.439138,10.516531900007976,10678,0.044922,-0.027588,1.05542,1.625954,3.335878,-0.877863,1.056736,3.813456,1111,1827,716,1111,1,103.943,13,damping
1780595056.469648,10.547041900004842,10709,0.044922,-0.009277,1.053955,1.290076,3.10687,-0.732824,1.054953,3.44296,1116,1834,718,1116,0,103.943,1,damping
1780595056.5006514,10.578045300004305,10740,0.053955,-0.022461,1.057129,2.083969,3.290076,-0.961832,1.058743,4.011565,1118,1838,720,1118,0,103.943,0,damping
1780595056.532174,10.609568200001377,10771,0.05835,-0.02002,1.05542,1.717557,3.10687,-0.564886,1.057221,3.594682,1122,1844,722,1122,0,103.943,6,damping
1780595056.564296,10.64169010000478,10803,0.03833,-0.015137,1.063721,1.412214,2.954198,-0.832061,1.064519,3.378455,1126,1850,724,1126,0,107.143,1,damping
1780595056.595999,10.673393100005342,10834,0.032715,-0.021973,1.058106,1.931298,2.847328,-0.801527,1.058839,3.532652,1128,1855,727,1128,1,107.143,14,damping
1780595056.626524,10.703917899998487,10866,0.049805,-0.007813,1.055176,1.48855,3.061069,-0.435114,1.056379,3.431508,1133,1862,729,1133,0,107.143,0,damping
1780595056.6581185,10.735512500003097,10897,0.05835,-0.041504,1.055176,1.427481,3.381679,-0.961832,1.057602,3.794546,1135,1866,731,1135,0,107.143,1,damping
1780595056.6887207,10.766114600002766,10928,0.049072,-0.028076,1.0625,1.961832,3.526718,-0.312977,1.064003,4.047774,1139,1872,733,1139,0,107.143,6,damping
1780595056.7208643,10.79825819999678,10959,0.04541,-0.008545,1.05542,0.931298,3.244275,-0.770992,1.056431,3.462234,1143,1878,735,1143,0,107.143,0,damping
1780595056.7518146,10.829208499999368,10990,0.046875,-0.012939,1.056152,1.557252,3.351145,-0.389313,1.057271,3.715746,1145,1883,738,1145,1,107.143,14,damping
1780595056.7833667,10.860760700001265,11022,0.039551,-0.008301,1.054443,1.625954,2.793893,-1.045802,1.055218,3.397538,1150,1890,740,1150,0,107.143,0,damping
1780595056.814226,10.891619900008664,11053,0.047363,-0.013428,1.069336,1.923664,2.748092,-1.198473,1.070469,3.562138,1152,1894,742,1152,0,104.0,1,damping
1780595056.8444717,10.921865700001945,11084,0.038574,-0.006348,1.052002,2.236641,3.312977,-1.167939,1.052728,4.164428,1154,1899,745,1154,1,104.0,14,damping
1780595056.8766456,10.9540396000084,11115,0.039795,-0.022949,1.051025,1.335878,3.022901,-0.770992,1.052029,3.39366,1159,1906,747,1159,0,104.0,0,damping
1780595056.911532,10.988925900004688,11146,0.041748,-0.023682,1.062744,1.717557,3.152672,-1.29771,1.063827,3.817512,1161,1910,749,1161,0,104.0,1,damping
1780595056.9427304,11.020124400005443,11182,0.03125,-0.010986,1.053955,1.473282,3.19084,-0.679389,1.054475,3.579608,1167,1918,751,1167,0,104.0,0,damping
1780595056.9735682,11.050962299996172,11213,0.03418,-0.022705,1.050781,2.068702,3.038168,-1.022901,1.051582,3.815274,1169,1922,753,1169,0,104.0,1,damping
1780595057.0053947,11.082788600004278,11244,0.060059,-0.012207,1.055664,1.78626,4.038168,-0.51145,1.057442,4.445122,1173,1928,755,1173,0,104.0,6,damping
1780595057.0368872,11.114281200003461,11275,0.042236,-0.031006,1.054932,0.900763,3.221374,-0.603053,1.056232,3.398867,1177,1934,757,1177,0,104.0,0,damping
1780595057.067741,11.145134899998084,11306,0.064209,-0.014648,1.05127,1.450382,3.267176,-0.473282,1.05333,3.605834,1179,1939,760,1179,1,106.719,13,damping
1780595057.098903,11.176296899997396,11337,0.039795,-0.023438,1.054443,1.603053,2.473282,-1.229008,1.055454,3.193332,1184,1946,762,1184,0,106.719,1,damping
1780595057.1298866,11.207280700007686,11369,0.036621,-0.030029,1.049805,1.91603,2.801527,-0.916031,1.050872,3.515514,1186,1950,764,1186,0,106.719,0,damping
1780595057.1608012,11.238195199999609,11400,0.043945,-0.012207,1.050537,1.78626,2.801527,-1.122137,1.051527,3.506917,1188,1955,767,1188,1,106.719,13,damping
1780595057.1930547,11.270448800001759,11431,0.046631,-0.01416,1.055664,0.992366,3.030534,-0.450382,1.056788,3.220524,1193,1962,769,1193,0,106.719,0,damping
1780595057.2226539,11.300047800003085,11462,0.054443,-0.019531,1.071045,1.625954,3.244275,-1.099237,1.072606,3.79175,1195,1966,771,1195,0,106.719,1,damping
1780595057.2545621,11.331956099995296,11493,0.053955,-0.031982,1.056152,1.793893,3.015267,-0.51145,1.058013,3.545627,1199,1972,773,1199,0,106.719,5,damping
1780595057.2848506,11.362244600008125,11524,0.053711,-0.01001,1.072754,1.114504,3.221374,-0.870229,1.074144,3.518049,1201,1976,775,1201,0,106.719,0,damping
1780595057.3170495,11.394443500001216,11555,0.052979,-0.018311,1.062988,1.198473,2.793893,-0.687023,1.064465,3.116757,1203,1981,778,1203,1,106.719,14,damping
1780595057.347968,11.425362099995255,11586,0.029541,-0.01001,1.051758,1.641221,2.832061,-1.175572,1.05222,3.477952,1208,1988,780,1208,0,103.571,0,damping
1780595057.3792691,11.456663200006005,11618,0.039795,-0.026611,1.064209,1.824428,2.70229,-0.877863,1.065285,3.376618,1210,1992,782,1210,0,103.571,0,damping
1780595057.4098346,11.487228600002709,11649,0.053467,-0.040283,1.063232,2.045802,3.335878,-1.045802,1.065338,4.050566,1213,1997,784,1213,1,103.571,13,damping
1780595057.4417503,11.51914420000685,11680,0.060059,-0.029297,1.055176,0.992366,3.458015,-0.580153,1.05729,3.644069,1217,2002,785,1217,0,103.571,6,damping
1780595057.4719918,11.549385799997253,11711,0.05127,-0.030762,1.050781,1.656489,3.534351,-0.763359,1.052481,3.977224,1219,2006,787,1219,0,103.571,1,damping
1780595057.5031712,11.580565199998091,11742,0.038574,-0.017578,1.050049,1.625954,2.664122,-0.992366,1.050904,3.275067,1224,2012,788,1224,0,103.571,5,damping
1780595057.5346649,11.61205890000565,11773,0.039551,-0.039795,1.060059,2.022901,3.229008,-0.854962,1.061542,3.905071,1228,2018,790,1228,0,103.571,0,damping
1780595057.5663831,11.643777200006298,11805,0.048584,-0.028076,1.057617,1.694656,3.183206,-1.183206,1.059105,3.795344,1230,2023,793,1230,1,103.571,13,damping
1780595057.596557,11.673950900003547,11836,0.047119,-0.007813,1.057861,1.038168,2.954198,-0.679389,1.058939,3.204162,1235,2030,795,1235,0,108.0,1,damping
1780595057.6278424,11.705236399997375,11866,0.050537,-0.02832,1.055664,1.694656,2.992366,-0.946565,1.057252,3.566805,1236,2032,796,1236,0,108.0,6,damping
1780595057.6580474,11.735441400000127,11897,0.041748,-0.035889,1.050781,2.175573,3.282443,-0.832061,1.052222,4.024906,1239,2037,798,1239,1,108.0,13,damping
1780595057.6894557,11.766849699997692,11928,0.048584,-0.0271,1.051514,1.427481,3.122137,-0.770992,1.052984,3.518504,1242,2042,800,1242,0,108.0,0,damping
1780595057.7213082,11.798702200001571,11959,0.05957,-0.017578,1.055176,1.763359,3.114504,-0.70229,1.057002,3.647298,1244,2046,802,1244,0,108.0,0,damping
1780595057.750898,11.828291900004842,11990,0.037354,-0.026123,1.044678,1.969466,2.793893,-0.80916,1.045672,3.512744,1249,2052,803,1249,0,108.0,5,damping
1780595057.7824066,11.85980049999489,12021,0.039551,-0.034424,1.063721,1.51145,3.251908,-0.877863,1.065012,3.691887,1253,2058,805,1253,0,108.0,0,damping
1780595057.8131418,11.890535800004727,12052,0.043213,-0.026611,1.056396,1.122137,3.122137,-1.015267,1.057615,3.469539,1255,2063,808,1255,1,108.0,13,damping
1780595057.8438535,11.921247599995695,12083,0.04126,-0.018311,1.057129,1.175572,3.40458,-0.603053,1.058092,3.65196,1259,2068,809,1259,0,108.0,5,damping
1780595057.876165,11.953559000001405,12114,0.038086,-0.024902,1.055664,1.725191,3.053435,-0.89313,1.056644,3.619037,1261,2072,811,1261,0,93.525,0,damping
1780595057.9066315,11.984025500001735,12145,0.045898,-0.039551,1.056641,2.236641,3.282443,-0.870229,1.058376,4.066238,1264,2077,813,1264,1,93.525,13,damping
1780595057.9379108,12.015304800006561,12176,0.04541,-0.028809,1.052734,1.679389,3.48855,-0.770992,1.054107,3.947754,1269,2084,815,1269,0,93.525,0,damping
1780595057.9684865,12.045880500008934,12207,0.059814,-0.030762,1.062744,1.992366,3.21374,-0.648855,1.06487,3.836491,1271,2088,817,1271,0,93.525,0,damping
1780595057.9996355,12.077029399995808,12238,0.044922,-0.023682,1.053467,1.816794,3.038168,-1.053435,1.05469,3.693363,1276,2094,818,1276,0,93.525,5,damping
1780595058.0299704,12.107364299998153,12268,0.05127,-0.014893,1.058838,1.236641,3.503817,-0.694656,1.060183,3.780022,1280,2100,820,1280,0,93.525,0,damping
1780595058.0609128,12.138306900000316,12299,0.029053,-0.031738,1.052734,1.419847,2.80916,-0.59542,1.053613,3.203416,1282,2105,823,1282,1,93.525,13,damping
1780595058.092103,12.169497099996079,12331,0.040527,-0.025635,1.050537,1.816794,3.061069,-0.732824,1.051631,3.63427,1287,2112,825,1287,0,93.525,1,damping
1780595058.1231518,12.200545900006546,12362,0.03418,-0.027588,1.04834,2.038168,2.931298,-0.992366,1.04926,3.705594,1289,2116,827,1289,0,93.525,0,damping
1780595058.1535523,12.230946299998323,12393,0.043457,-0.037842,1.053467,2.175573,3.40458,-1.076336,1.055042,4.181242,1292,2121,829,1292,1,111.111,13,damping
1780595058.1856866,12.263080500008073,12424,0.043457,-0.027344,1.054199,1.183206,3.114504,-0.877863,1.055449,3.445396,1297,2128,831,1297,0,111.111,0,damping
1780595058.2164798,12.29387370000768,12455,0.058105,-0.022949,1.054199,1.618321,3.229008,-0.740458,1.056049,3.686968,1299,2132,833,1299,0,111.111,0,damping
1780595058.2480452,12.325439299995196,12486,0.042725,-0.017578,1.049805,1.442748,2.839695,-0.664122,1.050821,3.253682,1304,2138,834,1304,0,111.111,6,damping
1780595058.2789369,12.356330900001922,12517,0.043701,-0.039551,1.063721,1.40458,3.21374,-0.816794,1.065352,3.601128,1308,2144,836,1308,0,111.111,0,damping
1780595058.3095894,12.38698330000625,12548,0.038086,-0.02832,1.056885,1.465649,2.816794,-0.977099,1.05795,3.322225,1310,2149,839,1310,1,111.111,14,damping
1780595058.341204,12.418597900003078,12579,0.041016,-0.010742,1.050049,1.091603,3.122137,-1.015267,1.050904,3.459784,1315,2156,841,1315,0,111.111,0,damping
1780595058.3712645,12.448658499997691,12610,0.039551,-0.031982,1.054443,1.78626,3.061069,-1.061069,1.055669,3.699558,1317,2160,843,1317,0,111.111,0,damping
1780595058.4022818,12.47967570000037,12641,0.039062,-0.035645,1.047607,2.335878,3.587786,-0.610687,1.048941,4.32452,1321,2166,845,1321,0,111.111,6,damping
1780595058.433426,12.510819899995113,12672,0.056885,-0.02124,1.060059,1.572519,3.328244,-0.557252,1.061796,3.722977,1325,2172,847,1325,0,118.28,0,damping
1780595058.4653776,12.542771499996888,12703,0.061768,-0.01709,1.056641,1.816794,3.160305,-0.435114,1.058582,3.671184,1327,2177,850,1327,1,118.28,14,damping
1780595058.4968355,12.574229400008335,12735,0.022949,-0.005127,1.05542,1.969466,2.748092,-1.114504,1.055682,3.559905,1333,2184,851,1333,0,118.28,0,damping
1780595058.5262816,12.603675499995006,12766,0.041992,-0.005859,1.058594,1.633588,2.992366,-1.091603,1.059442,3.579729,1335,2188,853,1335,0,118.28,1,damping
1780595058.5565982,12.633992100003525,12797,0.046387,-0.006348,1.052978,2.0,2.862595,-1.10687,1.054019,3.663279,1337,2193,856,1337,1,118.28,14,damping
1780595058.5890734,12.666467400005786,12827,0.040039,-0.010498,1.054199,1.503817,3.061069,-1.160305,1.055012,3.602487,1342,2200,858,1342,0,118.28,0,damping
1780595058.619568,12.696962100002565,12858,0.049805,-0.032959,1.05127,1.351145,3.083969,-0.900763,1.052965,3.485374,1344,2204,860,1344,0,118.28,0,damping
1780595058.6509397,12.728333699997165,12889,0.050293,-0.024902,1.059082,1.419847,3.351145,-0.671756,1.060568,3.700999,1348,2210,862,1348,0,118.28,5,damping
1780595058.6817214,12.759115499997279,12920,0.054932,-0.016357,1.070068,1.08397,3.580153,-0.549618,1.071602,3.780815,1352,2216,864,1352,0,118.28,0,damping
1780595058.712864,12.79025800000818,12951,0.055176,-0.006348,1.058594,1.206107,2.854962,-0.770992,1.06005,3.193733,1354,2221,867,1354,1,103.943,14,damping
1780595058.7438593,12.821253300004173,12982,0.029541,-0.026367,1.04834,1.633588,2.564885,-1.038168,1.049087,3.21326,1359,2228,869,1359,0,103.943,1,damping
1780595058.7748842,12.852278200007277,13013,0.040527,-0.010742,1.062256,1.656489,2.51145,-1.229008,1.063083,3.249892,1361,2232,871,1361,0,103.943,0,damping
1780595058.805126,12.882519999999204,13044,0.049072,-0.006592,1.055176,2.137405,3.061069,-1.160305,1.056337,3.909597,1363,2237,874,1363,1,103.943,13,damping
1780595058.8358736,12.913267600000836,13075,0.041748,-0.006836,1.051514,1.175572,3.030534,-0.641221,1.052364,3.313197,1368,2244,876,1368,0,103.943,1,damping
1780595058.8680053,12.945399300006102,13106,0.047607,-0.023438,1.05957,1.954198,3.068702,-1.10687,1.060898,3.80276,1370,2248,878,1370,0,103.943,0,damping
1780595058.8985667,12.975960800002213,13137,0.059814,-0.016357,1.05957,1.564886,3.572519,-0.351145,1.061383,3.916001,1373,2254,881,1373,0,103.943,6,damping
1780595058.9288332,13.006227200006833,13168,0.046631,-0.010742,1.063965,1.015267,3.694656,-0.763359,1.06504,3.906913,1377,2260,883,1377,0,103.943,0,damping
1780595058.9607053,13.038099400000647,13199,0.031738,-0.025635,1.047852,1.129771,3.137405,-0.358779,1.048646,3.353865,1379,2265,886,1379,1,103.943,13,damping
1780595058.9928367,13.070230800003628,13231,0.037842,-0.013184,1.0625,1.244275,2.984733,-0.931298,1.063255,3.36514,1384,2272,888,1384,0,107.143,0,damping
1780595059.0234482,13.100842200001352,13262,0.035645,-0.02832,1.046631,1.80916,3.007634,-1.015267,1.04762,3.653723,1386,2276,890,1386,0,107.143,0,damping
1780595059.0549664,13.132360500007053,13293,0.047119,-0.032959,1.054932,1.984733,3.419847,-0.51145,1.056498,3.986992,1389,2281,892,1389,1,107.143,13,damping
1780595059.085391,13.162785000007716,13324,0.039795,-0.013184,1.047363,1.122137,3.358779,-0.748092,1.048202,3.619424,1394,2288,894,1394,0,107.143,0,damping
1780595059.1170769,13.194470900009037,13355,0.054199,-0.047607,1.052978,1.824428,3.51145,-0.503817,1.055447,3.989066,1396,2293,897,1396,1,107.143,14,damping
1780595059.1483784,13.225772500009043,13387,0.037842,-0.03125,1.050293,1.709924,2.916031,-1.419847,1.051439,3.666475,1401,2300,899,1401,0,107.143,1,damping
1780595059.1795099,13.256904000008944,13418,0.042969,-0.009766,1.057373,1.656489,3.091603,-0.770992,1.058291,3.591155,1403,2304,901,1403,0,107.143,1,damping
1780595059.2112753,13.288669400004437,13449,0.052002,-0.023193,1.055176,2.015267,2.877863,-1.198473,1.056711,3.712106,1405,2309,904,1405,1,107.143,14,damping
1780595059.2422876,13.31968169999891,13480,0.046143,-0.024902,1.056396,1.549618,3.206107,-0.89313,1.057697,3.671256,1410,2316,906,1410,0,107.143,0,damping
1780595059.2736964,13.351090500000282,13512,0.05542,-0.043945,1.052246,1.282443,3.48855,-1.022901,1.05462,3.854992,1412,2320,908,1412,0,99.644,0,damping
1780595059.3047566,13.38215059999493,13543,0.042969,-0.026611,1.051758,1.618321,2.648855,-0.48855,1.052972,3.142304,1417,2326,909,1417,0,99.644,6,damping
1780595059.334775,13.412169000002905,13574,0.043457,-0.03125,1.065674,1.473282,3.083969,-0.725191,1.067017,3.493899,1421,2332,911,1421,0,99.644,0,damping
1780595059.3657193,13.44311330000346,13605,0.035156,-0.03125,1.05127,1.251908,3.030534,-0.916031,1.052321,3.404486,1423,2337,914,1423,1,99.644,13,damping
1780595059.3976188,13.475012800001423,13636,0.044678,-0.023926,1.056152,1.396947,3.076336,-0.854962,1.057368,3.485149,1428,2344,916,1428,0,99.644,1,damping
1780595059.4291744,13.506568400000106,13667,0.036377,-0.025879,1.05835,1.641221,2.938931,-0.725191,1.059291,3.443374,1430,2348,918,1430,0,99.644,0,damping
1780595059.459274,13.536668000000645,13698,0.047119,-0.036133,1.059814,2.038168,3.40458,-0.519084,1.061476,4.001842,1433,2353,920,1433,1,99.644,13,damping
1780595059.4895499,13.566943800004083,13728,0.047119,-0.024658,1.049316,1.145038,3.030534,-0.48855,1.050663,3.276268,1438,2360,922,1438,0,99.644,1,damping
1780595059.5207038,13.598097699999926,13759,0.047363,-0.030273,1.060791,1.603053,3.320611,-0.954198,1.062279,3.80877,1440,2364,924,1440,0,99.644,0,damping
1780595059.551897,13.629291000004741,13790,0.052002,-0.03125,1.05542,1.961832,3.137405,-0.29771,1.057162,3.71224,1444,2370,926,1444,0,115.108,6,damping
1780595059.58257,13.659964000005857,13821,0.049072,-0.008789,1.060547,1.328244,3.381679,-0.763359,1.061718,3.712506,1448,2376,928,1448,0,115.108,1,damping
1780595059.6144388,13.691832700002124,13852,0.040039,-0.025635,1.057861,1.381679,2.839695,-0.694656,1.058929,3.233489,1450,2381,931,1450,1,115.108,14,damping
1780595059.6452281,13.7226221000019,13883,0.048096,-0.025879,1.063232,1.290076,3.099237,-1.198473,1.064634,3.564534,1455,2388,933,1455,0,115.108,1,damping
1780595059.6767528,13.754146899998887,13915,0.042969,-0.037598,1.05127,1.793893,3.083969,-0.946565,1.052819,3.691193,1457,2392,935,1457,0,115.108,1,damping
1780595059.7077882,13.785182300009183,13946,0.050293,-0.02832,1.062012,1.900763,3.496183,-0.473282,1.063579,4.007518,1461,2398,937,1461,0,115.108,5,damping
1780595059.7382827,13.815676700003678,13978,0.04834,-0.010986,1.060791,1.267176,3.099237,-0.900763,1.061949,3.46733,1465,2404,939,1465,0,115.108,0,damping
1780595059.7710826,13.84847670000454,14009,0.033447,-0.031982,1.052978,1.664122,2.740458,-0.80916,1.053995,3.306683,1467,2409,942,1467,1,115.108,13,damping
1780595059.800446,13.877840000001015,14040,0.03418,0.003174,1.057373,1.419847,3.229008,-0.770992,1.05793,3.610663,1472,2416,944,1472,0,112.0,0,damping
1780595059.833364,13.910757899997407,14071,0.042236,-0.024414,1.049316,1.992366,2.709924,-1.045802,1.05045,3.522344,1473,2418,945,1473,0,112.0,6,damping
1780595059.8636613,13.941055400006007,14102,0.047852,-0.014648,1.051514,1.839695,3.496183,-1.259542,1.052704,4.146591,1476,2423,947,1476,1,112.0,13,damping
1780595059.8938086,13.9712026000052,14133,0.042969,-0.029541,1.058838,1.152672,2.916031,-1.007634,1.060121,3.293511,1481,2430,949,1481,0,112.0,0,damping
1780595059.9254296,14.002823500006343,14164,0.047363,-0.022461,1.056885,1.183206,3.450382,-1.099237,1.058184,3.80965,1483,2434,951,1483,0,112.0,0,damping
1780595059.9575083,14.034902300001704,14195,0.049561,-0.032471,1.051514,1.709924,2.908397,-0.709924,1.053182,3.447695,1486,2440,954,1486,0,112.0,6,damping
1780595059.9863281,14.06372220000776,14227,0.037598,-0.036621,1.0625,1.465649,3.70229,-0.396947,1.063796,4.00158,1490,2446,956,1490,0,112.0,1,damping
1780595060.016269,14.093663000006927,14256,0.049561,-0.004639,1.056396,1.48855,2.832061,-0.618321,1.057569,3.25863,1492,2451,959,1492,1,112.0,14,damping
1780595060.0476484,14.125042400002712,14286,0.054932,-0.022949,1.063965,1.656489,3.007634,-0.59542,1.065629,3.484873,1496,2456,960,1496,0,112.0,5,damping
1780595060.0785365,14.1559305999981,14317,0.044922,-0.048096,1.052734,1.389313,3.396947,-1.038168,1.054789,3.814083,1500,2462,962,1500,0,101.083,0,damping
1780595060.1090596,14.186453500005882,14348,0.040283,-0.030029,1.05542,1.40458,2.961832,-1.08397,1.056615,3.452576,1502,2467,965,1502,1,101.083,13,damping
1780595060.1405275,14.217921500006923,14379,0.047363,-0.015869,1.05957,1.480916,3.381679,-0.748092,1.060747,3.766764,1507,2474,967,1507,0,101.083,1,damping
1780595060.171395,14.248789100005524,14410,0.02417,-0.029297,1.051758,1.954198,2.908397,-1.022901,1.052443,3.650204,1509,2478,969,1509,0,101.083,0,damping
1780595060.2148006,14.292194499998004,14441,0.040283,-0.038086,1.054199,2.068702,3.465649,-0.740458,1.055656,4.103478,1513,2484,971,1513,0,101.083,6,damping
1780595060.2333498,14.310743699999875,14472,0.051025,-0.025879,1.060547,1.480916,3.755725,-0.519084,1.062089,4.070384,1517,2490,973,1517,0,101.083,1,damping
1780595060.2641315,14.34152560000075,14503,0.053223,-0.026367,1.05835,1.870229,3.412214,-0.473282,1.060015,3.919816,1519,2494,975,1519,0,101.083,0,damping
1780595060.295339,14.372732999996515,14534,0.043945,-0.020508,1.051514,1.312977,2.671756,-0.793893,1.052631,3.080983,1524,2500,976,1524,0,101.083,6,damping
1780595060.3274612,14.404855300002964,14565,0.047363,-0.041748,1.058106,1.824428,3.435115,-0.641221,1.059987,3.942044,1528,2506,978,1528,0,101.083,0,damping
1780595060.3577268,14.435120900001493,14596,0.032959,-0.034424,1.049316,1.78626,2.358779,-1.114504,1.050398,3.161752,1530,2511,981,1530,1,107.527,14,damping
1780595060.389328,14.466722099998151,14627,0.04834,-0.018066,1.051758,1.732824,2.732824,-1.175572,1.053023,3.442816,1535,2518,983,1535,0,107.527,1,damping
1780595060.4190054,14.496399299998302,14658,0.033691,-0.019287,1.054932,1.534351,2.969466,-0.625954,1.055646,3.400556,1537,2522,985,1537,0,107.527,0,damping
1780595060.4515898,14.528983900003368,14689,0.037109,-0.034912,1.057373,2.221374,3.709924,-0.770992,1.0586,4.392319,1541,2528,987,1541,0,107.527,6,damping
1780595060.4813826,14.558776699996088,14720,0.054199,-0.022705,1.063965,1.618321,3.290076,-0.709924,1.065586,3.734643,1545,2534,989,1545,0,107.527,1,damping
1780595060.5130894,14.59048349999648,14751,0.048096,-0.026367,1.057373,2.152672,3.083969,-0.664122,1.058795,3.819152,1547,2539,992,1547,1,107.527,14,damping
1780595060.5452132,14.622607199999038,14783,0.036377,-0.014893,1.054932,1.755725,2.656489,-0.977099,1.055664,3.3308,1552,2546,994,1552,0,107.527,0,damping
1780595060.5768359,14.654229799998575,14815,0.024658,-0.030518,1.046143,2.007634,2.633588,-0.931298,1.046878,3.440014,1554,2550,996,1554,0,107.527,0,damping
1780595060.6079721,14.685366200006683,14846,0.047607,-0.033691,1.053223,1.534351,3.305344,-0.862595,1.054836,3.74481,1557,2555,998,1557,1,108.0,14,damping
1780595060.6391387,14.716532599995844,14878,0.04834,-0.01709,1.057373,1.0,3.198473,-0.48855,1.058615,3.386578,1562,2562,1000,1562,0,108.0,0,damping
1780595060.6695683,14.746962200006237,14908,0.051758,-0.017578,1.060791,1.259542,3.091603,-1.10687,1.062198,3.517046,1564,2566,1002,1564,0,108.0,0,damping
1780595060.7015529,14.778946899998118,14939,0.032227,-0.022705,1.041992,1.656489,2.923664,-0.648855,1.042738,3.422394,1568,2572,1004,1568,0,108.0,6,damping
1780595060.7314284,14.808822300008615,14970,0.033447,-0.035645,1.048584,1.061069,3.396947,-0.748092,1.049723,3.636586,1572,2578,1006,1572,0,108.0,1,damping
1780595060.7612886,14.838682600005995,15001,0.027588,-0.03125,1.049072,1.70229,3.076336,-1.061069,1.0499,3.672533,1574,2583,1009,1574,1,108.0,14,damping
1780595060.7925203,14.869914299997617,15030,0.032715,-0.0271,1.046875,1.839695,2.442748,-0.587786,1.047736,3.113998,1578,2588,1010,1578,0,108.0,6,damping
1780595060.8223262,14.899720300003537,15061,0.045898,-0.04126,1.060547,1.954198,3.351145,-0.625954,1.062341,3.929489,1582,2594,1012,1582,0,108.0,0,damping
1780595060.8538334,14.931227399996715,15092,0.044189,-0.025635,1.053955,1.885496,2.641221,-1.19084,1.055192,3.456768,1584,2599,1015,1584,1,108.0,13,damping
1780595060.884404,14.96179800000391,15123,0.052979,-0.025635,1.062012,1.603053,2.885496,-0.923664,1.063641,3.427685,1589,2606,1017,1589,0,115.523,1,damping
1780595060.9158938,14.993287699995562,15154,0.032227,-0.02832,1.050781,1.687023,2.80916,-0.923664,1.051657,3.404494,1591,2610,1019,1591,0,115.523,0,damping
1780595060.9465036,15.023897599996417,15185,0.043701,-0.023438,1.054199,1.862595,3.549618,-0.618321,1.055365,4.05603,1595,2616,1021,1595,0,115.523,6,damping
1780595060.9792418,15.056635900007677,15217,0.047607,-0.012695,1.068115,1.557252,3.244275,-0.80916,1.069251,3.688508,1599,2622,1023,1599,0,115.523,1,damping
1780595061.009819,15.087213000006159,15248,0.05542,-0.001953,1.060547,1.763359,3.152672,-0.580153,1.061996,3.6586,1601,2627,1026,1601,1,115.523,14,damping
1780595061.040645,15.118038900007377,15279,0.040771,-0.025879,1.052734,1.778626,2.992366,-0.80916,1.053841,3.573864,1604,2632,1028,1604,0,115.523,1,damping
1780595061.0713284,15.148722400001134,15310,0.056152,-0.020508,1.062256,1.381679,3.167939,-0.969466,1.063937,3.589532,1606,2636,1030,1606,0,115.523,0,damping
1780595061.1020787,15.179472799994983,15341,0.044434,-0.015137,1.058106,2.175573,2.885496,-1.221374,1.059146,3.814572,1608,2641,1033,1608,1,115.523,13,damping
1780595061.1336253,15.211019199996372,15372,0.046631,-0.003906,1.055664,1.282443,2.839695,-0.763359,1.056701,3.207997,1613,2648,1035,1613,0,115.523,1,damping
1780595061.164963,15.242356999995536,15403,0.047852,-0.039795,1.056396,1.977099,3.129771,-0.709924,1.058228,3.7694,1615,2652,1037,1615,0,92.857,0,damping
1780595061.195082,15.272475999998278,15434,0.050781,-0.025635,1.057861,1.755725,3.450382,-0.419847,1.05939,3.894095,1619,2658,1039,1619,0,92.857,6,damping
1780595061.2271209,15.304514800009201,15465,0.04541,-0.01709,1.064697,1.458015,3.21374,-0.664122,1.065802,3.59096,1621,2662,1041,1621,0,92.857,0,damping
1780595061.2579575,15.335351500005345,15496,0.049072,-0.006348,1.052734,1.030534,3.450382,-0.473282,1.053897,3.63196,1622,2665,1043,1622,1,92.857,17,damping
1780595061.2881188,15.365512799995486,15527,0.019775,-0.032959,1.046875,1.70229,2.381679,-0.931298,1.04758,3.072052,1628,2672,1044,1628,0,92.857,0,damping
1780595061.3195367,15.396930600007181,15558,0.049072,-0.009766,1.057861,1.503817,2.946565,-0.633588,1.059044,3.368255,1630,2676,1046,1630,0,92.857,0,damping
1780595061.350031,15.427424900000915,15589,0.052246,-0.02124,1.052246,2.0,2.450382,-0.977099,1.053756,3.310452,1632,2681,1049,1632,1,92.857,13,damping
1780595061.3807151,15.458109200000763,15619,0.041748,-0.028076,1.053223,1.427481,2.992366,-1.29771,1.054424,3.560338,1637,2688,1051,1637,0,92.857,0,damping
1780595061.4134245,15.49081849999493,15650,0.026855,-0.031494,1.04834,1.847328,3.152672,-0.541985,1.049157,3.69401,1639,2692,1053,1639,0,92.857,0,damping
1780595061.4421103,15.519504299998516,15681,0.052002,-0.037354,1.059814,1.740458,3.267176,-0.633588,1.061747,3.755671,1642,2697,1055,1642,1,97.122,14,damping
1780595061.4735227,15.550916699998197,15712,0.043701,-0.017822,1.054932,1.08397,3.305344,-0.847328,1.055987,3.580259,1647,2704,1057,1647,0,97.122,0,damping
1780595061.505422,15.582816099995398,15743,0.049561,-0.04126,1.049561,1.587786,3.366412,-0.740458,1.05154,3.795006,1649,2708,1059,1649,0,97.122,1,damping
1780595061.5366313,15.614025300004869,15774,0.024902,-0.021973,1.043945,1.78626,2.641221,-1.145038,1.044473,3.387903,1654,2714,1060,1654,0,97.122,5,damping
1780595061.5670555,15.644449400002486,15805,0.036377,-0.024902,1.061035,1.89313,3.328244,-0.610687,1.061951,3.877382,1658,2720,1062,1658,0,97.122,0,damping
1780595061.598452,15.675846199999796,15837,0.054688,-0.026855,1.060791,1.801527,2.687023,-1.175572,1.062539,3.442028,1660,2725,1065,1660,1,97.122,13,damping
1780595061.629469,15.706862899998669,15868,0.054688,-0.011719,1.052978,1.557252,3.557252,-0.793893,1.054463,3.963501,1665,2732,1067,1665,0,97.122,0,damping
1780595061.6608312,15.738225199995213,15899,0.044678,-0.027588,1.058106,1.732824,2.847328,-0.946565,1.059408,3.464959,1667,2736,1069,1667,0,97.122,1,damping
1780595061.6924012,15.769795200001681,15930,0.055664,-0.016113,1.062256,1.908397,3.610687,-0.549618,1.063835,4.120815,1671,2742,1071,1671,0,97.122,6,damping
1780595061.7236784,15.801072400005069,15962,0.051758,-0.012695,1.060303,1.877863,3.381679,-0.618321,1.061641,3.917198,1675,2748,1073,1675,0,117.438,0,damping
1780595061.7545857,15.831979800001136,15993,0.040283,-0.015625,1.057861,1.564886,2.778626,-0.679389,1.058743,3.260552,1677,2753,1076,1677,1,117.438,14,damping
1780595061.7866132,15.864007199998014,16024,0.026367,-0.015625,1.051025,1.732824,2.625954,-1.290076,1.051472,3.400384,1682,2760,1078,1682,0,117.438,0,damping
1780595061.8180285,15.895422400004463,16056,0.0271,-0.021973,1.054199,1.938931,2.679389,-0.78626,1.054776,3.399527,1684,2764,1080,1684,0,117.438,0,damping
1780595061.8485293,15.925923300004797,16087,0.032715,-0.0354,1.057861,1.969466,3.496183,-0.877863,1.058959,4.107644,1687,2769,1082,1687,1,117.438,14,damping
1780595061.8805485,15.957942499997444,16119,0.051025,-0.023682,1.056885,1.450382,3.442748,-0.793893,1.058381,3.819213,1692,2776,1084,1692,0,117.438,0,damping
1780595061.9124117,15.989805699995486,16150,0.049316,-0.013184,1.052246,0.908397,3.137405,-0.694656,1.053484,3.339318,1694,2781,1087,1694,1,117.438,14,damping
1780595061.9430554,16.020449400006328,16182,0.035645,-0.00293,1.063232,1.312977,2.832061,-1.396947,1.063834,3.419932,1700,2788,1088,1700,0,117.438,0,damping
1780595061.9742143,16.051608299996587,16213,0.046875,-0.034668,1.059326,1.312977,3.045802,-0.793893,1.060929,3.410437,1702,2792,1090,1702,0,107.57,0,damping
1780595062.0046394,16.082033300001058,16244,0.049805,-0.009033,1.050049,1.984733,3.015267,-1.091603,1.051268,3.771286,1705,2797,1092,1705,1,107.57,14,damping
1780595062.0368192,16.114213299995754,16275,0.049805,-0.031738,1.049316,1.167939,2.793893,-0.801527,1.050977,3.13247,1710,2804,1094,1710,0,107.57,0,damping
1780595062.0672824,16.14467650000006,16306,0.040771,-0.020264,1.05957,2.152672,2.961832,-1.312977,1.060548,3.889776,1712,2808,1096,1712,0,107.57,1,damping
1780595062.0986543,16.176048299996182,16337,0.057617,-0.025391,1.053467,1.755725,3.114504,-0.877863,1.055347,3.681487,1716,2814,1098,1716,0,107.57,5,damping
1780595062.1312978,16.208691899999394,16369,0.042725,-0.026367,1.068359,1.427481,3.206107,-0.381679,1.069538,3.530227,1720,2820,1100,1720,0,107.57,0,damping
1780595062.161951,16.239345099995262,16400,0.046387,-0.028076,1.056396,1.198473,2.641221,-0.534351,1.057787,2.949224,1722,2825,1103,1722,1,107.57,13,damping
1780595062.1926496,16.270043600001372,16431,0.058594,-0.030762,1.060059,1.381679,3.221374,-0.931298,1.062122,3.62679,1727,2832,1105,1727,0,107.57,0,damping
1780595062.2233725,16.3007665000041,16462,0.04126,-0.032959,1.05957,1.610687,3.251908,-0.70229,1.060885,3.696273,1729,2836,1107,1729,0,107.57,0,damping
1780595062.254109,16.331502800007,16493,0.050049,-0.016846,1.061768,1.877863,3.396947,-1.076336,1.06308,4.027917,1732,2841,1109,1732,1,107.143,14,damping
1780595062.2859943,16.363388400000986,16524,0.040283,-0.010254,1.057617,1.305344,2.992366,-0.664122,1.058434,3.331552,1735,2846,1111,1735,0,107.143,0,damping
1780595062.3167193,16.39411320000363,16555,0.043213,-0.044434,1.045166,1.725191,3.305344,-0.671756,1.047002,3.788514,1737,2850,1113,1737,0,107.143,1,damping
1780595062.3481603,16.42555430000357,16586,0.046631,-0.031738,1.043701,2.381679,2.664122,-0.694656,1.045224,3.640397,1742,2856,1114,1742,0,107.143,5,damping
1780595062.3785627,16.455956699996023,16617,0.04248,-0.023438,1.055176,2.061069,3.305344,-0.687023,1.056291,3.955414,1746,2862,1116,1746,0,107.143,0,damping
1780595062.4102197,16.487613699995563,16649,0.052979,-0.022705,1.050781,2.175573,2.961832,-1.129771,1.052361,3.84473,1748,2867,1119,1748,1,107.143,13,damping
1780595062.4406621,16.51805620000232,16680,0.055176,-0.009033,1.056396,1.396947,3.366412,-1.160305,1.057875,3.824984,1752,2872,1120,1752,0,107.143,6,damping
1780595062.4727254,16.55011949999607,16711,0.040527,-0.029541,1.059814,0.900763,2.832061,-1.175572,1.061,3.195922,1754,2876,1122,1754,0,107.143,1,damping
1780595062.5026164,16.58001050000894,16742,0.045898,-0.015137,1.066894,2.0,3.442748,-0.603053,1.067989,4.026933,1757,2880,1123,1757,0,107.143,5,damping
1780595062.5406792,16.61807330000738,16778,0.041504,-0.019775,1.053955,1.748092,3.022901,-1.229008,1.054957,3.70192,1761,2886,1125,1761,0,101.754,0,damping
1780595062.5721025,16.64949660000275,16810,0.05835,-0.019287,1.061035,2.152672,3.129771,-0.503817,1.062813,3.831879,1765,2892,1127,1765,0,101.754,6,damping
1780595062.6036718,16.681065700002364,16842,0.052246,-0.011475,1.064453,1.427481,3.183206,-0.709924,1.065796,3.560126,1769,2898,1129,1769,0,101.754,0,damping
1780595062.6348586,16.71225250000134,16873,0.024658,-0.032959,1.041748,1.534351,2.564885,-0.389313,1.042561,3.01404,1771,2903,1132,1771,1,101.754,13,damping
1780595062.6645527,16.741946800000733,16904,0.032715,-0.000488,1.058594,1.51145,3.015267,-0.984733,1.059099,3.51369,1776,2910,1134,1776,0,101.754,1,damping
1780595062.6973634,16.774757399994996,16935,0.043457,-0.030762,1.052002,1.70229,2.877863,-0.832061,1.053348,3.445608,1778,2914,1136,1778,0,101.754,0,damping
1780595062.7270815,16.80447550000099,16965,0.041016,-0.024902,1.053955,1.328244,2.961832,-0.687023,1.055047,3.317933,1780,2919,1139,1780,1,101.754,13,damping
1780595062.7567782,16.834172200004105,16996,0.035889,-0.006836,1.055664,1.465649,3.412214,-0.847328,1.056296,3.809107,1785,2926,1141,1785,0,101.754,0,damping
1780595062.7885869,16.865980900009163,17027,0.038818,-0.035156,1.055176,1.89313,3.450382,-0.847328,1.056475,4.025797,1787,2930,1143,1787,0,101.754,1,damping
1780595062.8194945,16.896888500006753,17058,0.050537,-0.025635,1.054688,1.946565,3.793893,-0.664122,1.056209,4.31553,1791,2936,1145,1791,0,107.143,5,damping
1780595062.8508239,16.928217799999402,17089,0.044678,-0.016602,1.056885,1.572519,3.091603,-1.015267,1.057959,3.614082,1795,2942,1147,1795,0,107.143,0,damping
1780595062.8812737,16.9586677000043,17120,0.061523,-0.006592,1.055664,1.549618,3.236641,-0.549618,1.057476,3.630323,1797,2947,1150,1797,1,107.143,13,damping
1780595062.9125993,16.98999339999864,17151,0.033447,-0.027832,1.048584,1.061069,2.541985,-0.801527,1.049486,2.868797,1802,2954,1152,1802,0,107.143,0,damping
1780595062.943536,17.020930099999532,17182,0.046387,-0.030762,1.057373,1.89313,2.992366,-0.671756,1.058837,3.604088,1804,2958,1154,1804,0,107.143,1,damping
1780595062.9751217,17.05251570000837,17213,0.041016,-0.015869,1.049316,2.053435,2.923664,-1.221374,1.050238,3.775733,1806,2963,1157,1806,1,107.143,14,damping
1780595063.0055125,17.082906499999808,17244,0.053223,-0.008545,1.051025,1.862595,3.198473,-0.877863,1.052407,3.803963,1811,2970,1159,1811,0,107.143,0,damping
1780595063.037293,17.114687000008416,17275,0.045654,-0.030762,1.05957,1.687023,3.022901,-1.007634,1.060999,3.605454,1813,2974,1161,1813,0,107.143,0,damping
1780595063.0675495,17.1449433999951,17306,0.041016,-0.039551,1.059082,1.770992,3.862595,-0.709924,1.060614,4.308138,1817,2980,1163,1817,0,107.143,6,damping
1780595063.0992649,17.17665880000277,17337,0.043213,-0.022217,1.063477,1.007634,3.312977,-0.862595,1.064586,3.568643,1821,2986,1165,1821,0,107.527,1,damping
1780595063.1299126,17.207306700001936,17368,0.045166,-0.015625,1.056152,1.854962,3.290076,-0.709924,1.057233,3.843108,1823,2991,1168,1823,1,107.527,14,damping
1780595063.1622057,17.239599599997746,17400,0.035889,-0.017334,1.052978,1.610687,2.526718,-1.053435,1.053732,3.176215,1826,2996,1170,1826,0,107.527,1,damping
1780595063.1939497,17.271343700005673,17432,0.036133,-0.03125,1.049561,1.824428,2.748092,-1.007634,1.050647,3.449039,1828,3000,1172,1828,0,107.527,0,damping
1780595063.2247808,17.302174900003592,17463,0.052002,-0.010254,1.053223,1.717557,3.450382,-1.076336,1.054555,4.001704,1830,3005,1175,1830,1,107.527,13,damping
1780595063.255103,17.332497199997306,17494,0.046631,-0.031982,1.054932,1.183206,3.083969,-0.847328,1.056446,3.410104,1835,3012,1177,1835,0,107.527,0,damping
1780595063.2872074,17.36460129999614,17525,0.046875,-0.023926,1.061035,1.51145,2.916031,-1.206107,1.06234,3.498916,1837,3016,1179,1837,0,107.527,0,damping
1780595063.3179436,17.3953376999998,17556,0.058838,-0.022949,1.056396,1.526718,2.763359,-0.618321,1.058283,3.217039,1840,3022,1182,1840,0,107.527,5,damping
1780595063.3510222,17.428416199996718,17588,0.045166,-0.025879,1.069336,1.618321,3.10687,-0.89313,1.070602,3.615147,1844,3028,1184,1844,0,91.633,0,damping
1780595063.3794835,17.456877400007215,17619,0.027344,-0.029785,1.05249,1.717557,3.0,-0.954198,1.053266,3.586154,1845,3031,1186,1845,1,91.633,17,damping
1780595063.4102347,17.487628700007917,17649,0.032959,-0.001465,1.060791,1.458015,2.633588,-1.229008,1.061304,3.25147,1850,3038,1188,1850,0,91.633,0,damping
1780595063.440979,17.518373099999735,17680,0.035889,-0.00293,1.050049,1.641221,2.992366,-0.80916,1.050666,3.507507,1852,3042,1190,1852,0,91.633,1,damping
1780595063.472222,17.549616200005403,17711,0.041504,-0.006836,1.054199,2.335878,2.816794,-1.183206,1.055038,3.845859,1854,3047,1193,1854,1,91.633,14,damping
1780595063.5039153,17.58130920000258,17741,0.057129,-0.014893,1.054932,1.450382,3.381679,-0.801527,1.056582,3.765874,1859,3054,1195,1859,0,91.633,0,damping
1780595063.5335486,17.610942500003148,17773,0.034424,-0.024414,1.05542,1.793893,3.0,-0.961832,1.056263,3.625352,1861,3058,1197,1861,0,91.633,0,damping
1780595063.5651999,17.642593900003703,17803,0.049316,-0.040039,1.050781,2.045802,3.717557,-0.78626,1.0527,4.315523,1865,3064,1199,1865,0,91.633,6,damping
1780595063.5956676,17.673061499997857,17834,0.046631,-0.026855,1.050049,1.328244,3.374046,-0.885496,1.051427,3.732629,1869,3070,1201,1869,0,91.633,1,damping
1780595063.6267934,17.704187399998773,17865,0.045654,-0.030273,1.049805,1.557252,3.526718,-0.503817,1.051233,3.888007,1871,3074,1203,1871,0,97.473,0,damping
1780595063.6576931,17.735087199995178,17896,0.028564,-0.025391,1.048828,1.755725,2.679389,-0.625954,1.049524,3.263972,1876,3080,1204,1876,0,97.473,5,damping
1780595063.6886704,17.76606449999963,17927,0.053955,-0.019043,1.057617,1.89313,3.244275,-0.80916,1.059164,3.842395,1880,3086,1206,1880,0,97.473,0,damping
1780595063.7198062,17.797200200002408,17958,0.025879,-0.036133,1.050537,2.007634,2.977099,-0.900763,1.051477,3.702038,1882,3091,1209,1882,1,97.473,13,damping
1780595063.751131,17.828525000004447,17989,0.048584,-0.029053,1.053711,1.755725,3.274809,-1.160305,1.05523,3.892718,1887,3098,1211,1887,0,97.473,0,damping
1780595063.781802,17.859195900004124,18020,0.046875,-0.032471,1.049072,1.946565,2.877863,-0.740458,1.050621,3.552392,1889,3102,1213,1889,0,97.473,1,damping
1780595063.8124833,17.889877299996442,18051,0.050781,-0.012451,1.052734,1.564886,3.824427,-0.816794,1.054032,4.212157,1892,3107,1215,1892,1,97.473,14,damping
1780595063.844423,17.921816999994917,18082,0.044434,-0.027344,1.059082,1.503817,3.259542,-0.534351,1.060366,3.629271,1896,3112,1216,1896,0,97.473,6,damping
1780595063.874143,17.951536900000065,18113,0.057373,-0.034424,1.060547,1.450382,3.396947,-0.801527,1.062655,3.77959,1898,3116,1218,1898,0,97.473,0,damping
1780595063.9069316,17.984325600002194,18144,0.050293,-0.026611,1.064453,1.793893,2.770992,-0.778626,1.065973,3.391564,1901,3122,1221,1901,0,107.527,6,damping
1780595063.9368513,18.014245300000766,18176,0.044678,-0.03125,1.061035,1.343511,3.244275,-0.923664,1.062435,3.630909,1905,3128,1223,1905,0,107.527,1,damping
1780595063.9692404,18.046634500002256,18207,0.048828,-0.029053,1.050049,1.435114,3.221374,-0.916031,1.051585,3.643613,1907,3133,1226,1907,1,107.527,14,damping
1780595063.999472,18.076865800001542,18238,0.046143,-0.022949,1.05957,1.374046,3.015267,-1.175572,1.060823,3.515936,1912,3140,1228,1912,0,107.527,1,damping
1780595064.030675,18.10806900000898,18269,0.047119,-0.029785,1.053223,1.778626,3.022901,-0.793893,1.054697,3.596068,1914,3144,1230,1914,0,107.527,0,damping
1780595064.0614588,18.13885279999522,18300,0.040771,-0.018066,1.064453,1.740458,3.396947,-0.618321,1.065387,3.866621,1917,3149,1232,1917,1,107.527,14,damping
1780595064.094176,18.171570100006647,18331,0.035889,-0.014893,1.052002,1.389313,2.763359,-1.053435,1.052719,3.267426,1922,3156,1234,1922,0,107.527,0,damping
1780595064.1236029,18.20099680000567,18362,0.059326,-0.037598,1.055176,1.641221,3.343511,-0.977099,1.057511,3.850636,1924,3160,1236,1924,0,107.527,1,damping
1780595064.1548793,18.232273400004487,18393,0.047607,-0.028076,1.047363,2.091603,2.610687,-0.832061,1.048821,3.447146,1929,3166,1237,1929,0,107.527,6,damping
1780595064.1862068,18.26360079999722,18424,0.044922,-0.018555,1.062744,1.503817,3.129771,-0.70229,1.063855,3.542618,1933,3172,1239,1933,0,114.286,1,damping
1780595064.2202659,18.29765989999578,18455,0.02124,-0.030518,1.047852,1.755725,2.885496,-0.648855,1.048511,3.439429,1935,3177,1242,1935,1,114.286,14,damping
1780595064.2488225,18.326216500005103,18487,0.046143,-0.022217,1.056152,1.534351,3.435115,-0.793893,1.057393,3.845063,1940,3184,1244,1940,0,114.286,0,damping
1780595064.2801187,18.357512800008408,18518,0.044434,-0.026611,1.05835,1.557252,2.961832,-0.977099,1.059616,3.486002,1942,3188,1246,1942,0,114.286,0,damping
1780595064.3107703,18.388164400006644,18549,0.059326,-0.030029,1.060303,1.732824,3.709924,-0.610687,1.062386,4.139946,1946,3194,1248,1946,0,114.286,6,damping
1780595064.342763,18.42015689999971,18580,0.042725,-0.02832,1.059326,1.068702,3.541985,-0.503817,1.060566,3.733847,1950,3200,1250,1950,0,114.286,0,damping
1780595064.3727615,18.450155400001677,18611,0.054443,-0.036621,1.058106,2.007634,3.328244,-0.763359,1.060138,3.961126,1951,3202,1251,1951,0,114.286,4,damping
1780595064.4033873,18.480781300007948,18642,0.042236,-0.02832,1.049805,1.732824,2.541985,-0.709924,1.051036,3.157271,1956,3208,1252,1956,0,114.286,5,damping
1780595064.434217,18.511610900008236,18673,0.056396,-0.012451,1.071289,1.40458,2.923664,-0.625954,1.072845,3.303404,1960,3214,1254,1960,0,114.286,0,damping
1780595064.466387,18.54378100000031,18704,0.026611,-0.033447,1.049561,1.816794,2.755725,-0.847328,1.05043,3.407745,1962,3219,1257,1962,1,103.571,14,damping
1780595064.497569,18.57496300000639,18736,0.045166,-0.018311,1.051025,1.954198,3.236641,-0.648855,1.052155,3.836111,1967,3226,1259,1967,0,103.571,0,damping
1780595064.528804,18.60619800000859,18767,0.040771,-0.024414,1.062988,1.91603,3.061069,-1.167939,1.06405,3.795444,1969,3230,1261,1969,0,103.571,0,damping
1780595064.5602686,18.637662699999055,18798,0.065186,-0.02832,1.05542,1.435114,3.641221,-0.778626,1.05781,3.990527,1973,3236,1263,1973,0,103.571,6,damping
1780595064.5928106,18.670204699999886,18830,0.037354,-0.01123,1.067871,0.992366,3.198473,-0.992366,1.068583,3.492823,1977,3242,1265,1977,0,103.571,1,damping
1780595064.6231072,18.700501200000872,18861,0.039062,0.000488,1.050049,1.389313,2.541985,-0.549618,1.050775,2.948552,1979,3247,1268,1979,1,103.571,14,damping
1780595064.6545413,18.731935300005716,18892,0.026367,-0.018799,1.052002,1.625954,2.526718,-0.870229,1.0525,3.128151,1984,3254,1270,1984,0,103.571,1,damping
1780595064.685632,18.763025899999775,18924,0.040283,-0.036621,1.058106,1.755725,2.679389,-0.732824,1.059505,3.286142,1986,3258,1272,1986,0,103.571,0,damping
1780595064.7171202,18.79451419999532,18955,0.058105,-0.01416,1.053711,2.061069,3.229008,-1.305344,1.055407,4.047026,1989,3263,1274,1989,1,107.57,14,damping
1780595064.7478445,18.82523850000871,18986,0.069336,-0.018555,1.05957,1.045802,3.267176,-0.923664,1.061999,3.552646,1994,3270,1276,1994,0,107.57,0,damping
1780595064.7797308,18.857124900008785,19018,0.044922,-0.030029,1.058838,1.374046,3.641221,-0.671756,1.060216,3.949399,1996,3274,1278,1996,0,107.57,1,damping
1780595064.8105948,18.887988900009077,19049,0.036377,-0.017822,1.052002,1.51145,3.114504,-0.816794,1.052782,3.556932,2001,3280,1279,2001,0,107.57,6,damping
1780595064.842067,18.919461099998443,19080,0.044189,-0.018066,1.063232,1.458015,3.160305,-0.450382,1.064304,3.509442,2005,3286,1281,2005,0,107.57,1,damping
1780595064.8739202,18.951314300007652,19112,0.044189,-0.030518,1.055908,1.755725,2.641221,-1.244275,1.057273,3.406881,2007,3291,1284,2007,1,107.57,14,damping
1780595064.9046142,18.98200820000784,19143,0.040283,-0.022461,1.059814,1.725191,3.083969,-0.648855,1.060818,3.592793,2010,3296,1286,2010,0,107.57,1,damping
1780595064.936159,19.013552799995523,19174,0.040283,-0.028076,1.057861,1.671756,2.908397,-1.160305,1.059,3.549626,2012,3300,1288,2012,0,107.57,0,damping
1780595064.9663658,19.043759799998952,19205,0.038818,-0.036621,1.051514,1.435114,3.641221,-0.89313,1.052867,4.01444,2015,3305,1290,2015,1,104.0,13,damping
1780595064.9975324,19.074926400004188,19236,0.041992,-0.030273,1.05127,1.099237,3.496183,-0.732824,1.052543,3.737466,2020,3312,1292,2020,0,104.0,0,damping
1780595065.0285678,19.105961799999932,19267,0.051514,-0.026123,1.055176,1.458015,3.175573,-0.603053,1.056755,3.545948,2022,3316,1294,2022,0,104.0,1,damping
1780595065.060299,19.137692999996943,19298,0.038818,-0.028809,1.050049,1.51145,3.030534,-0.465649,1.051161,3.418399,2027,3322,1295,2027,0,104.0,5,damping
1780595065.0898206,19.167214700006298,19329,0.037598,-0.024902,1.060059,1.206107,3.29771,-0.435114,1.061017,3.538207,2031,3328,1297,2031,0,104.0,1,damping
1780595065.1203928,19.19778679999581,19359,0.048096,0.001221,1.055176,1.450382,2.435115,-0.870229,1.056272,2.96491,2033,3333,1300,2033,1,104.0,14,damping
1780595065.1513915,19.22878550000314,19390,0.030273,-0.021484,1.046875,1.48855,2.694656,-1.076336,1.047533,3.261204,2038,3340,1302,2038,0,104.0,1,damping
1780595065.1816769,19.25907090000692,19421,0.042725,-0.006104,1.053223,1.641221,2.816794,-1.251908,1.054107,3.492164,2040,3344,1304,2040,0,104.0,0,damping
1780595065.21275,19.29014399999869,19451,0.028809,-0.030273,1.053467,1.312977,2.732824,-1.045802,1.054295,3.20717,2042,3349,1307,2042,1,104.0,13,damping
1780595065.243844,19.321238100004848,19482,0.040771,-0.012695,1.060303,1.496183,3.0,-0.793893,1.061162,3.445117,2047,3356,1309,2047,0,115.523,0,damping
1780595065.2746246,19.352018500008853,19513,0.032471,-0.02832,1.050537,1.839695,2.89313,-0.931298,1.05142,3.552744,2049,3360,1311,2049,0,115.523,1,damping
1780595065.3056238,19.38301770000544,19544,0.045654,-0.038818,1.050781,1.648855,3.664122,-1.022901,1.052489,4.146184,2052,3365,1313,2052,1,115.523,14,damping
1780595065.3379922,19.415386100008618,19575,0.040527,-0.029053,1.05127,1.374046,3.641221,-0.656489,1.052452,3.94683,2057,3372,1315,2057,0,115.523,0,damping
1780595065.3683007,19.445694699999876,19607,0.043213,-0.026367,1.057617,1.778626,3.259542,-0.687023,1.058828,3.776258,2059,3377,1318,2059,1,115.523,14,damping
1780595065.4003234,19.477717500005383,19638,0.026611,-0.023438,1.044189,1.832061,2.59542,-0.923664,1.044791,3.308445,2063,3382,1319,2063,0,115.523,6,damping
1780595065.4299736,19.507367500002147,19669,0.043701,-0.015381,1.061279,1.70229,2.946565,-0.870229,1.06229,3.512454,2065,3386,1321,2065,0,115.523,1,damping
1780595065.4613223,19.53871629999776,19699,0.037109,-0.032471,1.058838,1.351145,2.541985,-0.526718,1.059985,2.926553,2066,3389,1323,2066,1,115.523,17,damping
1780595065.4917226,19.569116700004088,19730,0.040039,-0.001709,1.057129,1.305344,2.801527,-1.167939,1.057888,3.304021,2071,3396,1325,2071,0,115.523,1,damping
1780595065.521952,19.599346000002697,19761,0.050049,-0.006348,1.062256,1.572519,3.10687,-0.938931,1.063453,3.606529,2073,3400,1327,2073,0,93.19,0,damping
1780595065.5536578,19.631051700009266,19792,0.055664,-0.008789,1.047119,1.946565,3.740458,-0.862595,1.048634,4.303976,2075,3405,1330,2075,1,93.19,14,damping
1780595065.5834837,19.660877800008166,19822,0.056396,-0.015137,1.053467,1.687023,3.10687,-0.694656,1.055084,3.602948,2080,3412,1332,2080,0,93.19,0,damping
1780595065.6143682,19.69176210000296,19853,0.037842,-0.029541,1.053223,1.732824,3.122137,-0.984733,1.054316,3.704068,2082,3416,1334,2082,0,93.19,1,damping
1780595065.6457915,19.72318549999909,19884,0.062256,-0.02002,1.062012,2.091603,3.541985,-0.687023,1.064023,4.170427,2086,3422,1336,2086,0,93.19,6,damping
1780595065.6771681,19.75456210000266,19916,0.043213,-0.007813,1.063965,1.465649,3.236641,-0.740458,1.064871,3.62936,2090,3428,1338,2090,0,93.19,0,damping
1780595065.706906,19.78430020000087,19946,0.056885,-0.0271,1.058594,1.519084,3.29771,-0.969466,1.060467,3.757974,2092,3433,1341,2092,1,93.19,14,damping
1780595065.7384384,19.815832399995998,19977,0.041748,-0.029785,1.056152,2.160305,2.732824,-0.931298,1.057397,3.605907,2096,3438,1342,2096,0,93.19,6,damping
1780595065.7700405,19.84743460000027,20008,0.040771,-0.015869,1.048828,1.847328,3.038168,-0.862595,1.04974,3.658846,2100,3444,1344,2100,0,93.19,0,damping
1780595065.8017213,19.879115400006413,20039,0.037598,-0.018066,1.052002,1.938931,2.916031,-1.305344,1.052829,3.737193,2102,3449,1347,2102,1,104.317,14,damping
1780595065.8315063,19.908900299997185,20070,0.037598,-0.027832,1.05249,1.557252,3.175573,-0.816794,1.053529,3.629938,2107,3456,1349,2107,0,104.317,1,damping
1780595065.8631432,19.940537100002985,20101,0.03418,-0.032227,1.054443,1.946565,3.251908,-0.916031,1.055489,3.89912,2109,3460,1351,2109,0,104.317,0,damping
1780595065.8948252,19.972219200004474,20132,0.051514,-0.041504,1.054932,1.801527,3.358779,-0.870229,1.057004,3.9095,2112,3465,1353,2112,1,104.317,14,damping
1780595065.9251826,20.00257650000276,20163,0.034912,-0.034424,1.054932,1.51145,3.29771,-0.557252,1.05607,3.670137,2116,3470,1354,2116,0,104.317,6,damping
1780595065.9556525,20.033046399999876,20194,0.043213,-0.030762,1.052734,1.114504,3.549618,-1.0,1.05407,3.85252,2118,3474,1356,2118,0,104.317,1,damping
1780595065.9860368,20.063430800000788,20225,0.049561,-0.032715,1.052978,1.70229,3.068702,-0.847328,1.054652,3.610082,2121,3480,1359,2121,0,104.317,6,damping
1780595066.0180547,20.09544879999885,20256,0.043213,-0.032959,1.065186,1.587786,2.832061,-0.687023,1.066571,3.31868,2125,3486,1361,2125,0,104.317,1,damping
1780595066.048744,20.126137900006142,20287,0.035889,-0.031738,1.055176,1.778626,2.152672,-0.908397,1.056263,2.936442,2127,3491,1364,2127,1,104.317,14,damping
1780595066.0795205,20.156914399995003,20318,0.038086,-0.001221,1.061523,1.236641,2.709924,-1.221374,1.062207,3.219429,2132,3498,1366,2132,0,107.527,0,damping
1780595066.1110997,20.188493800000288,20349,0.019531,-0.033691,1.051025,1.885496,2.618321,-1.167939,1.051747,3.43144,2134,3502,1368,2134,0,107.527,0,damping
1780595066.142096,20.219490100003895,20380,0.038818,-0.015869,1.058838,1.709924,3.312977,-1.091603,1.059668,3.884746,2137,3507,1370,2137,1,107.527,13,damping
1780595066.1724544,20.249848300009035,20411,0.050537,-0.021484,1.050781,1.129771,3.259542,-0.961832,1.052215,3.581357,2142,3514,1372,2142,0,107.527,0,damping
1780595066.203875,20.281268999999156,20442,0.043701,-0.02124,1.063965,1.374046,3.465649,-0.732824,1.065074,3.799442,2144,3518,1374,2144,0,107.527,1,damping
1780595066.245889,20.323282900004415,20473,0.042725,-0.026611,1.055664,1.40458,3.396947,-0.633588,1.056863,3.730084,2147,3524,1377,2147,0,107.527,5,damping
1780595066.2667136,20.344107700002496,20505,0.050293,-0.042969,1.061035,1.244275,3.435115,-0.656489,1.063095,3.712036,2151,3530,1379,2151,0,107.527,0,damping
1780595066.29807,20.37546399999701,20536,0.028076,-0.033203,1.047119,1.503817,2.427481,-1.076336,1.048022,3.05166,2153,3535,1382,2153,1,107.527,14,damping
1780595066.3293362,20.406730100003188,20567,0.03833,-0.024902,1.056396,1.465649,2.679389,-0.389313,1.057385,3.078769,2158,3542,1384,2158,0,107.527,1,damping
1780595066.360836,20.43823010000051,20599,0.05127,-0.041992,1.055176,1.389313,3.175573,-0.885496,1.057255,3.577507,2160,3546,1386,2160,0,99.644,0,damping
1780595066.3936567,20.47105069999816,20630,0.050049,-0.031006,1.057373,2.061069,3.526718,-0.290076,1.059011,4.095105,2164,3552,1388,2164,0,99.644,6,damping
1780595066.422721,20.50011480000103,20661,0.034668,-0.022949,1.058106,1.282443,3.557252,-0.40458,1.058922,3.802944,2168,3558,1390,2168,0,99.644,1,damping
1780595066.4534862,20.53088010000647,20692,0.052246,-0.002197,1.056641,2.030534,3.641221,-0.625954,1.057934,4.215849,2169,3561,1392,2169,1,99.644,17,damping
1780595066.4845703,20.561964299995452,20723,0.03833,-0.020264,1.05249,1.458015,2.687023,-1.08397,1.053383,3.243592,2173,3566,1393,2173,0,99.644,5,damping
1780595066.516219,20.593613000004552,20754,0.045166,-0.036377,1.062988,1.580153,2.816794,-0.717557,1.064569,3.308489,2177,3572,1395,2177,0,99.644,0,damping
1780595066.5472217,20.624615599997924,20785,0.030518,-0.034424,1.047363,1.51145,2.816794,-1.015267,1.048373,3.354039,2179,3577,1398,2179,1,99.644,13,damping
1780595066.5782897,20.65568379999604,20816,0.036133,-0.022949,1.05835,1.473282,3.312977,-1.091603,1.059215,3.786552,2184,3584,1400,2184,0,99.644,0,damping
1780595066.610189,20.68758290000551,20847,0.026855,-0.032471,1.051514,2.0,2.427481,-1.053435,1.052358,3.316985,2186,3588,1402,2186,0,99.644,1,damping
1780595066.6389089,20.716302800006815,20877,0.05957,-0.008301,1.056885,2.19084,3.129771,-1.374046,1.058595,4.059956,2188,3593,1405,2188,1,100.719,14,damping
1780595066.6697664,20.747160500002792,20908,0.048096,-0.005127,1.04541,1.290076,2.78626,-0.854962,1.046528,3.18724,2193,3600,1407,2193,0,100.719,1,damping
1780595066.701008,20.7784021999978,20939,0.049316,-0.023926,1.053223,2.015267,3.061069,-1.290076,1.054648,3.885324,2195,3604,1409,2195,0,100.719,0,damping
1780595066.732105,20.809499099996174,20970,0.065674,-0.018799,1.059326,1.717557,3.351145,-0.519084,1.061526,3.801266,2199,3610,1411,2199,0,100.719,6,damping
1780595066.76364,20.841033999997308,21001,0.054932,-0.026611,1.066406,1.282443,2.832061,-0.816794,1.068152,3.214402,2203,3616,1413,2203,0,100.719,0,damping
1780595066.793489,20.870882899995195,21032,0.057861,-0.006348,1.051025,1.78626,2.885496,-0.587786,1.052636,3.44417,2205,3621,1416,2205,1,100.719,13,damping
1780595066.825559,20.902952899996308,21063,0.039551,-0.011963,1.047607,1.236641,2.564885,-1.229008,1.048422,3.101351,2210,3628,1418,2210,0,100.719,0,damping
1780595066.8558116,20.933205699999235,21094,0.036865,-0.005127,1.053955,1.687023,2.770992,-1.022901,1.054612,3.401584,2212,3632,1420,2212,0,100.719,0,damping
1780595066.887058,20.964452000000165,21125,0.045654,-0.027588,1.05835,1.900763,2.885496,-1.015267,1.059693,3.601355,2214,3637,1423,2214,1,100.719,14,damping
1780595066.9175,20.994894100003876,21156,0.049316,-0.003906,1.05249,1.335878,3.427481,-0.862595,1.053652,3.778395,2219,3644,1425,2219,0,111.111,0,damping
1780595066.9494104,21.026804399996763,21187,0.040039,-0.040283,1.060791,1.877863,2.923664,-0.755725,1.06231,3.556023,2221,3648,1427,2221,0,111.111,0,damping
1780595066.9803164,21.057710499997484,21218,0.051514,-0.036377,1.056152,1.801527,4.145038,-0.587786,1.058034,4.557668,2224,3652,1428,2224,0,111.111,6,damping
1780595067.010834,21.088228000007803,21250,0.0625,-0.019531,1.067139,1.725191,3.282443,-0.954198,1.069146,3.828996,2228,3658,1430,2228,0,111.111,1,damping
1780595067.042274,21.119668100000126,21280,0.062256,-0.010986,1.050781,1.59542,3.48855,-0.618321,1.052681,3.885571,2230,3663,1433,2230,1,111.111,14,damping
1780595067.0743196,21.15171360000386,21312,0.02832,-0.003906,1.056885,1.709924,2.503817,-1.114504,1.057271,3.230334,2235,3670,1435,2235,0,111.111,0,damping
1780595067.1047275,21.1821215999953,21343,0.043457,-0.005859,1.053955,1.801527,3.236641,-0.89313,1.054867,3.810384,2237,3674,1437,2237,0,111.111,0,damping
1780595067.1362722,21.213666199997533,21374,0.05249,-0.027832,1.054688,1.519084,2.832061,-1.030534,1.05636,3.374935,2239,3679,1440,2239,1,111.111,14,damping
1780595067.1675432,21.244937099996605,21405,0.046631,-0.010254,1.053467,1.450382,3.152672,-0.801527,1.054548,3.561656,2244,3686,1442,2244,0,111.111,0,damping
1780595067.198288,21.275682000006782,21436,0.047363,-0.043457,1.053955,1.290076,3.259542,-0.755725,1.055913,3.586089,2246,3690,1444,2246,0,96.429,1,damping
1780595067.229767,21.307161200005794,21467,0.050781,-0.031494,1.053711,2.053435,3.687023,-0.366412,1.055404,4.236153,2250,3696,1446,2250,0,96.429,6,damping
1780595067.269068,21.3464621000021,21499,0.050293,-0.020752,1.065186,1.847328,2.732824,-0.671756,1.066574,3.366334,2254,3702,1448,2254,0,96.429,1,damping
1780595067.291428,21.368822200005525,21530,0.058838,-0.008301,1.059814,1.450382,2.48855,-0.89313,1.061479,3.015654,2256,3707,1451,2256,1,96.429,14,damping
1780595067.3227859,21.400179899996147,21561,0.026123,-0.002197,1.057129,1.610687,2.335878,-0.977099,1.057454,3.000893,2261,3714,1453,2261,0,96.429,1,damping
1780595067.3533437,21.43073770000774,21592,0.034424,-0.006592,1.058594,2.083969,2.40458,-0.877863,1.059174,3.300845,2263,3718,1455,2263,0,96.429,0,damping
1780595067.3841,21.46149400000286,21622,0.039062,-0.0354,1.044189,1.770992,2.572519,-0.832061,1.045519,3.232119,2265,3723,1458,2265,1,96.429,13,damping
1780595067.414816,21.492209999996703,21653,0.043213,-0.018066,1.048584,1.748092,2.954198,-0.923664,1.049629,3.554753,2270,3730,1460,2270,0,96.429,0,damping
1780595067.4458487,21.52324260000023,21684,0.036865,-0.032227,1.055176,2.10687,2.977099,-0.557252,1.056311,3.689519,2272,3734,1462,2272,0,96.429,1,damping
1780595067.4772198,21.554613800006337,21715,0.047119,-0.035645,1.060547,1.610687,3.351145,-0.70229,1.062191,3.783873,2275,3739,1464,2275,1,103.943,14,damping
1780595067.5095668,21.586960800006636,21747,0.036377,-0.012451,1.05127,1.267176,3.541985,-0.496183,1.051972,3.794415,2278,3744,1466,2278,0,103.943,0,damping
1780595067.539591,21.61698520000209,21778,0.054199,-0.004395,1.0625,1.671756,2.946565,-0.312977,1.063891,3.4022,2279,3747,1468,2279,1,103.943,17,damping
1780595067.5700443,21.64743840000301,21808,0.032959,-0.028564,1.047363,1.480916,2.870229,-0.458015,1.048271,3.262071,2283,3752,1469,2283,0,103.943,6,damping
1780595067.5999105,21.67730440000014,21839,0.04126,-0.009521,1.063232,1.480916,3.137405,-0.877863,1.064075,3.578696,2287,3758,1471,2287,0,103.943,0,damping
1780595067.6319532,21.709347199997865,21870,0.027832,-0.027344,1.049561,1.717557,2.80916,-0.770992,1.050285,3.381688,2289,3763,1474,2289,1,103.943,13,damping
1780595067.6637352,21.741129200003343,21901,0.045654,-0.012939,1.059326,1.450382,3.068702,-0.816794,1.060388,3.491088,2294,3770,1476,2294,0,103.943,1,damping
1780595067.6951206,21.77251460000116,21933,0.04541,-0.030029,1.05249,1.641221,2.89313,-1.053435,1.053897,3.489059,2296,3774,1478,2296,0,103.943,0,damping
1780595067.726403,21.803797100001248,21964,0.042969,-0.036133,1.053711,2.091603,3.229008,-0.648855,1.055206,3.901578,2299,3779,1480,2299,1,103.943,14,damping
1780595067.75762,21.835014099997352,21995,0.029297,-0.010742,1.058594,1.290076,3.183206,-0.885496,1.059054,3.546999,2304,3786,1482,2304,0,103.571,0,damping
1780595067.7880201,21.865414200001396,22026,0.051758,-0.043701,1.045898,1.465649,3.748092,-0.793893,1.04809,4.102022,2306,3790,1484,2306,0,103.571,0,damping
1780595067.8185174,21.89591140000266,22057,0.04126,-0.019531,1.049561,1.519084,3.29771,-0.450382,1.050553,3.6586,2311,3796,1485,2311,0,103.571,6,damping
1780595067.8497596,21.927153500000713,22088,0.047852,-0.016113,1.066894,1.59542,3.21374,-0.427481,1.068089,3.613341,2315,3802,1487,2315,0,103.571,1,damping
1780595067.8814914,21.958885400003055,22119,0.033691,-0.03833,1.050781,1.687023,3.114504,-0.992366,1.05202,3.678447,2317,3807,1490,2317,1,103.571,14,damping
1780595067.9131966,21.990590500005055,22151,0.054199,-0.02002,1.050537,1.251908,3.10687,-0.80916,1.052125,3.445962,2322,3814,1492,2322,0,103.571,1,damping
1780595067.9438908,22.02128480000829,22182,0.037354,-0.02832,1.049805,1.793893,2.931298,-1.053435,1.050851,3.59448,2324,3818,1494,2324,0,103.571,0,damping
1780595067.9748006,22.05219470000884,22213,0.047363,-0.031982,1.054199,1.740458,3.541985,-0.839695,1.055747,4.03484,2327,3823,1496,2327,1,103.571,14,damping
1780595068.006989,22.084382900007768,22244,0.041504,-0.01709,1.060059,1.51145,3.175573,-0.664122,1.061008,3.579078,2331,3828,1497,2331,0,103.571,6,damping
1780595068.037985,22.115379199996823,22276,0.04834,-0.002197,1.04834,1.91603,3.244275,-0.282443,1.049456,3.778395,2333,3833,1500,2333,1,103.203,14,damping
1780595068.0691855,22.14657939999597,22307,0.031006,-0.0271,1.042236,1.48855,2.473282,-1.40458,1.043049,3.210257,2337,3839,1502,2337,1,103.203,3,damping
1780595068.1006582,22.17805220000446,22339,0.055908,-0.006104,1.055664,1.648855,3.251908,-0.709924,1.057161,3.714515,2340,3844,1504,2340,0,103.203,1,damping
1780595068.1380246,22.215418499996304,22376,0.047607,-0.009521,1.054688,1.938931,3.236641,-1.160305,1.055804,3.947355,2345,3852,1507,2345,0,103.203,0,damping
1780595068.1691315,22.246525599999586,22407,0.036621,-0.018311,1.054443,1.473282,2.839695,-0.816794,1.055238,3.301754,2347,3856,1509,2347,0,103.203,1,damping
1780595068.212712,22.29010610000114,22438,0.052246,-0.021484,1.064453,1.870229,2.923664,-1.435114,1.065951,3.755679,2349,3861,1512,2349,1,103.203,14,damping
1780595068.2319305,22.30932460000622,22470,0.049316,-0.033203,1.050781,0.931298,3.259542,-0.732824,1.052462,3.468279,2354,3868,1514,2354,0,103.203,1,damping
1780595068.2636175,22.341011600001366,22501,0.0354,-0.023926,1.052002,1.251908,3.137405,-0.992366,1.052869,3.520706,2356,3872,1516,2356,0,103.203,0,damping
1780595068.2939234,22.371317400000407,22532,0.049072,-0.022461,1.055664,1.816794,2.923664,-0.854962,1.057043,3.546761,2360,3878,1518,2360,0,105.469,6,damping
1780595068.3249352,22.402329100004863,22563,0.053955,-0.011719,1.064697,1.366412,3.122137,-0.793893,1.066128,3.499298,2364,3884,1520,2364,0,105.469,0,damping
1780595068.356883,22.43427710000833,22594,0.052734,0.004639,1.062012,1.374046,2.221374,-1.061069,1.06333,2.819286,2365,3887,1522,2365,1,105.469,18,damping
1780595068.3872044,22.46459849999519,22625,0.025146,-0.00415,1.05957,1.778626,2.816794,-1.274809,1.059877,3.566928,2371,3894,1523,2371,0,105.469,0,damping
1780595068.4169087,22.494302699997206,22656,0.03833,-0.010986,1.05542,1.70229,2.549618,-1.229008,1.056173,3.302848,2373,3898,1525,2373,0,105.469,1,damping
1780595068.4491472,22.526541200000793,22687,0.05127,-0.021973,1.048828,2.030534,2.938931,-1.160305,1.05031,3.755888,2375,3903,1528,2375,1,105.469,14,damping
1780595068.4804974,22.557891400007065,22718,0.059326,-0.022461,1.059814,1.236641,3.427481,-0.725191,1.061711,3.715213,2380,3910,1530,2380,0,105.469,1,damping
1780595068.5115333,22.588927200005855,22749,0.052979,-0.033203,1.058594,1.687023,3.389313,-0.961832,1.060438,3.906227,2382,3914,1532,2382,0,105.469,0,damping
1780595068.5426948,22.62008870000136,22780,0.052979,-0.022461,1.060303,2.183206,3.099237,-0.10687,1.061863,3.792503,2386,3920,1534,2386,0,105.469,5,damping
1780595068.5732925,22.65068639999663,22811,0.043457,-0.010498,1.057129,1.068702,3.251908,-0.656489,1.058074,3.485399,2390,3926,1536,2390,0,107.527,0,damping
1780595068.6040998,22.681493700001738,22842,0.05957,0.004639,1.060303,1.80916,3.19084,-0.519084,1.061985,3.704588,2392,3931,1539,2392,1,107.527,14,damping
1780595068.63477,22.712163999996847,22873,0.043701,-0.022705,1.061279,1.572519,2.763359,-0.961832,1.062421,3.32176,2396,3936,1540,2396,0,107.527,6,damping
1780595068.6663845,22.743778400006704,22904,0.055176,-0.031738,1.056396,1.824428,3.374046,-0.839695,1.058312,3.926552,2400,3942,1542,2400,0,107.527,0,damping
1780595068.6971197,22.77451380000275,22935,0.025879,-0.037109,1.047607,1.709924,2.824427,-0.778626,1.048584,3.392269,2402,3947,1545,2402,1,107.527,13,damping
1780595068.7296913,22.80708529999538,22966,0.048828,-0.021729,1.055908,1.396947,2.832061,-1.068702,1.05726,3.33379,2407,3954,1547,2407,0,107.527,0,damping
1780595068.7594965,22.836890499995206,22997,0.03833,-0.034912,1.05542,2.251908,3.022901,-0.740458,1.056693,3.841523,2409,3958,1549,2409,0,107.527,1,damping
1780595068.791376,22.86877010000171,23028,0.052734,-0.022461,1.053711,1.732824,3.78626,-1.076336,1.055269,4.300807,2412,3963,1551,2412,1,107.527,14,damping
1780595068.8224916,22.899885599996196,23060,0.036377,-0.018066,1.050781,1.641221,2.969466,-0.824427,1.051566,3.491564,2417,3970,1553,2417,0,107.527,1,damping
1780595068.8535564,22.930950399997528,23091,0.058105,-0.001709,1.056641,1.618321,3.366412,-0.366412,1.058238,3.753126,2419,3975,1556,2419,1,103.571,14,damping
1780595068.8846624,22.962056300006225,23122,0.032227,-0.014893,1.043701,1.793893,2.755725,-1.206107,1.044305,3.502394,2423,3980,1557,2423,0,103.571,5,damping
1780595068.9155037,22.992897799995262,23153,0.040527,-0.037354,1.057861,1.717557,2.923664,-0.732824,1.059296,3.469128,2427,3986,1559,2427,0,103.571,0,damping
1780595068.946126,23.023520000002463,23184,0.017334,-0.0354,1.046387,1.580153,2.687023,-0.854962,1.047129,3.232326,2429,3991,1562,2429,1,103.571,14,damping
1780595068.977815,23.055208999998285,23215,0.05249,-0.027344,1.051514,1.450382,2.938931,-0.900763,1.053178,3.398867,2434,3998,1564,2434,0,103.571,1,damping
1780595069.0088673,23.086261200005538,23247,0.044922,-0.029785,1.052734,1.694656,2.824427,-0.908397,1.054113,3.416787,2436,4002,1566,2436,0,103.571,1,damping
1780595069.0408883,23.1182822999981,23278,0.04126,-0.04126,1.050781,1.603053,3.648855,-0.496183,1.0524,4.016232,2440,4008,1568,2440,0,103.571,6,damping
1780595069.070817,23.148211000006995,23309,0.04541,-0.022217,1.060303,1.427481,3.061069,-0.458015,1.061507,3.408463,2444,4014,1570,2444,0,103.571,0,damping
1780595069.101648,23.179042000003392,23340,0.042969,-0.022217,1.045166,1.564886,3.526718,-0.526718,1.046285,3.894103,2446,4018,1572,2446,0,103.571,0,damping
1780595069.133568,23.21096209999814,23371,0.025879,-0.021729,1.048584,1.755725,2.625954,-0.824427,1.049128,3.264642,2451,4024,1573,2451,0,114.286,5,damping
1780595069.1646037,23.24199769999541,23402,0.040771,-0.014404,1.057373,1.458015,3.335878,-0.839695,1.058257,3.736172,2455,4030,1575,2455,0,114.286,1,damping
1780595069.1950214,23.27241530000174,23433,0.032959,-0.032715,1.057861,1.603053,2.732824,-0.847328,1.05888,3.279646,2457,4035,1578,2457,1,114.286,14,damping
1780595069.2275808,23.304974800004857,23465,0.05835,-0.016602,1.055908,1.519084,3.381679,-0.89313,1.057649,3.813273,2460,4040,1580,2460,0,114.286,1,damping
1780595069.2585244,23.335918400000082,23496,0.045166,-0.024902,1.054932,1.854962,3.129771,-0.748092,1.056192,3.714295,2462,4044,1582,2462,0,114.286,0,damping
1780595069.2895238,23.366917899998953,23527,0.051758,-0.033691,1.059814,1.91603,3.572519,-0.648855,1.061612,4.105494,2465,4049,1584,2465,1,114.286,14,damping
1780595069.3200376,23.39743150000868,23558,0.033936,-0.015625,1.058106,1.709924,2.877863,-0.473282,1.058765,3.380818,2470,4056,1586,2470,0,114.286,0,damping
1780595069.3526082,23.430002299995977,23590,0.056885,-0.007813,1.05542,1.564886,3.290076,-0.389313,1.056981,3.664019,2472,4061,1589,2472,1,114.286,14,damping
1780595069.3827143,23.460108200000832,23621,0.028809,-0.022217,1.050781,1.389313,2.59542,-0.984733,1.051411,3.104206,2477,4068,1591,2477,0,104.0,0,damping
1780595069.4138577,23.491251600004034,23652,0.037354,-0.037354,1.061035,1.328244,2.931298,-0.694656,1.062349,3.292307,2479,4072,1593,2479,0,104.0,1,damping
1780595069.4452238,23.522617900001933,23683,0.021729,-0.038086,1.044922,1.534351,2.694656,-1.045802,1.045841,3.272477,2481,4077,1596,2481,1,104.0,14,damping
1780595069.4776206,23.555014500001562,23714,0.044922,-0.023682,1.05835,1.687023,3.145038,-1.08397,1.059567,3.72992,2486,4084,1598,2486,0,104.0,1,damping
1780595069.5070558,23.58444980000786,23745,0.029785,-0.029785,1.059814,1.694656,2.725191,-1.122137,1.060651,3.399664,2488,4088,1600,2488,0,104.0,0,damping
1780595069.5393295,23.616723600003752,23776,0.050293,-0.015381,1.053467,1.908397,3.557252,-0.877863,1.054779,4.131182,2491,4093,1602,2491,1,104.0,14,damping
1780595069.5691102,23.646504200005438,23807,0.043457,-0.023926,1.05957,1.351145,3.022901,-0.549618,1.060731,3.356427,2494,4098,1604,2494,0,104.0,0,damping
1780595069.6001606,23.677554499998223,23838,0.053711,-0.031494,1.059082,1.267176,3.48855,-0.900763,1.060911,3.819305,2496,4102,1606,2496,0,104.0,0,damping
1780595069.6318476,23.70924169999489,23869,0.05542,-0.023926,1.056641,1.564886,2.625954,-0.832061,1.058363,3.168095,2500,4108,1608,2500,0,104.0,5,damping
1780595069.662839,23.74023290000332,23900,0.039795,-0.024658,1.064697,1.519084,3.229008,-0.709924,1.065726,3.63842,2504,4114,1610,2504,0,96.774,0,damping
1780595069.6941879,23.771582000001217,23931,0.02002,-0.033203,1.046387,1.358779,2.51145,-0.908397,1.047105,2.996472,2506,4119,1613,2506,1,96.774,14,damping
1780595069.7263837,23.803777799999807,23962,0.033936,-0.003906,1.056641,1.687023,2.70229,-1.198473,1.057193,3.403639,2511,4126,1615,2511,0,96.774,1,damping
1780595069.7551768,23.83257080000476,23993,0.044189,-0.004883,1.063232,1.59542,3.160305,-0.732824,1.064161,3.615235,2513,4130,1617,2513,0,96.774,0,damping
1780595069.7853787,23.86277279999922,24024,0.048096,-0.031006,1.062744,2.122137,2.59542,-1.19084,1.064284,3.557776,2515,4135,1620,2515,1,96.774,13,damping
1780595069.8160183,23.893412400007946,24054,0.052246,-0.025146,1.053467,1.885496,3.145038,-0.992366,1.055061,3.798836,2520,4142,1622,2520,0,96.774,0,damping
1780595069.8476205,23.925014599997667,24085,0.036133,-0.036133,1.055176,2.038168,2.70229,-1.236641,1.056412,3.603579,2522,4146,1624,2522,0,96.774,1,damping
1780595069.8774438,23.954837800003588,24115,0.05127,-0.017578,1.057373,1.839695,3.59542,-1.08397,1.058761,4.181688,2524,4151,1627,2524,1,96.774,14,damping
1780595069.9078307,23.985224700008985,24146,0.050781,-0.013428,1.051514,1.458015,3.305344,-0.587786,1.052825,3.660136,2527,4156,1629,2527,0,96.774,1,damping
1780595069.9389184,24.016312300009304,24177,0.046631,-0.027344,1.050293,1.465649,3.229008,-0.961832,1.051683,3.674199,2528,4158,1630,2528,0,86.643,6,damping
1780595069.970731,24.048125100001926,24208,0.054199,-0.025146,1.057373,1.648855,3.854962,-0.503817,1.05906,4.222948,2532,4164,1632,2532,0,86.643,6,damping
1780595070.0024176,24.079811600007815,24240,0.057129,-0.018066,1.067871,1.458015,3.137405,-0.755725,1.069551,3.54122,2536,4170,1634,2536,0,86.643,0,damping
1780595070.0341206,24.111514500007615,24271,0.022461,-0.033203,1.056641,1.305344,2.412214,-0.572519,1.057401,2.80187,2538,4175,1637,2538,1,86.643,14,damping
1780595070.0662138,24.143607899997733,24303,0.037842,-0.017334,1.05542,1.381679,3.145038,-0.870229,1.05624,3.543671,2544,4182,1638,2544,0,86.643,0,damping
1780595070.0976074,24.175001299998257,24335,0.049805,-0.032715,1.058594,1.687023,2.877863,-0.59542,1.06027,3.388608,2546,4186,1640,2546,0,86.643,0,damping
1780595070.1293688,24.20676280000771,24366,0.049316,-0.037842,1.058106,1.908397,3.305344,-0.839695,1.05993,3.907987,2550,4192,1642,2550,0,86.643,6,damping
1780595070.165932,24.243325899995398,24398,0.047852,-0.017822,1.066406,1.29771,3.091603,-0.610687,1.067628,3.408078,2554,4198,1644,2554,0,86.643,0,damping
