host_epoch_s,host_elapsed_s,time_ms,ax,ay,az,gx,gy,gz,acc_mag,gyro_mag,pulse_count,edge_count,rise_count,fall_count,state,pulse_rate_hz,last_edge_dt_ms,label
1780600449.8417833,0.023644400003831834,188,0.055176,0.01709,1.036133,-0.40458,3.198473,-0.89313,1.037742,3.345384,14,22,8,14,0,0.0,5,normal
1780600449.8725605,0.05442169999878388,219,0.047852,-0.050537,1.058594,2.21374,2.312977,-0.396947,1.060879,3.226155,16,27,11,16,1,0.0,14,normal
1780600449.9040973,0.0859584999998333,250,0.020752,-0.011963,1.04248,2.343511,2.870229,-0.48855,1.042756,3.737505,18,30,12,18,0,72.0,5,normal
1780600449.9346323,0.11649339999712538,281,0.017334,-0.022705,1.05249,-0.167939,2.40458,-1.572519,1.052878,2.878024,20,34,14,20,0,72.0,5,normal
1780600449.964853,0.14671430000453256,311,0.034912,-0.083008,1.048828,2.778626,2.824427,-0.694656,1.052687,4.022524,21,39,18,21,1,72.0,18,normal
1780600449.995004,0.17686500000127126,342,0.035645,-0.021973,1.054443,1.824428,2.282443,-0.229008,1.055274,2.93096,25,44,19,25,0,72.0,5,normal
1780600450.026573,0.2084340000001248,373,0.033203,-0.051514,1.061035,0.244275,2.526718,-1.274809,1.062804,2.840618,26,46,20,26,0,72.0,5,normal
1780600450.0568254,0.23868660000152886,404,0.036621,-0.02124,1.059082,3.900763,4.0229,-0.167939,1.059928,5.606058,29,50,21,29,0,72.0,5,normal
1780600450.0874333,0.2692945000017062,435,0.020996,0.005127,1.032715,-0.549618,1.877863,-0.900763,1.032941,2.154025,31,54,23,31,0,72.0,5,normal
1780600450.1188247,0.3006859000015538,466,0.012207,-0.019775,1.059082,1.679389,2.51145,-0.694656,1.059337,3.100045,34,58,24,34,0,72.0,5,normal
1780600450.150055,0.331916099996306,497,0.037109,-0.023682,1.060059,2.740458,2.931298,-0.030534,1.060972,4.012923,37,62,25,37,0,72.0,5,normal
1780600450.1818144,0.3636757000058424,528,0.062256,0.017578,1.056152,-0.267176,3.114504,-0.740458,1.058132,3.212444,38,64,26,38,0,71.942,5,normal
1780600450.2125561,0.39441720000468194,559,0.036621,-0.082275,1.069824,2.137405,2.083969,-0.21374,1.073608,2.992843,40,69,29,40,1,71.942,14,normal
1780600450.2425377,0.42439880000893027,590,0.033203,-0.020508,1.049805,1.89313,2.0,-0.251908,1.05053,2.765393,42,72,30,42,0,71.942,5,normal
1780600450.274496,0.45635730000503827,621,0.028076,-0.038574,1.05127,-0.076336,2.045802,-1.0,1.052352,2.278406,44,76,32,44,0,71.942,5,normal
1780600450.3043118,0.48617279999598395,651,0.044434,-0.06543,1.056396,2.801527,3.366412,-0.053435,1.059353,4.37997,45,81,36,45,1,71.942,17,normal
1780600450.334899,0.5167602000001352,682,0.024658,0.002441,1.05542,1.022901,2.358779,-0.503817,1.055711,2.619923,49,86,37,49,0,71.942,5,normal
1780600450.3654873,0.5473483999958262,713,0.050537,-0.059814,1.074707,0.320611,2.282443,-1.259542,1.077556,2.626553,50,88,38,50,0,71.942,4,normal
1780600450.397703,0.5795642000011867,744,0.061279,-0.041504,1.058106,3.862595,4.007634,-0.160305,1.060691,5.568345,54,94,40,54,0,71.942,5,normal
1780600450.426884,0.6087452000065241,775,0.029297,-0.01001,1.04248,-0.877863,2.091603,-1.290076,1.04294,2.609548,56,98,42,56,0,71.942,5,normal
1780600450.4579175,0.6397786000015913,805,0.047119,-0.041504,1.060547,2.160305,2.671756,-0.755725,1.062404,3.517999,58,102,44,58,0,72.202,5,normal
1780600450.48986,0.671721200007596,836,0.053223,-0.029053,1.051758,3.358779,2.78626,-0.167939,1.053504,4.367246,61,106,45,61,0,72.202,5,normal
1780600450.5205178,0.7023790999955963,868,0.051758,0.010498,1.04834,-0.374046,3.29771,-1.015267,1.049669,3.470673,62,108,46,62,0,72.202,5,normal
1780600450.5528123,0.734673400002066,899,0.036133,-0.093994,1.04834,2.572519,2.908397,-0.709924,1.053165,3.947229,63,111,48,63,1,72.202,18,normal
1780600450.581483,0.7633440000063274,930,0.043213,0.000244,1.048828,1.328244,2.40458,0.045802,1.049718,2.747424,65,114,49,65,0,72.202,5,normal
1780600450.6142068,0.7960678999952506,960,0.023682,-0.033203,1.053955,-0.183206,2.038168,-1.114504,1.054744,2.330196,67,118,51,67,0,72.202,5,normal
1780600450.6438797,0.8257408000063151,991,0.037354,-0.005615,1.069336,3.870229,2.969466,0.083969,1.070003,4.878878,71,123,52,71,1,72.202,17,normal
1780600450.6755311,0.8573922000068706,1022,0.033691,0.05249,1.048828,-0.435114,2.519084,-0.885496,1.050681,2.705404,75,128,53,75,0,72.202,5,normal
1780600450.707585,0.8894463000033284,1053,0.031006,-0.036865,1.062256,0.59542,2.175573,-1.51145,1.063347,2.715165,76,130,54,76,0,72.202,5,normal
1780600450.7376993,0.9195604999986244,1084,0.048096,-0.048828,1.05127,3.48855,2.961832,-0.083969,1.053501,4.57706,80,136,56,80,0,78.853,5,normal
1780600450.768973,0.9508343000052264,1115,0.02832,-0.01416,1.052734,-0.221374,2.541985,-0.992366,1.05321,2.737788,81,138,57,81,0,78.853,5,normal
1780600450.8000157,0.9818767999968259,1146,0.049072,-0.066895,1.06665,2.259542,2.549618,0.183206,1.069872,3.411693,82,143,61,82,1,78.853,18,normal
1780600450.8323355,1.0141967000090517,1179,0.02832,-0.009766,1.054932,2.229008,2.396947,-0.450382,1.055357,3.304039,92,154,62,92,0,78.853,1,normal
1780600450.8627214,1.0445827000075951,1210,0.005371,-0.052979,1.05835,-0.10687,2.534351,-1.183206,1.059688,2.798988,93,156,63,93,0,78.853,5,normal
1780600450.892599,1.074460200004978,1241,0.043701,-0.004395,1.044189,3.70229,3.740458,0.312977,1.045113,5.272185,95,159,64,95,1,78.853,17,normal
1780600450.9248238,1.106684900005348,1271,0.029297,0.01001,1.039062,-0.007634,2.259542,-0.832061,1.039524,2.407886,97,162,65,97,0,78.853,5,normal
1780600450.9548767,1.1367379000002984,1302,0.023438,-0.037842,1.069824,1.412214,2.526718,-1.29771,1.07075,3.172176,101,168,67,101,0,78.853,0,normal
1780600450.986342,1.1682031999953324,1333,0.042236,-0.043945,1.047363,3.076336,3.503817,-0.389313,1.049135,4.678904,104,172,68,104,0,78.853,5,normal
1780600451.01673,1.1985911999945529,1364,0.018555,-0.013428,1.040039,-0.251908,2.419847,-1.038168,1.040291,2.645168,105,174,69,105,0,89.286,4,normal
1780600451.0482109,1.2300721000065096,1395,0.044922,-0.068115,1.051758,2.412214,2.549618,-0.160305,1.054918,3.513549,106,177,71,106,1,89.286,18,normal
1780600451.0788076,1.2606687000079546,1426,0.024658,-0.012207,1.057617,2.236641,2.51145,-0.282443,1.057975,3.374866,110,182,72,110,0,89.286,5,normal
1780600451.109579,1.2914403000031598,1457,0.062988,0.001221,1.047852,-0.221374,2.70229,-1.167939,1.049744,2.952196,111,184,73,111,0,89.286,5,normal
1780600451.1409326,1.322793700004695,1487,0.025635,-0.091064,1.052002,2.587786,2.992366,-0.374046,1.056247,3.973765,113,191,78,113,1,89.286,3,normal
1780600451.172111,1.3539720999979181,1518,0.037354,-0.018311,1.051514,1.679389,2.267176,-0.221374,1.052336,2.830096,117,196,79,117,0,89.286,1,normal
1780600451.2034018,1.3852630000037607,1550,0.05542,-0.066162,1.064453,0.40458,2.312977,-1.038168,1.067946,2.567361,118,198,80,118,0,89.286,5,normal
1780600451.234339,1.4162002000084613,1581,0.0625,-0.031006,1.056641,3.78626,4.229008,-0.061069,1.058942,5.676618,121,202,81,121,0,89.286,5,normal
1780600451.2657084,1.447569600000861,1612,0.050293,-0.01001,1.043457,-0.816794,2.343511,-1.10687,1.044716,2.717418,122,204,82,122,0,89.286,5,normal
1780600451.2966352,1.478496299998369,1643,0.048584,-0.041016,1.059082,2.183206,3.21374,-0.114504,1.060989,3.886853,124,210,86,124,0,68.1,0,normal
1780600451.3281436,1.510004800002207,1674,0.026123,-0.017822,1.049316,2.801527,2.541985,-0.465649,1.049793,3.811439,127,214,87,127,0,68.1,5,normal
1780600451.3575346,1.5393959000066388,1705,0.054199,0.003906,1.04834,0.007634,3.229008,-1.198473,1.049747,3.444254,128,216,88,128,0,68.1,5,normal
1780600451.3889713,1.5708324000006542,1735,0.028564,-0.094971,1.041016,2.175573,2.358779,-0.251908,1.045729,3.218759,129,219,90,129,1,68.1,18,normal
1780600451.418415,1.6002762999996776,1766,0.02124,-0.017822,1.057617,1.801527,2.068702,-0.007634,1.057981,2.743189,131,222,91,131,0,68.1,5,normal
1780600451.4504,1.6322613000083948,1797,0.026611,-0.001465,1.052002,-0.244275,2.312977,-1.496183,1.052339,2.765519,132,224,92,132,0,68.1,5,normal
1780600451.4814603,1.663321400003042,1828,0.045166,-0.001709,1.041748,4.198474,3.687023,-0.465649,1.042728,5.606973,134,231,97,134,1,68.1,3,normal
1780600451.5131133,1.6949744000012288,1859,0.049316,0.012939,1.04126,0.351145,2.954198,-0.389313,1.042507,3.000359,137,236,99,137,0,68.1,1,normal
1780600451.5435107,1.725371799999266,1890,0.032715,-0.048096,1.061279,1.534351,2.229008,-1.129771,1.062872,2.93242,138,238,100,138,0,68.1,5,normal
1780600451.5752234,1.7570845000009285,1921,0.056152,-0.049561,1.052978,3.282443,3.854962,-0.343511,1.055639,5.074758,141,242,101,141,0,61.151,5,normal
1780600451.6057296,1.7875907999987248,1953,0.039062,0.020752,1.053711,-0.625954,2.839695,-1.251908,1.054639,3.165906,144,246,102,144,0,61.151,4,normal
1780600451.638128,1.819989199997508,1984,0.023682,-0.093262,1.040527,2.343511,2.458015,-0.274809,1.044967,3.407258,146,251,105,146,1,61.151,3,normal
1780600451.6687412,1.8506023000081768,2015,0.038086,-0.013184,1.054199,1.51145,2.0,-0.068702,1.054969,2.507828,148,254,106,148,0,61.151,5,normal
1780600451.6992645,1.8811258000059752,2046,0.039795,-0.021484,1.049072,-0.458015,2.763359,-1.206107,1.050047,3.049692,150,258,108,150,0,61.151,1,normal
1780600451.7299225,1.9117837000085274,2077,0.030273,0.00293,1.046875,4.10687,3.526718,-0.328244,1.047317,5.42327,152,261,109,152,1,61.151,17,normal
1780600451.7610416,1.9429028000013204,2107,0.034912,0.010254,1.049805,1.08397,2.305344,-0.572519,1.050435,2.61101,154,264,110,154,0,61.151,5,normal
1780600451.7918267,1.9736879999982193,2138,0.041016,-0.051514,1.071533,0.351145,2.564885,-1.183206,1.073554,2.846386,156,268,112,156,0,61.151,1,normal
1780600451.8238325,2.005693600003724,2170,0.062012,-0.050049,1.058106,3.259542,3.725191,-0.045802,1.061102,4.950127,160,274,114,160,0,61.151,5,normal
1780600451.8561532,2.0380145000090124,2201,0.054199,0.012939,1.04126,-0.580153,3.030534,-1.206107,1.04275,3.312916,161,276,115,161,0,71.429,5,normal
1780600451.8876507,2.069511900001089,2233,0.016602,-0.084473,1.045898,2.534351,2.267176,-0.366412,1.049436,3.420128,162,279,117,162,1,71.429,18,normal
1780600451.9190176,2.100878700002795,2265,0.059814,0.020508,1.049805,1.21374,2.618321,-0.305344,1.051707,2.902069,165,284,119,165,0,71.429,1,normal
1780600451.9498267,2.131687900007819,2296,0.061279,-0.069092,1.065674,-0.122137,2.137405,-0.946565,1.069668,2.340812,166,286,120,166,0,71.429,5,normal
1780600451.980442,2.1623032000061357,2327,0.073486,-0.026611,1.057617,4.045802,3.503817,-0.251908,1.060501,5.35805,170,292,122,170,0,71.429,5,normal
1780600452.0104198,2.192280999996001,2358,0.060791,-0.010498,1.036865,-0.48855,2.923664,-1.137405,1.038699,3.17493,172,296,124,172,0,71.429,5,normal
1780600452.0466008,2.228462099999888,2388,0.031982,-0.044678,1.067139,1.152672,2.633588,-1.480916,1.068552,3.233813,174,300,126,174,0,71.429,1,normal
1780600452.071846,2.2537071999977343,2419,0.062744,-0.045166,1.046143,3.251908,3.381679,-0.198473,1.048995,4.695748,177,304,127,177,0,71.429,5,normal
1780600452.1031008,2.28496200000518,2450,0.070068,0.015381,1.047852,-0.480916,2.664122,-1.022901,1.050304,2.893986,178,306,128,178,0,71.429,5,normal
1780600452.133766,2.3156272000051104,2481,0.064209,-0.056885,1.052734,2.312977,2.480916,0.007634,1.056224,3.391882,180,311,131,180,1,67.857,3,normal
1780600452.1647408,2.3466020000050776,2512,0.023438,0.000488,1.059814,1.954198,2.564885,-0.687023,1.060074,3.296897,183,316,133,183,0,67.857,5,normal
1780600452.1960669,2.377927900000941,2543,0.026855,-0.015137,1.050537,-0.381679,2.366412,-1.526718,1.050989,2.84191,184,318,134,184,0,67.857,5,normal
1780600452.226294,2.4081552999996347,2573,0.059082,-0.087402,1.043213,2.832061,2.954198,-0.381679,1.048534,4.110174,185,321,136,185,1,67.857,18,normal
1780600452.2583063,2.440167399996426,2604,0.056396,-0.018311,1.05249,1.480916,2.236641,-0.045802,1.054159,2.682867,187,324,137,187,0,67.857,5,normal
1780600452.289434,2.4712951999972574,2635,0.044922,-0.052246,1.060547,0.419847,2.351145,-1.351145,1.062783,2.744038,188,326,138,188,0,67.857,5,normal
1780600452.321333,2.5031940000044415,2667,0.042969,-0.034912,1.048584,3.351145,2.748092,0.038168,1.050045,4.33401,192,332,140,192,0,67.857,5,normal
1780600452.3512042,2.533065399999032,2698,0.030029,-0.018066,1.029785,-0.59542,2.59542,-0.725191,1.030381,2.759824,194,336,142,194,0,67.857,5,normal
1780600452.383284,2.5651453000027686,2729,0.056885,-0.062744,1.05127,1.992366,2.305344,-0.282443,1.054675,3.06005,196,341,145,196,1,67.857,14,normal
1780600452.4142122,2.5960734999971464,2761,0.027588,-0.006104,1.047607,1.801527,2.465649,-0.312977,1.047988,3.06967,198,344,146,198,0,64.286,5,normal
1780600452.4462385,2.628099599998677,2792,0.021973,-0.03833,1.042236,-0.175573,2.305344,-1.198473,1.043172,2.604184,200,348,148,200,0,64.286,1,normal
1780600452.4749062,2.65676739999617,2823,0.039795,-0.007324,1.049805,4.061068,3.236641,-0.007634,1.050584,5.19309,202,351,149,202,1,64.286,17,normal
1780600452.505405,2.6872661000088556,2853,0.033691,0.009277,1.039795,1.152672,2.19084,-0.061069,1.040382,2.47632,205,356,151,205,0,64.286,5,normal
1780600452.5361125,2.717973599996185,2883,0.032471,-0.036865,1.056152,0.091603,1.908397,-1.045802,1.057294,2.178089,208,360,152,208,0,64.286,6,normal
1780600452.5668783,2.7487396000069566,2914,0.050781,-0.001709,1.04541,4.221374,3.137405,-0.267176,1.046644,5.266374,211,365,154,211,1,64.286,14,normal
1780600452.5981364,2.7799976999958744,2945,0.027344,-0.003662,1.037842,-0.061069,2.320611,-0.648855,1.038208,2.410389,213,368,155,213,0,64.286,5,normal
1780600452.6298316,2.811692800009041,2976,0.039307,-0.026855,1.06958,1.755725,2.251908,-0.770992,1.070639,2.957717,214,370,156,214,0,64.286,5,normal
1780600452.6607969,2.8426580999948783,3008,0.030273,-0.007324,1.049805,2.679389,3.068702,-0.145038,1.050267,4.076408,218,376,158,218,0,64.286,5,normal
1780600452.6926363,2.874497299999348,3039,0.039551,0.014404,1.052978,-0.366412,3.48855,-1.061069,1.053819,3.664711,220,380,160,220,0,79.137,5,normal
1780600452.7248778,2.9067388999974355,3070,0.061523,-0.080322,1.044434,2.931298,2.473282,-0.145038,1.049323,3.838055,221,383,162,221,1,79.137,18,normal
1780600452.7559566,2.9378179000050295,3102,0.035889,0.025879,1.043701,1.374046,2.221374,-0.312977,1.044638,2.630676,223,386,163,223,0,79.137,5,normal
1780600452.787209,2.9690701000072295,3133,0.042236,-0.057861,1.076904,0.687023,2.694656,-1.206107,1.079284,3.031149,225,390,165,225,0,79.137,1,normal
1780600452.8190842,3.000945399995544,3165,0.051025,-0.043945,1.052978,3.328244,3.48855,-0.328244,1.05513,4.832694,228,394,166,228,0,79.137,6,normal
1780600452.85002,3.0318810000026133,3196,0.067627,0.023682,1.056885,-0.412214,2.610687,-1.160305,1.059311,2.886506,230,398,168,230,0,79.137,5,normal
1780600452.8814206,3.063281700000516,3227,0.055176,-0.06543,1.05249,2.206107,2.030534,-0.335878,1.055964,3.017083,231,403,172,231,1,79.137,17,normal
1780600452.912274,3.094135000006645,3258,0.032715,-0.010498,1.063232,1.89313,2.290076,-0.51145,1.063787,3.014958,235,408,173,235,0,79.137,5,normal
1780600452.9421525,3.1240136999986134,3289,0.04834,-0.001709,1.056885,-0.465649,2.305344,-1.473282,1.057991,2.775248,236,410,174,236,0,64.0,4,normal
1780600452.9735084,3.155369600004633,3320,0.052979,-0.036865,1.046387,4.08397,3.21374,-0.099237,1.048375,5.197767,238,415,177,238,1,64.0,14,normal
1780600453.0060484,3.1879096000047866,3351,0.0271,0.025635,1.042236,0.282443,2.381679,-0.51145,1.042904,2.452295,242,420,178,242,0,64.0,5,normal
1780600453.0353467,3.2172079000010854,3382,0.030762,-0.040771,1.063232,1.183206,2.282443,-1.549618,1.064458,3.001806,245,424,179,245,0,64.0,5,normal
1780600453.0668173,3.248678400006611,3413,0.04541,-0.042725,1.053467,3.694656,3.625954,-0.198473,1.05531,5.180485,248,428,180,248,0,64.0,5,normal
1780600453.0953891,3.277250200000708,3444,0.03125,-0.009277,1.031006,-0.885496,3.091603,-0.320611,1.031521,3.231858,249,430,181,249,0,64.0,5,normal
1780600453.126569,3.308430100005353,3474,0.030762,-0.034424,1.063721,1.839695,2.80916,-0.259542,1.064722,3.36797,250,432,182,250,0,64.0,5,normal
1780600453.158433,3.3402941999956965,3505,0.053711,-0.050049,1.058838,3.129771,2.854962,-0.534351,1.06138,4.269872,253,436,183,253,0,64.0,5,normal
1780600453.1886194,3.3704805000015767,3536,0.043213,0.000977,1.050049,-0.641221,2.717557,-0.916031,1.050938,2.938604,255,440,185,255,0,64.0,5,normal
1780600453.2211576,3.4030188000033377,3567,0.02124,-0.079102,1.058106,2.541985,2.549618,-0.450382,1.061271,3.628372,256,445,189,256,1,71.942,18,normal
1780600453.2530901,3.4349513000051957,3599,0.035889,0.025391,1.036377,1.564886,2.358779,-0.564886,1.037309,2.886486,260,450,190,260,0,71.942,5,normal
1780600453.2854774,3.467338500006008,3631,0.02832,-0.037842,1.056885,1.129771,3.038168,-1.015267,1.057941,3.396706,261,452,191,261,0,71.942,5,normal
1780600453.3155532,3.497414299999946,3662,0.042969,-0.040039,1.053223,3.480916,3.938931,0.053435,1.054859,5.256882,265,458,193,265,0,71.942,5,normal
1780600453.3469038,3.5287649999954738,3693,0.029053,-0.005127,1.038574,-0.290076,2.435115,-1.045802,1.038993,2.666014,266,460,194,266,0,71.942,5,normal
1780600453.3780632,3.559924300003331,3724,0.042969,-0.036621,1.057373,2.389313,2.725191,-0.083969,1.058879,3.625263,268,466,198,268,1,71.942,0,normal
1780600453.4092383,3.5910994000005303,3755,0.028809,-0.016357,1.049072,2.152672,2.717557,-0.335878,1.049595,3.483092,272,472,200,272,0,71.942,0,normal
1780600453.4402566,3.622117699997034,3787,0.023438,-0.03833,1.042236,0.068702,2.007634,-0.977099,1.043204,2.233839,273,474,201,273,0,71.942,5,normal
1780600453.4731154,3.6549765999952797,3819,0.063965,-0.0354,1.05249,4.0229,4.038168,-0.320611,1.055026,5.709056,275,477,202,275,0,75.397,17,normal
1780600453.5031247,3.6849859000067227,3851,0.026611,0.001465,1.042725,-0.412214,2.587786,-1.160305,1.043065,2.86581,277,480,203,277,0,75.397,5,normal
1780600453.5350008,3.7168619000003673,3881,0.051514,-0.045654,1.057861,2.175573,2.687023,-0.648855,1.060098,3.517701,279,486,207,279,0,75.397,0,normal
1780600453.5659118,3.7477729999955045,3912,0.062256,-0.040527,1.055664,3.091603,2.755725,-0.19084,1.058274,4.145896,282,490,208,282,0,75.397,5,normal
1780600453.5954962,3.777357300001313,3943,0.08374,0.016846,1.052246,-0.458015,2.641221,-0.969466,1.055707,2.85056,283,492,209,283,0,75.397,5,normal
1780600453.6268694,3.808730500008096,3973,0.053467,-0.062012,1.050049,2.045802,2.717557,-0.358779,1.053236,3.420401,284,495,211,284,1,75.397,17,normal
1780600453.6571004,3.838961700006621,4005,0.03125,-0.009033,1.055908,1.328244,2.122137,-0.328244,1.056409,2.524964,288,500,212,288,0,75.397,5,normal
1780600453.6882691,3.8701302999979816,4035,0.052002,0.000732,1.056885,-0.381679,2.603053,-1.557252,1.058164,3.057221,289,502,213,289,0,75.397,5,normal
1780600453.7198944,3.9017556000035256,4066,0.052734,-0.038574,1.053223,3.992366,2.694656,-0.282443,1.055247,4.824928,291,509,218,291,1,75.397,3,normal
1780600453.7500727,3.9319339000066975,4097,0.0354,0.03125,1.049805,1.335878,2.351145,-0.641221,1.050866,2.77914,294,514,220,294,0,68.345,0,normal
1780600453.7807302,3.962591400006204,4128,0.044434,-0.054688,1.067871,0.832061,2.59542,-1.534351,1.070193,3.127741,295,516,221,295,0,68.345,5,normal
1780600453.8123574,3.9942185999971116,4159,0.043701,-0.037109,1.054199,3.48855,4.282442,-0.366412,1.055757,5.535662,298,520,222,298,0,68.345,5,normal
1780600453.844934,4.026795099998708,4191,0.071045,0.031982,1.061523,-0.274809,2.51145,-1.282443,1.064379,2.833295,301,524,223,301,0,68.345,5,normal
1780600453.8765428,4.058403899995028,4223,0.028809,-0.093018,1.042969,2.435115,2.641221,-0.229008,1.047505,3.599761,303,531,228,303,1,68.345,3,normal
1780600453.9071546,4.089015699995798,4254,0.046631,-0.005859,1.052734,1.358779,2.671756,-0.328244,1.053783,3.015344,305,534,229,305,0,68.345,5,normal
1780600453.9384272,4.120288400008576,4285,0.033691,-0.040771,1.068604,0.091603,2.610687,-1.274809,1.069912,2.906754,306,536,230,306,0,68.345,5,normal
1780600453.9701657,4.152027000003727,4316,0.032959,-0.010742,1.046143,4.221374,3.664122,-0.083969,1.046717,5.590424,308,539,231,308,1,68.345,17,normal
1780600454.0059707,4.187831899995217,4347,0.043945,-0.002197,1.041992,-0.473282,2.80916,-1.175572,1.042921,3.081777,310,542,232,310,0,64.0,5,normal
1780600454.030949,4.212810299999546,4378,0.071777,-0.04248,1.0625,1.961832,3.122137,-0.366412,1.065769,3.705508,312,546,234,312,0,64.0,1,normal
1780600454.0621517,4.244012900002417,4409,0.064209,-0.033203,1.052978,3.526718,3.19084,-0.053435,1.055457,4.756264,316,552,236,316,0,64.0,5,normal
1780600454.0930085,4.2748696000053314,4440,0.086182,0.026123,1.059814,-0.412214,2.717557,-0.977099,1.063634,2.917149,318,556,238,318,0,64.0,0,normal
1780600454.1246758,4.3065369999967515,4471,0.048584,-0.069824,1.049805,2.503817,2.007634,-0.129771,1.053245,3.211936,319,559,240,319,1,64.0,18,normal
1780600454.1554146,4.337275800004136,4502,0.023193,-0.003418,1.051514,1.80916,2.396947,-0.572519,1.051775,3.057154,323,564,241,323,0,64.0,0,normal
1780600454.1857457,4.367606800005888,4533,0.022705,-0.044922,1.038818,-0.129771,2.40458,-1.290076,1.040037,2.731876,324,566,242,324,0,64.0,5,normal
1780600454.2173433,4.39920460000576,4564,0.046875,-0.033691,1.053711,4.244274,3.091603,-0.10687,1.055291,5.25198,326,571,245,326,1,64.0,3,normal
1780600454.2478518,4.429713100005756,4595,0.050781,0.026855,1.050049,0.534351,1.992366,-0.89313,1.051619,2.247829,329,576,247,329,0,64.0,5,normal
1780600454.2788763,4.460737400004291,4626,0.009277,-0.039307,1.056152,1.21374,2.534351,-1.389313,1.056924,3.134692,331,580,249,331,0,75.269,0,normal
1780600454.3099792,4.491840400005458,4657,0.03418,-0.042236,1.05542,3.580153,3.389313,-0.267176,1.056818,4.937238,334,584,250,334,0,75.269,5,normal
1780600454.3410256,4.522886699996889,4688,0.029785,-0.006592,1.038818,-0.496183,3.015267,-0.885496,1.039266,3.181531,335,586,251,335,0,75.269,4,normal
1780600454.3726363,4.554497400007676,4719,0.037598,-0.036377,1.059814,2.251908,2.251908,-0.244275,1.061105,3.194034,337,591,254,337,1,75.269,4,normal
1780600454.4044335,4.586294699998689,4750,0.033203,-0.013428,1.049316,2.396947,2.450382,-0.549618,1.049928,3.471571,340,596,256,340,0,75.269,5,normal
1780600454.4334726,4.615333900001133,4781,0.040527,0.004883,1.056885,-0.122137,2.419847,-1.236641,1.057673,2.720268,341,598,257,341,0,75.269,5,normal
1780600454.4654477,4.647308900006465,4812,0.067139,-0.08374,1.05127,3.328244,2.267176,-0.381679,1.056734,4.045118,342,601,259,342,1,75.269,17,normal
1780600454.4962351,4.6780963000055635,4843,0.040527,0.020508,1.044678,0.938931,2.274809,-0.679389,1.045665,2.553022,345,606,261,345,0,75.269,0,normal
1780600454.5275848,4.7094459000072675,4874,0.045166,-0.065674,1.069336,0.122137,2.137405,-1.450382,1.072302,2.585928,346,608,262,346,0,75.269,5,normal
1780600454.558699,4.740560100006405,4905,0.051025,-0.032715,1.053223,3.946565,3.534351,-0.221374,1.054965,5.302454,350,614,264,350,0,68.1,5,normal
1780600454.5890777,4.770938900008332,4936,0.031006,-0.001221,1.04126,-0.656489,2.664122,-0.78626,1.041722,2.854247,352,618,266,352,0,68.1,5,normal
1780600454.620447,4.802308099999209,4967,0.041748,-0.048584,1.05957,2.282443,3.19084,-0.053435,1.061505,3.923501,354,622,268,354,0,68.1,0,normal
1780600454.6515749,4.83343590000004,4998,0.0271,-0.012207,1.055908,2.587786,2.80916,-0.503817,1.056326,3.852512,357,626,269,357,0,68.1,5,normal
1780600454.6815937,4.8634548999980325,5029,0.047363,0.008545,1.044922,-0.267176,3.389313,-0.877863,1.04603,3.511334,359,630,271,359,0,68.1,0,normal
1780600454.7138011,4.895662299997639,5060,0.063232,-0.084229,1.052002,2.618321,2.572519,-0.160305,1.057261,3.67412,361,635,274,361,1,68.1,3,normal
1780600454.7441614,4.926022500003455,5091,0.052979,-0.016113,1.049316,1.541985,2.458015,-0.122137,1.050776,2.904216,364,640,276,364,0,68.1,5,normal
1780600454.776187,4.95804820000194,5122,0.051025,-0.062988,1.057617,0.503817,2.473282,-1.328244,1.060719,2.852226,365,642,277,365,0,68.1,5,normal
1780600454.807892,4.989753200003179,5154,0.038818,-0.042725,1.054688,3.435115,3.526718,-0.251908,1.056266,4.929626,368,646,278,368,0,68.1,6,normal
1780600454.839886,5.021747000006144,5186,0.063232,0.029785,1.059326,-0.450382,2.870229,-1.038168,1.06163,3.085264,369,648,279,369,0,67.616,5,normal
1780600454.8709595,5.052820800003246,5217,0.037598,-0.08374,1.054199,1.969466,2.641221,0.083969,1.058188,3.295739,370,651,281,370,1,67.616,17,normal
1780600454.8997562,5.081617300005746,5248,0.03125,-0.008057,1.054932,2.061069,2.465649,-0.412214,1.055425,3.239961,373,656,283,373,0,67.616,5,normal
1780600454.9314344,5.113295600007405,5278,0.047607,-0.006836,1.051025,-0.335878,2.687023,-1.587786,1.052125,3.139104,375,660,285,375,0,67.616,5,normal
1780600454.9628444,5.144705500002601,5309,0.068115,-0.074463,1.047119,2.938931,2.862595,-0.419847,1.051971,4.12408,377,665,288,377,1,67.616,14,normal
1780600454.9929898,5.174850900002639,5340,0.053467,-0.013916,1.047363,1.282443,2.412214,0.007634,1.048819,2.73194,379,668,289,379,0,67.616,5,normal
1780600455.0242693,5.206130499995197,5371,0.026611,-0.047852,1.05957,0.274809,2.320611,-1.610687,1.060984,2.838145,381,672,291,381,0,67.616,0,normal
1780600455.0547566,5.236617899994599,5402,0.052734,-0.029053,1.057617,4.183206,3.358779,-0.557252,1.05933,5.39362,383,675,292,383,1,67.616,16,normal
1780600455.0853658,5.267227000003913,5432,0.053223,0.007813,1.04248,-0.137405,2.541985,-0.541985,1.043868,2.602751,386,680,294,386,0,67.616,5,normal
1780600455.1161458,5.298006900004111,5463,0.035645,-0.039551,1.070801,1.870229,3.0,-1.038168,1.072124,3.684502,389,684,295,389,0,72.202,5,normal
1780600455.1470122,5.3288734999950975,5494,0.055908,-0.040039,1.052002,3.152672,3.496183,-0.312977,1.054247,4.718113,393,690,297,393,0,72.202,6,normal
1780600455.1845198,5.366380899999058,5525,0.059082,0.021729,1.040283,-0.664122,3.335878,-1.122137,1.042186,3.581666,394,692,298,394,0,72.202,5,normal
1780600455.2171211,5.398982400001842,5562,0.038574,-0.050293,1.053223,3.389313,3.114504,0.183206,1.055128,4.606641,397,696,299,397,0,72.202,6,normal
1780600455.2617745,5.443635799994809,5593,0.03125,0.001709,1.029297,-0.450382,2.900763,-1.022901,1.029772,3.108632,399,700,301,399,0,72.202,5,normal
1780600455.276356,5.4582171000074595,5623,0.040283,-0.047363,1.050781,2.259542,2.053435,-0.160305,1.052619,3.057421,400,704,304,400,0,72.202,4,normal
1780600455.3079844,5.489845500007505,5654,0.026611,-0.01416,1.052734,2.656489,2.618321,-0.10687,1.053166,3.731482,403,708,305,403,0,72.202,5,normal
1780600455.3378084,5.519669500004966,5685,0.049072,0.005859,1.049072,-0.381679,3.091603,-1.244275,1.050236,3.354386,404,710,306,404,0,72.202,4,normal
1780600455.3694212,5.55128230000264,5716,0.053711,-0.07959,1.052734,2.717557,3.083969,-0.152672,1.057104,4.113306,406,715,309,406,1,67.194,14,normal
1780600455.4010675,5.582928700008779,5748,0.072754,0.016113,1.050537,0.908397,2.282443,-0.587786,1.053177,2.52591,408,718,310,408,0,67.194,5,normal
1780600455.4333725,5.615233600008651,5779,0.060059,-0.066895,1.067871,0.885496,2.412214,-1.59542,1.071648,3.024606,412,724,312,412,0,67.194,0,normal
1780600455.4646018,5.64646289999655,5811,0.048828,-0.021484,1.051758,3.335878,3.229008,-0.198473,1.05311,4.64693,415,728,313,415,0,67.194,6,normal
1780600455.496153,5.678014300006907,5843,0.065186,0.005615,1.050537,-0.183206,2.824427,-1.526718,1.052572,3.21587,418,732,314,418,0,67.194,5,normal
1780600455.5274394,5.709300600006827,5874,0.043701,-0.097656,1.053955,2.572519,2.442748,-0.274809,1.059371,3.558144,419,735,316,419,1,67.194,17,normal
1780600455.5592291,5.741090199997416,5905,0.040771,-0.010986,1.046875,1.412214,1.984733,0.099237,1.047726,2.437901,423,740,317,423,0,67.194,5,normal
1780600455.5900502,5.7719113000057405,5936,0.028076,-0.053223,1.062744,0.19084,2.251908,-1.465649,1.064446,2.693629,426,744,318,426,0,67.194,5,normal
1780600455.621245,5.803106100007426,5968,0.061523,-0.045898,1.050781,3.427481,3.89313,-0.427481,1.053581,5.2045,430,750,320,430,0,95.238,5,normal
1780600455.653174,5.835035199997947,5999,0.041992,-0.013672,1.032715,-0.48855,2.877863,-1.206107,1.033659,3.158396,431,752,321,431,0,95.238,5,normal
1780600455.6847298,5.866590899997391,6031,0.016602,-0.089355,1.048584,1.954198,2.435115,0.236641,1.052515,3.131242,432,755,323,432,1,95.238,18,normal
1780600455.7149405,5.896801700000651,6062,0.009766,-0.000977,1.051514,2.007634,2.419847,-0.335878,1.051559,3.16213,434,758,324,434,0,95.238,5,normal
1780600455.7446792,5.926540400003432,6092,0.070068,-0.007813,1.053467,-0.099237,2.664122,-1.167939,1.055823,2.91058,435,760,325,435,0,95.238,5,normal
1780600455.7752516,5.95711270000902,6122,0.021729,-0.081055,1.054443,2.282443,2.656489,0.015267,1.057777,3.502386,437,767,330,437,1,95.238,3,normal
1780600455.8074393,5.9893005000049016,6154,0.041748,-0.003906,1.072754,1.633588,2.305344,0.053435,1.073573,2.825964,441,772,331,441,0,95.238,1,normal
1780600455.8390853,6.020946600008756,6185,0.026367,-0.032227,1.07251,0.290076,2.099237,-1.259542,1.073318,2.465235,442,774,332,442,0,95.238,5,normal
1780600455.872181,6.054042100004153,6217,0.046387,-0.034668,1.047852,3.343511,3.709924,-0.381679,1.04945,5.00882,445,778,333,445,0,95.238,6,normal
1780600455.901931,6.08379230000719,6249,0.072754,-0.001709,1.04248,-0.366412,2.503817,-0.977099,1.045018,2.712578,448,782,334,448,0,64.057,5,normal
1780600455.9340215,6.115882600002806,6280,0.016846,-0.08252,1.051514,2.160305,2.167939,-0.068702,1.054881,3.061307,450,787,337,450,1,64.057,3,normal
1780600455.9654844,6.147345599994878,6312,0.044922,-0.018555,1.058106,1.679389,2.435115,0.129771,1.059221,2.960908,452,790,338,452,0,64.057,5,normal
1780600455.997627,6.179488299996592,6344,0.040283,-0.051758,1.062012,0.40458,2.175573,-1.145038,1.064035,2.491568,454,794,340,454,0,64.057,0,normal
1780600456.0285022,6.210363400008646,6375,0.034424,-0.04126,1.04834,3.870229,3.076336,-0.480916,1.049716,4.967272,457,798,341,457,0,64.057,5,normal
1780600456.0594745,6.241335600003367,6406,0.023926,-0.010742,1.026611,-0.534351,2.099237,-1.068702,1.026946,2.415461,458,800,342,458,0,64.057,5,normal
1780600456.108789,6.29065019999689,6437,0.030273,-0.040527,1.049072,2.083969,2.748092,-0.40458,1.050291,3.472552,460,804,344,460,0,64.057,0,normal
1780600456.1206648,6.302525899998727,6468,0.043457,-0.026611,1.050537,2.877863,3.152672,-0.068702,1.051772,4.26921,464,810,346,464,0,64.057,5,normal
1780600456.1517425,6.333603699997184,6499,0.04834,0.01001,1.056885,-0.259542,3.091603,-1.015267,1.058037,3.264374,465,812,347,465,0,68.0,5,normal
1780600456.1833494,6.36521060000814,6530,0.028809,-0.090088,1.045654,2.587786,2.587786,-0.175573,1.049923,3.663892,466,815,349,466,1,68.0,17,normal
1780600456.2140164,6.395877500006463,6561,0.027344,0.001221,1.058106,1.21374,2.160305,-0.244275,1.058459,2.489931,470,820,350,470,0,68.0,0,normal
1780600456.245558,6.427419100000407,6592,0.016602,-0.024902,1.056641,0.129771,2.534351,-1.564886,1.057064,2.981383,471,822,351,471,0,68.0,4,normal
1780600456.276132,6.4579932000051485,6623,0.046875,-0.019043,1.044189,4.175572,2.725191,-0.282443,1.045414,4.994181,474,827,353,474,1,68.0,3,normal
1780600456.3062997,6.488160799999605,6654,0.054688,0.007813,1.038818,-0.114504,2.358779,-0.847328,1.040286,2.508967,477,832,355,477,0,68.0,5,normal
1780600456.336811,6.518672300007893,6684,0.022949,-0.058594,1.068115,0.816794,2.519084,-1.21374,1.069967,2.913092,479,836,357,479,0,68.0,1,normal
1780600456.3690646,6.5509257999947295,6715,0.022705,-0.022705,1.038086,3.870229,3.152672,-0.229008,1.038582,4.997045,482,840,358,482,0,68.0,5,normal
1780600456.3994675,6.5813287000055425,6746,0.039307,-0.013916,1.033203,-0.610687,2.450382,-1.137405,1.034044,2.769657,483,842,359,483,0,68.0,5,normal
1780600456.43017,6.612031299999217,6777,0.05249,-0.044434,1.056641,2.496183,2.89313,-0.007634,1.058876,3.82115,485,846,361,485,0,71.942,0,normal
1780600456.4598744,6.641735600001994,6807,0.052246,-0.040039,1.0625,3.099237,3.549618,-0.083969,1.064537,4.712972,489,852,363,489,0,71.942,5,normal
1780600456.4911327,6.672993800006225,6838,0.044434,0.011719,1.04834,-0.587786,2.793893,-0.725191,1.049347,2.945714,490,854,364,490,0,71.942,5,normal
1780600456.5221367,6.7039977999957046,6869,0.025391,-0.086914,1.05835,2.465649,2.183206,-0.412214,1.062216,3.318996,491,857,366,491,1,71.942,18,normal
1780600456.5539327,6.7357939000066835,6901,0.043701,-0.016846,1.056641,1.40458,2.236641,-0.099237,1.057678,2.642964,495,862,367,495,0,71.942,0,normal
1780600456.585765,6.767626100001507,6932,0.032227,-0.072754,1.069336,0.343511,2.229008,-1.274809,1.072292,2.590678,496,864,368,496,0,71.942,5,normal
1780600456.6172998,6.799161000002641,6964,0.070312,-0.050537,1.056396,3.618321,3.099237,-0.526718,1.059939,4.793218,500,870,370,500,0,71.942,5,normal
1780600456.6489565,6.830817699999898,6995,0.05127,-0.018799,1.037598,-0.564886,2.557252,-0.923664,1.039034,2.777011,502,874,372,502,0,71.942,5,normal
1780600456.6789017,6.860762900003465,7026,0.066406,-0.033691,1.0625,2.656489,2.526718,-0.381679,1.065106,3.686043,504,878,374,504,0,71.942,0,normal
1780600456.7101626,6.89202369999839,7057,0.02002,-0.009521,1.048584,2.274809,3.267176,-0.183206,1.048818,3.985318,507,882,375,507,0,78.571,5,normal
1780600456.7410088,6.922869999994873,7088,0.049805,-0.003906,1.055908,-0.038168,3.343511,-1.412214,1.057089,3.629721,509,886,377,509,0,78.571,1,normal
1780600456.7723105,6.954171599994879,7119,0.064941,-0.07959,1.055664,2.740458,3.259542,0.068702,1.06065,4.259043,511,891,380,511,1,78.571,4,normal
1780600456.803376,6.985237200002302,7150,0.043457,-0.013672,1.061768,1.458015,2.160305,-0.21374,1.062744,2.615036,514,896,382,514,0,78.571,5,normal
1780600456.8345358,7.016396999999415,7181,0.023682,-0.05957,1.074707,0.435114,2.068702,-1.267176,1.076617,2.464668,515,898,383,515,0,78.571,5,normal
1780600456.8673172,7.049178300003405,7213,0.054199,-0.047607,1.052246,3.305344,4.045802,-0.496183,1.054716,5.247858,518,902,384,518,0,78.571,5,normal
1780600456.8971121,7.078973399999086,7244,0.038574,-0.009766,1.036377,-0.305344,2.412214,-0.977099,1.03714,2.620445,519,904,385,519,0,78.571,5,normal
1780600456.9290268,7.11088789999485,7275,0.033691,-0.066895,1.053223,2.244275,1.633588,-0.290076,1.055883,2.790972,520,907,387,520,1,78.571,18,normal
1780600456.9594758,7.141337000008207,7307,0.019043,-0.008057,1.059814,2.007634,2.374046,-0.198473,1.060016,3.115458,523,912,389,523,0,64.0,5,normal
1780600456.9906845,7.1725456999993185,7337,0.051758,0.009277,1.057861,-0.541985,2.870229,-1.419847,1.059167,3.247758,525,916,391,525,0,64.0,5,normal
1780600457.0216954,7.2035565999976825,7368,0.064453,-0.086182,1.05249,3.412214,2.885496,-0.312977,1.057978,4.479648,527,921,394,527,1,64.0,14,normal
1780600457.0537632,7.235624299995834,7399,0.050293,-0.013184,1.057129,1.099237,2.458015,0.022901,1.058407,2.69271,529,924,395,529,0,64.0,5,normal
1780600457.084234,7.266095099999802,7430,0.033447,-0.054443,1.073242,0.183206,2.48855,-1.51145,1.075143,2.917349,531,928,397,531,0,64.0,0,normal
1780600457.1408305,7.322691699999268,7461,0.0354,-0.018066,1.040772,3.954198,3.59542,-0.473282,1.04153,5.365326,534,932,398,534,0,64.0,5,normal
1780600457.143432,7.325293000001693,7491,0.072021,0.005859,1.042969,0.038168,2.29771,-0.977099,1.045469,2.497128,536,936,400,536,0,64.0,5,normal
1780600457.174547,7.356408100007684,7521,0.041992,-0.060547,1.074463,1.038168,2.0,-1.496183,1.076986,2.704876,539,940,401,539,0,64.0,5,normal
1780600457.2056582,7.38751929999853,7552,0.049805,-0.038574,1.054443,3.877863,3.251908,-0.137405,1.056323,5.062766,543,946,403,543,0,64.0,5,normal
1780600457.2374346,7.419295900006546,7583,0.043213,0.004639,1.043701,-0.40458,2.442748,-1.328244,1.044606,2.809793,544,948,404,544,0,76.087,5,normal
1780600457.268225,7.4500859999971,7614,0.057373,-0.03833,1.061035,2.389313,2.549618,-0.351145,1.063276,3.51179,545,950,405,545,0,76.087,5,normal
1780600457.298161,7.480022100004135,7645,0.037598,-0.014893,1.051514,2.732824,2.969466,-0.610687,1.052291,4.081543,549,956,407,549,0,76.087,5,normal
1780600457.3302705,7.51213160000043,7676,0.065918,0.012939,1.059814,-0.236641,2.21374,-1.068702,1.061941,2.469569,551,960,409,551,0,76.087,5,normal
1780600457.3593621,7.541223399995943,7707,0.03833,-0.099365,1.047852,2.603053,2.59542,-0.450382,1.05325,3.703368,552,963,411,552,1,76.087,18,normal
1780600457.3911874,7.573048699996434,7737,0.038818,-0.010498,1.061768,1.900763,2.709924,-0.351145,1.062529,3.328647,554,966,412,554,0,76.087,5,normal
1780600457.4215686,7.603429800001322,7768,0.040771,-0.034424,1.048584,-0.381679,2.274809,-1.10687,1.049941,2.558436,556,970,414,556,0,76.087,1,normal
1780600457.4519587,7.63381980000122,7799,0.07373,-0.038086,1.04248,3.694656,3.70229,-0.351145,1.045778,5.242208,557,973,416,557,1,76.087,17,normal
1780600457.4839525,7.665813600004185,7830,0.057861,0.011719,1.051758,0.282443,2.549618,-0.770992,1.053413,2.678574,560,978,418,560,0,76.087,5,normal
1780600457.5139902,7.69585139999981,7861,0.03125,-0.050781,1.063232,1.122137,2.183206,-1.450382,1.064903,2.851173,563,982,419,563,0,68.345,5,normal
1780600457.546285,7.728146000008564,7892,0.043213,-0.037354,1.054688,3.21374,3.80916,-0.374046,1.056233,4.997774,567,988,421,567,0,68.345,5,normal
1780600457.5784864,7.760347700008424,7924,0.050293,0.010986,1.049561,-0.412214,3.427481,-1.045802,1.050822,3.60711,568,990,422,568,0,68.345,5,normal
1780600457.6088789,7.790739999996731,7955,0.038574,-0.094727,1.040039,2.259542,2.068702,-0.21374,1.045056,3.070952,569,993,424,569,1,68.345,18,normal
1780600457.6390061,7.820867200003704,7986,0.042725,-0.008545,1.058594,1.938931,2.687023,-0.541985,1.05949,3.357573,572,998,426,572,0,68.345,5,normal
1780600457.6719377,7.853798900003312,8017,0.050537,-0.028076,1.058594,-0.152672,2.206107,-1.129771,1.060171,2.483264,574,1002,428,574,0,68.345,5,normal
1780600457.701158,7.883019200002309,8048,0.07373,-0.06543,1.043457,4.19084,2.541985,-0.290076,1.048103,4.910088,575,1005,430,575,1,68.345,17,normal
1780600457.7320457,7.91390680000768,8079,0.049805,0.009277,1.041992,0.083969,2.450382,-0.572519,1.043223,2.517777,577,1008,431,577,0,68.345,5,normal
1780600457.7638118,7.945672900008503,8110,0.051514,-0.057617,1.074951,1.015267,2.122137,-1.419847,1.077726,2.747763,579,1012,433,579,0,68.345,0,normal
1780600457.7952297,7.97709090000717,8141,0.054688,-0.036133,1.061279,3.534351,4.076336,-0.007634,1.063301,5.395202,582,1016,434,582,0,67.857,5,normal
1780600457.8255973,8.007458499996574,8172,0.028564,-0.009766,1.041992,-0.198473,2.641221,-1.137405,1.042429,2.882556,584,1020,436,584,0,67.857,5,normal
1780600457.8574533,8.039314599998761,8203,0.049805,-0.035645,1.058838,2.274809,2.351145,-0.21374,1.060608,3.278464,585,1025,440,585,1,67.857,18,normal
1780600457.8881607,8.07002189999912,8235,0.028564,-0.006592,1.05835,1.984733,2.671756,-0.267176,1.058756,3.338986,589,1030,441,589,0,67.857,5,normal
1780600457.9187024,8.100563500003773,8266,0.032227,0.005859,1.049072,0.167939,2.839695,-1.129771,1.049583,3.060793,590,1032,442,590,0,67.857,5,normal
1780600457.9503314,8.132192500008387,8297,0.067383,-0.033936,1.04834,3.557252,3.267176,-0.351145,1.051051,4.842704,591,1035,444,591,1,67.857,18,normal
1780600457.9816535,8.163514500003657,8328,0.055908,0.009033,1.051758,1.137405,2.89313,-0.40458,1.053281,3.134896,594,1040,446,594,0,67.857,5,normal
1780600458.0117056,8.19356680000783,8359,0.03418,-0.050537,1.066406,0.671756,2.70229,-0.832061,1.06815,2.906192,597,1044,447,597,0,67.857,5,normal
1780600458.042286,8.224147200002335,8389,0.035889,-0.022461,1.052246,3.19084,3.89313,-0.381679,1.053098,5.048128,599,1049,450,599,1,67.857,14,normal
1780600458.0733438,8.25520480000705,8420,0.036133,0.0,1.040283,0.320611,2.435115,-0.572519,1.04091,2.521974,601,1052,451,601,0,68.1,5,normal
1780600458.108458,8.290319299994735,8450,0.053711,-0.051514,1.073242,0.679389,2.564885,-1.244275,1.075819,2.930602,603,1056,453,603,0,68.1,0,normal
1780600458.135541,8.317402100001345,8481,0.057129,-0.021973,1.049561,3.465649,2.847328,-0.687023,1.051344,4.53762,607,1062,455,607,0,68.1,5,normal
1780600458.1647139,8.346575000003213,8512,0.057617,-0.003662,1.044922,-0.236641,3.091603,-1.007634,1.046516,3.260266,609,1066,457,609,0,68.1,5,normal
1780600458.1968863,8.378747499999008,8543,0.022949,-0.044434,1.056885,1.687023,2.580153,-0.671756,1.058067,3.155074,610,1068,458,610,0,68.1,5,normal
1780600458.2278452,8.40970630000811,8574,0.060791,-0.039307,1.054199,3.129771,3.099237,-0.396947,1.056682,4.422477,613,1072,459,613,0,68.1,5,normal
1780600458.2588685,8.440729599999031,8605,0.070557,0.008545,1.04541,-0.053435,2.832061,-1.343511,1.047823,3.135036,615,1076,461,615,0,68.1,0,normal
1780600458.2899256,8.471786699999939,8636,0.027588,-0.070557,1.04541,2.198473,2.778626,0.152672,1.048152,3.546457,616,1079,463,616,1,68.1,17,normal
1780600458.321817,8.503678100008983,8667,0.024414,-0.011963,1.05249,2.045802,2.160305,-0.389313,1.052841,3.000631,619,1084,465,619,0,68.1,5,normal
1780600458.352735,8.534596099998453,8698,0.051514,-0.009521,1.050781,0.152672,2.748092,-1.160305,1.052086,2.986909,620,1086,466,620,0,68.345,5,normal
1780600458.3826792,8.564540399995167,8729,0.057861,-0.067383,1.039795,2.740458,2.870229,-0.732824,1.043581,4.035512,621,1089,468,621,1,68.345,17,normal
1780600458.4141812,8.596042400007718,8760,0.037354,-0.000732,1.045898,0.969466,2.572519,-0.045802,1.046566,2.749512,623,1092,469,623,0,68.345,5,normal
1780600458.4450598,8.626921000002767,8791,0.033691,-0.039307,1.068848,0.641221,2.557252,-0.793893,1.070101,2.753356,624,1094,470,624,0,68.345,5,normal
1780600458.4750254,8.656886600001599,8822,0.049561,-0.002197,1.056885,3.427481,3.70229,-0.343511,1.058048,5.056934,627,1099,472,627,1,68.345,3,normal
1780600458.5052767,8.687137900007656,8852,0.064453,-0.004395,1.044678,0.320611,2.587786,-0.343511,1.046673,2.6301,630,1104,474,630,0,68.345,5,normal
1780600458.5376217,8.719482900007279,8883,0.064941,-0.055908,1.067139,0.900763,2.748092,-1.320611,1.070574,3.179213,632,1108,476,632,0,68.345,1,normal
1780600458.5671606,8.749021700001322,8914,0.054688,-0.026855,1.05542,3.29771,3.10687,-0.717557,1.057177,4.587202,635,1112,477,635,0,68.345,5,normal
1780600458.597558,8.77941920000012,8945,0.04541,-0.007568,1.047852,-0.099237,2.496183,-1.0,1.048862,2.69087,636,1114,478,636,0,68.345,5,normal
1780600458.6301596,8.812020800003665,8975,0.023438,-0.040527,1.057861,1.687023,2.793893,-0.435114,1.058897,3.292599,638,1118,480,638,0,64.982,1,normal
1780600458.6614776,8.84333869999682,9007,0.058105,-0.026611,1.060791,2.824427,3.038168,-0.312977,1.062714,4.160025,642,1124,482,642,0,64.982,5,normal
1780600458.6929557,8.874816800002009,9038,0.085693,0.01123,1.046143,0.091603,2.51145,-1.366412,1.049706,2.860569,644,1128,484,644,0,64.982,1,normal
1780600458.7226365,8.90449770000123,9069,0.026611,-0.07959,1.035644,2.221374,2.70229,-0.114504,1.039039,3.499998,645,1131,486,645,1,64.982,18,normal
1780600458.75444,8.936301299996558,9100,0.049316,-0.020508,1.051758,1.923664,1.793893,-0.389313,1.053113,2.658966,647,1134,487,647,0,64.982,5,normal
1780600458.785777,8.967638200003421,9131,0.056885,-0.039795,1.059082,0.763359,1.931298,-1.152672,1.061355,2.375138,648,1136,488,648,0,64.982,5,normal
1780600458.817392,8.999253300004057,9163,0.043457,-0.000488,1.046387,3.603053,3.900763,-0.312977,1.047289,5.31939,651,1143,492,651,1,64.982,4,normal
1780600458.8472538,9.029114999997546,9194,0.031494,-0.005615,1.043213,0.534351,2.206107,-0.618321,1.043703,2.352607,653,1146,493,653,0,64.982,6,normal
1780600458.8794343,9.06129559999681,9225,0.033691,-0.036621,1.062256,1.450382,2.847328,-1.366412,1.063421,3.475337,654,1148,494,654,0,64.0,5,normal
1780600458.9094017,9.091262800007826,9256,0.047363,-0.034912,1.053955,2.770992,3.687023,-0.564886,1.055596,4.64668,657,1152,495,657,0,64.0,5,normal
1780600458.9405406,9.122401600005105,9287,0.02124,-0.012451,1.045166,0.068702,2.748092,-1.122137,1.045456,2.969162,660,1156,496,660,0,64.0,6,normal
1780600458.9711697,9.153030900008162,9318,0.039795,-0.038818,1.059326,2.40458,2.167939,-0.061069,1.060784,3.238162,662,1161,499,662,1,64.0,3,normal
1780600459.0033302,9.185191399999894,9349,0.029785,-0.012939,1.052734,2.534351,2.572519,-0.473282,1.053235,3.642085,664,1164,500,664,0,64.0,5,normal
1780600459.0338545,9.215715600003023,9380,0.049072,0.00708,1.059082,0.259542,2.671756,-0.954198,1.060242,2.848883,665,1166,501,665,0,64.0,5,normal
1780600459.065287,9.247148199996445,9410,0.026367,-0.069092,1.037842,2.282443,2.648855,0.10687,1.040473,3.4982,666,1169,503,666,1,64.0,18,normal
1780600459.0958614,9.277722600003472,9442,0.023682,-0.014404,1.04541,1.381679,2.419847,-0.305344,1.045778,2.8032,670,1174,504,670,0,64.0,5,normal
1780600459.1272995,9.30916079999588,9473,0.020508,-0.044434,1.05542,0.725191,1.992366,-0.992366,1.056554,2.340986,671,1176,505,671,0,64.0,5,normal
1780600459.1717024,9.353563600001507,9504,0.033691,-0.013428,1.050049,3.603053,3.480916,-0.030534,1.050675,5.00996,676,1183,507,676,1,78.853,3,normal
1780600459.1878605,9.369721600000048,9534,0.051758,0.017822,1.043457,1.10687,2.534351,-0.114504,1.044892,2.767889,679,1188,509,679,0,78.853,0,normal
1780600459.219338,9.401199200001429,9565,0.047852,-0.052246,1.069824,0.534351,2.549618,-1.335878,1.072168,2.927568,680,1190,510,680,0,78.853,5,normal
1780600459.2501485,9.432009600001038,9596,0.05957,-0.020996,1.050049,3.503817,4.007634,-0.091603,1.051947,5.32412,682,1193,511,682,0,78.853,16,normal
1780600459.2816298,9.463490900001489,9627,0.018555,-0.000244,1.047607,-0.40458,2.770992,-1.129771,1.047772,3.01968,684,1196,512,684,0,78.853,5,normal
1780600459.31192,9.49378119999892,9658,0.037598,-0.035156,1.073242,2.022901,2.549618,-0.671756,1.074476,3.323242,687,1202,515,687,0,78.853,0,normal
1780600459.3426116,9.524472699995385,9689,0.020264,-0.009766,1.05249,2.801527,3.305344,-0.366412,1.052731,4.348345,690,1206,516,690,0,78.853,5,normal
1780600459.3743815,9.55624259999604,9720,0.049316,0.020264,1.041016,0.358779,2.748092,-1.053435,1.04238,2.96487,693,1210,517,693,0,78.853,5,normal
1780600459.4066005,9.588461599996663,9752,0.037598,-0.067139,1.045898,1.908397,3.015267,-0.381679,1.048725,3.588801,694,1213,519,694,1,78.853,17,normal
1780600459.4372344,9.619095500005642,9784,0.05957,-0.007324,1.049561,1.053435,2.267176,-0.389313,1.051275,2.530094,696,1216,520,696,0,71.429,5,normal
1780600459.469756,9.651617099996656,9815,0.023682,-0.050293,1.056641,0.473282,2.251908,-1.267176,1.058102,2.626942,699,1221,522,699,0,71.429,14,normal
1780600459.5014622,9.683323500008555,9847,0.054932,-0.039795,1.054688,3.358779,2.916031,-0.045802,1.056866,4.448228,703,1226,523,703,0,71.429,5,normal
1780600459.534049,9.715910099999746,9879,0.057373,0.011475,1.055664,0.061069,2.78626,-1.244275,1.057284,3.05208,706,1230,524,706,0,71.429,5,normal
1780600459.56461,9.746471100006602,9910,0.052246,-0.049561,1.051025,1.854962,2.954198,-0.19084,1.05349,3.493507,707,1233,526,707,1,71.429,18,normal
1780600459.5965135,9.778374600005918,9942,0.042725,-0.013916,1.066894,1.648855,2.267176,-0.603053,1.06784,2.867487,711,1238,527,711,0,71.429,5,normal
1780600459.6266696,9.808530900001642,9973,0.024414,-0.034668,1.061279,0.496183,2.610687,-1.19084,1.062126,2.912041,714,1242,528,714,0,71.429,5,normal
1780600459.6578648,9.83972590000485,10004,0.057129,-0.021484,1.039795,3.40458,2.969466,-0.229008,1.041585,4.523422,717,1247,530,717,1,71.429,17,normal
1780600459.6888237,9.870684900000924,10035,0.05249,0.009277,1.047852,0.335878,2.519084,-0.59542,1.049206,2.610196,719,1250,531,719,0,91.633,5,normal
1780600459.7211711,9.903032200003508,10066,0.034424,-0.037842,1.06543,0.992366,2.725191,-1.160305,1.066657,3.123742,720,1252,532,720,0,91.633,5,normal
1780600459.7518246,9.933685800002422,10097,0.047852,-0.033691,1.053223,3.526718,3.312977,-0.717557,1.054847,4.89167,724,1258,534,724,0,91.633,5,normal
1780600459.782862,9.964723099998082,10128,0.033203,-0.017334,1.033203,-0.267176,2.610687,-1.068702,1.033882,2.833583,725,1260,535,725,0,91.633,5,normal
1780600459.8137066,9.995567699996172,10159,0.025635,-0.038574,1.04541,2.167939,2.870229,-0.137405,1.046436,3.599591,726,1264,538,726,0,91.633,4,normal
1780600459.8443651,10.026226400004816,10190,0.013916,-0.008301,1.053467,3.076336,2.358779,-0.839695,1.053591,3.966455,729,1268,539,729,0,91.633,5,normal
1780600459.8758817,10.05774279999605,10221,0.051514,0.016113,1.054443,0.389313,3.022901,-1.175572,1.055824,3.266721,730,1270,540,730,0,91.633,5,normal
1780600459.9066582,10.088519400000223,10252,0.034668,-0.06543,1.049805,2.40458,2.572519,0.21374,1.052413,3.527824,731,1273,542,731,1,91.633,18,normal
1780600459.9374866,10.119347900006687,10283,0.032715,-0.018311,1.061523,1.748092,2.419847,-0.503817,1.062185,3.027428,733,1276,543,733,0,91.633,5,normal
1780600459.967804,10.149665000004461,10314,0.01416,-0.027344,1.057861,0.351145,2.755725,-1.206107,1.058309,3.028534,735,1280,545,735,0,57.348,5,normal
1780600459.999178,10.181039000002784,10345,0.044678,-0.042236,1.039307,3.679389,3.366412,-0.450382,1.041124,5.007342,738,1285,547,738,1,57.348,18,normal
1780600460.0291908,10.211051999998745,10377,0.027588,0.008789,1.040527,-0.145038,2.519084,-0.732824,1.04093,2.627518,742,1290,548,742,0,57.348,5,normal
1780600460.0619116,10.243772800007719,10407,0.044678,-0.047607,1.061279,0.961832,2.259542,-1.167939,1.063286,2.719326,743,1292,549,743,0,57.348,5,normal
1780600460.0927494,10.274610599997686,10438,0.035156,-0.028564,1.048096,3.419847,3.862595,-0.358779,1.049074,5.171433,746,1296,550,746,0,57.348,5,normal
1780600460.1233668,10.305227999997442,10469,0.022217,-0.012695,1.028809,0.030534,2.480916,-0.954198,1.029127,2.658265,748,1300,552,748,0,57.348,5,normal
1780600460.1543949,10.336256099995808,10500,0.039307,-0.032471,1.063721,1.801527,2.954198,-0.290076,1.064942,3.472309,749,1304,555,749,0,57.348,4,normal
1780600460.1860983,10.367959399998654,10531,0.027832,-0.016602,1.05835,2.916031,2.526718,-0.641221,1.058846,3.911356,754,1310,556,754,0,57.348,5,normal
1780600460.216673,10.398534000007203,10563,0.061523,-0.008301,1.044189,0.366412,3.137405,-1.358779,1.046033,3.438582,755,1312,557,755,0,57.348,5,normal
1780600460.246312,10.42817310000828,10594,0.03125,-0.070801,1.040039,2.40458,2.366412,-0.519084,1.042914,3.413409,757,1317,560,757,1,78.571,14,normal
1780600460.277703,10.459564100005082,10624,0.029785,-0.018066,1.049805,2.053435,2.748092,-0.396947,1.050382,3.453429,760,1322,562,760,0,78.571,5,normal
1780600460.309777,10.49163829999452,10655,0.019287,-0.016846,1.050293,0.503817,2.458015,-1.160305,1.050605,2.764413,762,1326,564,762,0,78.571,5,normal
1780600460.3402276,10.522088700003223,10686,0.039062,-0.058594,1.040527,2.954198,2.541985,-0.366412,1.042908,3.91449,763,1329,566,763,1,78.571,18,normal
1780600460.3729687,10.5548298000067,10717,0.042236,0.020996,1.038574,1.08397,2.832061,-0.587786,1.039645,3.088859,765,1332,567,765,0,78.571,5,normal
1780600460.404079,10.585940200006007,10749,0.055908,-0.04248,1.073486,1.450382,2.549618,-1.320611,1.07578,3.216858,767,1336,569,767,0,78.571,0,normal
1780600460.434796,10.616657200007467,10780,0.072998,-0.0354,1.055664,2.877863,3.671756,-0.29771,1.058777,4.674668,770,1340,570,770,0,78.571,5,normal
1780600460.4653807,10.64724180000485,10812,0.044189,-0.000732,1.040039,0.152672,2.557252,-1.274809,1.040978,2.861466,772,1344,572,772,0,78.571,5,normal
1780600460.4979951,10.679856300004758,10843,0.020508,-0.074951,1.043457,2.045802,2.389313,0.129771,1.046346,3.148168,773,1347,574,773,1,78.571,18,normal
1780600460.529663,10.711524199999985,10875,0.049805,-0.017578,1.05957,1.21374,2.480916,-0.259542,1.060886,2.774072,775,1350,575,775,0,64.057,5,normal
1780600460.5600069,10.74186799999734,10906,0.04126,-0.032471,1.054443,0.206107,2.580153,-1.0,1.05575,2.774828,777,1354,577,777,0,64.057,1,normal
1780600460.5898082,10.771669299996574,10936,0.028564,-0.071289,1.037109,2.480916,2.480916,-0.229008,1.039949,3.516011,778,1357,579,778,1,64.057,18,normal
1780600460.6207342,10.802595300003304,10967,0.043701,0.006836,1.044678,1.29771,2.778626,0.045802,1.045614,3.067069,781,1362,581,781,0,64.057,5,normal
1780600460.6510768,10.832937900006073,10997,0.047607,-0.051025,1.05835,0.251908,2.29771,-1.022901,1.060648,2.527698,783,1366,583,783,0,64.057,5,normal
1780600460.6819386,10.863799800004927,11028,0.059082,-0.036377,1.052978,3.610687,2.778626,-0.122137,1.055262,4.557712,785,1371,586,785,1,64.057,13,normal
1780600460.7133844,10.895245499996236,11059,0.045166,0.00293,1.043457,0.21374,2.0,-0.412214,1.044438,2.053194,787,1374,587,787,0,64.057,5,normal
1780600460.7451434,10.927004500001203,11090,0.039795,-0.049805,1.064209,0.801527,2.381679,-1.061069,1.066117,2.727766,788,1376,588,788,0,64.057,5,normal
1780600460.7757955,10.957656700004009,11121,0.066162,-0.031738,1.058106,3.312977,3.389313,-0.679389,1.060647,4.787988,792,1382,590,792,0,64.057,5,normal
1780600460.8058426,10.98770379999769,11152,0.04248,-0.005859,1.046143,-0.335878,1.946565,-1.022901,1.047021,2.224467,794,1386,592,794,0,68.592,5,normal
1780600460.8438606,11.02572190000501,11183,0.052246,-0.043945,1.057617,1.954198,2.916031,-0.152672,1.059818,3.513607,796,1390,594,796,0,68.592,1,normal
1780600460.875457,11.057318200008012,11220,0.011963,-0.011475,1.038574,-0.145038,3.122137,-1.251908,1.038707,3.366906,799,1394,595,799,0,68.592,5,normal
1780600460.9057226,11.08758370000578,11251,0.037598,-0.041016,1.062012,1.709924,3.229008,-0.282443,1.063468,3.66471,800,1396,596,800,0,68.592,4,normal
1780600460.9371572,11.119018400000641,11282,0.047119,-0.041016,1.064209,3.015267,2.862595,-0.389313,1.066041,4.175866,804,1402,598,804,0,68.592,5,normal
1780600460.9677818,11.149642899996252,11313,0.046875,0.016357,1.052246,-0.137405,3.007634,-1.038168,1.053417,3.184734,806,1406,600,806,0,68.592,5,normal
1780600460.9984376,11.180298699997365,11344,0.022705,-0.074707,1.04248,1.961832,2.114504,0.114504,1.0454,2.886698,807,1409,602,807,1,68.592,18,normal
1780600461.0299013,11.21176249999553,11375,0.01001,-0.011719,1.046143,1.832061,2.610687,-0.572519,1.046256,3.240357,809,1412,603,809,0,68.592,5,normal
1780600461.0659304,11.247791600006167,11406,0.024414,-0.044434,1.056396,0.053435,2.641221,-0.900763,1.057612,2.791107,811,1416,605,811,0,66.929,0,normal
1780600461.0908914,11.272752600008971,11437,0.044434,-0.028809,1.047119,3.221374,3.351145,-0.10687,1.048457,4.649607,812,1419,607,812,1,66.929,18,normal
1780600461.121159,11.303020300008939,11468,0.040771,0.007568,1.050537,1.274809,2.40458,-0.236641,1.051355,2.731876,815,1424,609,815,0,66.929,5,normal
1780600461.1529021,11.3347633999947,11498,0.033691,-0.037354,1.057129,0.564886,2.374046,-1.21374,1.058325,2.725501,816,1426,610,816,0,66.929,4,normal
1780600461.182689,11.364549999998417,11529,0.039307,-0.007324,1.047363,3.396947,3.312977,-0.541985,1.048126,4.775857,818,1429,611,818,1,66.929,17,normal
1780600461.2137704,11.395631499995943,11560,0.041504,0.005127,1.030518,0.167939,2.007634,-0.816794,1.031366,2.173925,821,1434,613,821,0,66.929,0,normal
1780600461.2450595,11.426920700003393,11591,0.050781,-0.047363,1.060059,1.221374,2.305344,-1.038168,1.062331,2.807874,822,1436,614,822,0,66.929,4,normal
1780600461.2768388,11.458699900002102,11622,0.0354,-0.038574,1.053467,2.870229,4.0,-0.694656,1.054767,4.971998,826,1442,616,826,0,66.929,5,normal
1780600461.30561,11.48747110000113,11653,0.040527,-0.008545,1.032959,0.022901,2.694656,-0.992366,1.033789,2.87167,828,1446,618,828,0,66.929,5,normal
1780600461.3379772,11.519838299995172,11683,0.046143,-0.04126,1.059082,1.587786,2.679389,-0.59542,1.060889,3.170917,830,1450,620,830,0,68.592,0,normal
1780600461.368378,11.550239000003785,11714,0.050781,-0.040283,1.061279,2.671756,2.541985,-0.427481,1.063257,3.712507,833,1454,621,833,0,68.592,5,normal
1780600461.4009535,11.582814599998528,11746,0.030518,-0.006836,1.05249,0.145038,2.412214,-1.389313,1.052955,2.787472,834,1456,622,834,0,68.592,5,normal
1780600461.4313908,11.613251999995555,11777,0.027344,-0.068115,1.044189,2.633588,2.152672,-0.374046,1.046766,3.421942,836,1461,625,836,1,68.592,3,normal
1780600461.4634356,11.645296899994719,11808,0.0271,-0.015625,1.057129,1.221374,2.290076,-0.305344,1.057592,2.613319,839,1466,627,839,0,68.592,5,normal
1780600461.4933636,11.675224899998284,11839,0.030273,-0.031982,1.056152,0.679389,2.129771,-0.793893,1.05707,2.37229,841,1470,629,841,0,68.592,0,normal
1780600461.5243664,11.706227600006969,11870,0.033936,0.000244,1.047119,3.587786,2.984733,-0.656489,1.047669,4.712942,842,1473,631,842,1,68.592,17,normal
1780600461.5551422,11.73700330000429,11901,0.0354,0.013672,1.040527,0.503817,2.580153,-0.519084,1.041219,2.67964,844,1476,632,844,0,68.592,5,normal
1780600461.5852232,11.767084300008719,11932,0.044434,-0.057129,1.063721,1.045802,2.664122,-1.274809,1.06618,3.133111,846,1480,634,846,0,68.592,0,normal
1780600461.6175482,11.799409400002332,11963,0.053955,-0.02832,1.056641,3.328244,3.152672,-0.427481,1.058396,4.604268,850,1486,636,850,0,71.429,5,normal
1780600461.6476886,11.829549800007953,11994,0.02124,-0.017822,1.044189,-0.358779,2.519084,-0.740458,1.044557,2.650054,851,1488,637,851,0,71.429,5,normal
1780600461.679486,11.861347099998966,12025,0.043457,-0.041016,1.054443,2.374046,2.984733,0.10687,1.056135,3.815252,852,1490,638,852,0,71.429,5,normal
1780600461.711055,11.89291619999858,12056,0.027832,-0.010986,1.063232,1.885496,2.969466,-0.160305,1.063653,3.521153,855,1494,639,855,0,71.429,5,normal
1780600461.743455,11.925316000008024,12088,0.051025,-0.019775,1.060547,0.557252,2.129771,-1.465649,1.061958,2.644727,858,1498,640,858,0,71.429,5,normal
1780600461.7730749,11.954936099995393,12120,0.052246,-0.015625,1.044434,3.70229,2.625954,-0.160305,1.045856,4.541837,860,1503,643,860,1,71.429,3,normal
1780600461.8059974,11.987858599997708,12151,0.020996,0.001953,1.02832,0.335878,2.282443,-0.59542,1.028536,2.382621,862,1506,644,862,0,71.429,5,normal
1780600461.8369975,12.018858700001147,12182,0.02002,-0.038818,1.056152,1.641221,2.435115,-1.076336,1.057055,3.127601,863,1508,645,863,0,71.429,5,normal
1780600461.868779,12.050640200002817,12214,0.046631,-0.035156,1.047607,2.801527,3.244275,-0.450382,1.049234,4.310071,866,1512,646,866,0,63.745,6,normal
1780600461.9005919,12.0824530999962,12246,0.056396,0.018066,1.059814,0.175573,2.618321,-1.137405,1.061468,2.86009,869,1516,647,869,0,63.745,5,normal
1780600461.9314084,12.113269599998603,12277,0.03833,-0.081055,1.050049,1.91603,2.366412,-0.519084,1.05387,3.088775,871,1521,650,871,1,63.745,4,normal
1780600461.9626923,12.1445534999948,12308,0.031494,-0.016602,1.05542,1.40458,2.175573,-0.450382,1.05602,2.628461,874,1526,652,874,0,63.745,6,normal
1780600461.993919,12.175780100005795,12339,0.040771,-0.046631,1.061523,-0.145038,2.610687,-0.946565,1.063329,2.780774,876,1530,654,876,0,63.745,1,normal
1780600462.0238597,12.205721000005724,12370,0.055664,-0.039795,1.042725,3.610687,3.038168,-0.557252,1.044967,4.751637,877,1533,656,877,1,63.745,18,normal
1780600462.0544157,12.23627690000285,12401,0.049316,-0.002441,1.048584,0.923664,2.656489,-0.40458,1.049746,2.841438,879,1536,657,879,0,63.745,4,normal
1780600462.0857093,12.267570500000147,12431,0.041016,-0.048828,1.070557,0.633588,2.519084,-1.068702,1.072454,2.808797,880,1538,658,880,0,63.745,5,normal
1780600462.1200323,12.301893500000006,12462,0.045898,-0.004639,1.050049,3.717557,3.038168,-0.030534,1.051062,4.801212,885,1545,660,885,1,63.745,4,normal
1780600462.1464276,12.32828889999655,12493,0.038086,0.005127,1.044189,0.183206,2.419847,-0.679389,1.044896,2.520078,888,1550,662,888,0,78.853,0,normal
1780600462.1777353,12.359596499998588,12524,0.039307,-0.034668,1.060791,1.70229,2.580153,-0.961832,1.062085,3.237298,889,1552,663,889,0,78.853,5,normal
1780600462.2094166,12.391277700007777,12555,0.056885,-0.04126,1.058594,2.885496,3.328244,-0.282443,1.060924,4.413964,892,1556,664,892,0,78.853,5,normal
1780600462.2416587,12.423519899995881,12587,0.059082,0.012451,1.059082,-0.091603,2.832061,-0.908397,1.060802,2.975592,895,1560,665,895,0,78.853,5,normal
1780600462.2718968,12.453758100004052,12618,0.045654,-0.074219,1.050049,1.740458,2.374046,-0.374046,1.053658,2.967356,897,1567,670,897,1,78.853,3,normal
1780600462.3029673,12.484828400003607,12649,0.029053,-0.003662,1.060791,1.51145,2.480916,-0.427481,1.061195,2.936352,899,1570,671,899,0,78.853,5,normal
1780600462.3340602,12.515921400001389,12680,0.028809,-0.030762,1.042236,0.175573,2.496183,-1.358779,1.043088,2.847461,900,1572,672,900,0,78.853,5,normal
1780600462.3651507,12.547011899994686,12711,0.056152,-0.052002,1.04126,3.076336,2.480916,-0.267176,1.044069,3.961082,901,1575,674,901,1,78.853,18,normal
1780600462.395908,12.57776919999742,12742,0.047607,-0.007324,1.045898,1.114504,2.427481,-0.396947,1.047007,2.700435,905,1580,675,905,0,78.853,5,normal
1780600462.427068,12.608929199996055,12773,0.0354,-0.058838,1.061523,0.763359,2.236641,-0.839695,1.063742,2.50806,907,1584,677,907,0,67.857,1,normal
1780600462.4578373,12.63969850000285,12804,0.047119,-0.022217,1.052978,3.419847,3.221374,-0.480916,1.054266,4.722698,911,1590,679,911,0,67.857,5,normal
1780600462.488122,12.669983100000536,12835,0.035156,-0.004395,1.041992,-0.343511,2.648855,-1.366412,1.042594,3.000252,912,1592,680,912,0,67.857,5,normal
1780600462.5204866,12.702347700003884,12866,0.040527,-0.042236,1.056885,1.793893,3.045802,-0.183206,1.058504,3.539566,913,1594,681,913,0,67.857,5,normal
1780600462.5517235,12.733584700006759,12897,0.037354,-0.025146,1.058106,2.854962,2.732824,0.083969,1.059063,3.952997,916,1598,682,916,0,67.857,5,normal
1780600462.582317,12.764178299999912,12928,0.05249,0.020508,1.052246,0.290076,2.816794,-0.908397,1.053754,2.973829,917,1600,683,917,0,67.857,5,normal
1780600462.6130936,12.794954800003325,12959,0.039551,-0.063477,1.048828,1.89313,2.229008,-0.038168,1.051491,2.9247,919,1607,688,919,1,67.857,3,normal
1780600462.6442487,12.826110000009066,12990,0.018311,-0.011963,1.054443,1.610687,2.40458,-0.465649,1.05467,2.931407,923,1612,689,923,0,67.857,0,normal
1780600462.6757782,12.857639399997424,13021,0.016602,-0.021973,1.047119,0.206107,2.450382,-1.206107,1.047481,2.738895,924,1614,690,924,0,67.857,5,normal
1780600462.7067578,12.888619000004837,13052,0.043457,-0.061768,1.033936,3.389313,2.671756,-0.358779,1.03669,4.33064,925,1617,692,925,1,64.516,18,normal
1780600462.7371635,12.919024800008629,13083,0.049316,0.014648,1.04126,0.778626,2.610687,-0.167939,1.04253,2.729496,927,1620,693,927,0,64.516,5,normal
1780600462.7691483,12.95100960000127,13114,0.029541,-0.057373,1.0625,0.778626,2.633588,-1.053435,1.064458,2.941389,931,1626,695,931,0,64.516,0,normal
1780600462.7991893,12.981050400005188,13145,0.041016,-0.022705,1.051514,3.099237,3.793893,-0.244275,1.052558,4.904953,934,1630,696,934,0,64.516,5,normal
1780600462.8304982,13.012359400003334,13176,0.029785,-0.004395,1.036133,-0.114504,2.175573,-1.099237,1.03657,2.440194,935,1632,697,935,0,64.516,4,normal
1780600462.8618176,13.043678700007149,13207,0.055664,-0.042969,1.053467,2.022901,2.908397,-0.633588,1.055811,3.598935,936,1634,698,936,0,64.516,5,normal
1780600462.8924203,13.074281399996835,13238,0.0354,-0.022949,1.053955,2.770992,3.282443,-0.564886,1.054799,4.332658,941,1640,699,941,0,64.516,5,normal
1780600462.9238248,13.105685899994569,13269,0.046387,0.020264,1.05127,-0.030534,3.198473,-0.763359,1.052488,3.288447,942,1642,700,942,0,64.516,5,normal
1780600462.9542813,13.136142600007588,13300,0.048096,-0.070068,1.050537,2.068702,2.854962,-0.022901,1.053969,3.525742,943,1647,704,943,1,64.516,18,normal
1780600462.9875178,13.169379099999787,13332,0.04126,-0.023193,1.050049,1.290076,2.160305,-0.137405,1.051115,2.51994,945,1650,705,945,0,71.429,5,normal
1780600463.017186,13.199047100002645,13363,0.039307,-0.039795,1.071533,0.709924,2.244275,-1.656489,1.072992,2.878318,946,1652,706,946,0,71.429,5,normal
1780600463.047766,13.229627199994866,13394,0.066406,-0.001465,1.037598,3.557252,3.763359,-0.473282,1.039722,5.200087,949,1657,708,949,1,71.429,14,normal
1780600463.0780463,13.259907400002703,13425,0.030762,0.006104,1.038086,0.320611,2.29771,-0.633588,1.03856,2.404932,951,1660,709,951,0,71.429,5,normal
1780600463.1101856,13.292046899994602,13455,0.058594,-0.059082,1.065186,0.992366,2.480916,-1.122137,1.068431,2.89809,955,1666,711,955,0,71.429,0,normal
1780600463.1416147,13.323475800003507,13487,0.067871,-0.033936,1.052734,2.816794,2.70229,-0.312977,1.055466,3.915949,958,1670,712,958,0,71.429,5,normal
1780600463.1716635,13.35352459999558,13518,0.052246,-0.02124,1.038574,0.0,2.78626,-0.748092,1.040104,2.884941,961,1674,713,961,0,71.429,4,normal
1780600463.202592,13.384453000006033,13548,0.07373,-0.043213,1.058838,2.145038,2.526718,-0.076336,1.062281,3.315316,962,1676,714,962,0,71.429,5,normal
1780600463.2337558,13.415617100006784,13579,0.063721,-0.025146,1.05127,2.679389,3.045802,-0.648855,1.053499,4.108168,965,1680,715,965,0,71.429,5,normal
1780600463.2650883,13.446949400007725,13610,0.06665,0.019043,1.058838,-0.282443,3.183206,-1.198473,1.061104,3.41305,967,1684,717,967,0,79.137,5,normal
1780600463.2958221,13.477683400007663,13641,0.052246,-0.070801,1.049805,2.236641,2.709924,-0.045802,1.053486,3.514022,968,1689,721,968,1,79.137,18,normal
1780600463.3274324,13.50929349999933,13673,0.022705,-0.018066,1.043457,1.541985,2.465649,-0.358779,1.04386,2.930164,972,1694,722,972,0,79.137,5,normal
1780600463.3582137,13.540074799995637,13704,0.017334,-0.043213,1.063232,0.534351,2.610687,-1.091603,1.064251,2.879725,973,1696,723,973,0,79.137,5,normal
1780600463.3899271,13.57178820000263,13735,0.043457,-0.013428,1.054932,3.534351,3.961832,-0.343511,1.055912,5.320315,976,1701,725,976,1,79.137,14,normal
1780600463.4208024,13.602663600002415,13766,0.019287,-0.000244,1.035889,0.244275,2.137405,-0.625954,1.036068,2.240533,980,1706,726,980,0,79.137,5,normal
1780600463.4526253,13.634486399998423,13797,0.02124,-0.037842,1.071045,1.465649,2.870229,-0.900763,1.071924,3.346299,983,1710,727,983,0,79.137,5,normal
1780600463.4832144,13.665075600001728,13829,0.048828,-0.030273,1.05249,2.916031,2.48855,-0.274809,1.054057,3.843388,986,1714,728,986,0,79.137,5,normal
1780600463.514628,13.696489199995995,13860,0.043457,0.016602,1.056152,-0.251908,2.80916,-1.274809,1.057176,3.095154,987,1716,729,987,0,80.0,5,normal
1780600463.545505,13.727366300008725,13891,0.039062,-0.078369,1.044434,2.152672,2.328244,-0.305344,1.048098,3.185585,989,1721,732,989,1,80.0,14,normal
1780600463.5760412,13.757902500001364,13922,0.034912,-0.013428,1.054688,1.70229,2.824427,-0.610687,1.055351,3.353822,991,1724,733,991,0,80.0,5,normal
1780600463.605805,13.787666100004571,13952,0.042969,-0.008301,1.054932,0.114504,3.534351,-0.89313,1.055839,3.64725,993,1728,735,993,0,80.0,5,normal
1780600463.636527,13.81838830000197,13982,0.026611,-0.075439,1.039062,2.465649,2.40458,-0.343511,1.042137,3.461131,994,1733,739,994,1,80.0,18,normal
1780600463.6680217,13.849882800001069,14013,0.032715,-0.016357,1.059326,1.679389,2.763359,-0.656489,1.059957,3.299618,998,1738,740,998,0,80.0,5,normal
1780600463.6983714,13.880232600000454,14044,0.017334,-0.041748,1.056396,0.282443,2.206107,-1.145038,1.057363,2.501558,999,1740,741,999,0,80.0,5,normal
1780600463.7305243,13.912385400006315,14076,0.037354,0.008789,1.044922,3.671756,3.152672,-0.091603,1.045626,4.840405,1000,1743,743,1000,1,80.0,18,normal
1780600463.7596931,13.941554200006067,14107,0.05127,-0.006836,1.036865,0.053435,1.91603,-1.0,1.038154,2.16195,1003,1748,745,1003,0,80.0,5,normal
1780600463.7909029,13.972764100006316,14136,0.034668,-0.04541,1.063477,0.938931,2.480916,-1.374046,1.06501,2.987397,1006,1752,746,1006,0,68.841,5,normal
1780600463.8205392,14.002400400000624,14167,0.055176,0.0,1.043701,3.465649,3.465649,-0.221374,1.045159,4.906164,1009,1757,748,1009,1,68.841,13,normal
1780600463.8503213,14.03218249999918,14197,0.063965,0.001709,1.037354,0.381679,2.366412,-0.656489,1.039325,2.485269,1011,1760,749,1011,0,68.841,5,normal
1780600463.8833418,14.065202900004806,14228,0.046143,-0.058594,1.056641,1.183206,2.473282,-0.877863,1.059269,2.878844,1013,1764,751,1013,0,68.841,1,normal
1780600463.9131796,14.095040800006245,14259,0.047119,-0.026855,1.053223,3.480916,3.717557,-0.427481,1.054618,5.110748,1017,1770,753,1017,0,68.841,6,normal
1780600463.9441292,14.12599030000274,14290,0.022461,-0.007324,1.039795,-0.183206,3.053435,-0.80916,1.040063,3.164138,1019,1774,755,1019,0,68.841,5,normal
1780600463.975298,14.157159099995624,14321,0.063965,-0.039062,1.057861,2.526718,2.89313,-0.114504,1.060513,3.842865,1020,1776,756,1020,0,68.841,5,normal
1780600464.0081615,14.190022599999793,14353,0.028076,-0.016113,1.056152,2.167939,2.80916,-0.076336,1.056648,3.549249,1023,1780,757,1023,0,68.841,5,normal
1780600464.0387783,14.220639499995741,14384,0.067139,-0.005859,1.071045,0.458015,2.793893,-1.099237,1.073163,3.037094,1025,1784,759,1025,0,68.841,1,normal
1780600464.0690107,14.250872000004165,14415,0.058838,-0.072754,1.045654,2.442748,3.19084,-0.396947,1.049832,4.038074,1026,1787,761,1026,1,71.685,18,normal
1780600464.0991402,14.281001299998024,14446,0.025635,-0.001953,1.054199,1.29771,2.099237,-0.587786,1.054513,2.536994,1029,1792,763,1029,0,71.685,5,normal
1780600464.1300194,14.311880699999165,14476,0.03125,-0.034424,1.057617,0.305344,2.51145,-1.198473,1.058639,2.799456,1031,1796,765,1031,0,71.685,5,normal
1780600464.1596513,14.341512500002864,14506,0.035645,-0.06958,1.035644,2.473282,2.557252,-0.450382,1.038591,3.586016,1033,1801,768,1033,1,71.685,14,normal
1780600464.1911175,14.372978800005512,14537,0.037109,-0.029541,1.050293,1.381679,2.244275,-0.244275,1.051364,2.646786,1035,1804,769,1035,0,71.685,5,normal
1780600464.2230225,14.404883600000176,14568,0.026855,-0.050781,1.061523,0.496183,2.587786,-1.328244,1.063077,2.950774,1036,1806,770,1036,0,71.685,5,normal
1780600464.2552083,14.437069499996142,14600,0.057861,-0.031494,1.050293,2.954198,3.687023,-0.366412,1.052357,4.738743,1040,1812,772,1040,0,71.685,6,normal
1780600464.286166,14.468027199996868,14632,0.047607,-0.008789,1.039062,0.221374,2.748092,-0.885496,1.04019,2.895707,1042,1816,774,1042,0,71.685,5,normal
1780600464.317877,14.499738099999377,14663,0.013672,-0.059082,1.047852,2.137405,2.618321,-0.21374,1.049605,3.386707,1044,1821,777,1044,1,71.685,14,normal
1780600464.3487904,14.530651499997475,14694,0.010254,-0.012451,1.04541,1.908397,2.801527,-0.40458,1.045535,3.413827,1046,1824,778,1046,0,71.685,5,normal
1780600464.3812325,14.56309360000887,14726,0.030518,-0.030273,1.05249,0.21374,2.709924,-0.793893,1.053368,2.831896,1048,1828,780,1048,0,71.685,1,normal
1780600464.4110615,14.592922600000747,14757,0.037354,-0.043945,1.044434,3.801527,3.038168,-0.534351,1.046025,4.895672,1050,1833,783,1050,1,71.685,3,normal
1780600464.4432595,14.625120600001537,14788,0.060303,0.005859,1.041504,0.534351,2.396947,-0.458015,1.043265,2.498132,1053,1838,785,1053,0,71.685,5,normal
1780600464.4744864,14.656347600001027,14819,0.048096,-0.064453,1.061523,1.137405,2.587786,-0.946565,1.064565,2.980992,1054,1840,786,1054,0,71.685,5,normal
1780600464.5060544,14.687915600006818,14851,0.043945,-0.025391,1.057373,2.717557,3.320611,-0.076336,1.05859,4.29155,1057,1844,787,1057,0,71.685,5,normal
1780600464.5369945,14.718855700004497,14883,0.064209,-0.005859,1.056641,-0.21374,3.671756,-1.053435,1.058606,3.82586,1059,1848,789,1059,0,71.685,1,normal
1780600464.5697665,14.751627599995118,14914,0.042969,-0.083984,1.03833,2.137405,3.206107,-0.343511,1.042607,3.868542,1060,1851,791,1060,1,71.685,18,normal
1780600464.6007829,14.782644000006258,14946,0.051025,-0.023193,1.045898,1.244275,2.435115,-0.152672,1.047399,2.738852,1063,1856,793,1063,0,67.46,5,normal
1780600464.632064,14.813925199996447,14977,0.033936,-0.053955,1.066162,0.541985,2.068702,-1.061069,1.068066,2.387288,1066,1860,794,1066,0,67.46,5,normal
1780600464.664378,14.846239200007403,15009,0.054932,-0.034424,1.052002,2.977099,3.717557,-0.534351,1.053997,4.792586,1070,1866,796,1070,0,67.46,5,normal
1780600464.694787,14.876648100005696,15040,0.031006,-0.011963,1.030029,0.175573,2.656489,-0.717557,1.030565,2.75729,1071,1868,797,1071,0,67.46,5,normal
1780600464.7268598,14.908720999999787,15071,0.022949,-0.039795,1.052002,2.251908,2.335878,-0.229008,1.053004,3.25267,1072,1870,798,1072,0,67.46,5,normal
1780600464.7564752,14.938336300008814,15102,0.03833,-0.015869,1.050293,2.480916,3.244275,-0.618321,1.051112,4.130688,1076,1876,800,1076,0,67.46,5,normal
1780600464.786967,14.968828099998063,15133,0.048828,0.003662,1.047363,0.015267,2.969466,-0.885496,1.048507,3.09872,1078,1880,802,1078,0,67.46,5,normal
1780600464.8192885,15.00114960000792,15164,0.02002,-0.071533,1.046387,2.19084,2.465649,-0.152672,1.04902,3.301895,1080,1885,805,1080,1,67.46,15,normal
1780600464.8500528,15.031914000006509,15196,0.035645,0.009277,1.046631,1.19084,2.175573,-0.114504,1.047279,2.482806,1082,1888,806,1082,0,76.0,5,normal
1780600464.8818448,15.063705900000059,15227,0.043701,-0.048828,1.059082,0.664122,1.801527,-1.351145,1.061107,2.347797,1084,1892,808,1084,0,76.0,1,normal
1780600464.9120746,15.093935700002476,15258,0.032959,-0.021484,1.051025,3.564885,2.954198,-0.580153,1.051761,4.666076,1087,1897,810,1087,1,76.0,3,normal
1780600464.9426224,15.124483499996131,15289,0.036865,-0.002686,1.035156,0.389313,1.717557,-1.122137,1.035816,2.088243,1090,1902,812,1090,0,76.0,5,normal
1780600464.9727695,15.154630599994562,15319,0.048584,-0.036621,1.068848,1.198473,2.480916,-1.061069,1.070578,2.952482,1091,1904,813,1091,0,76.0,5,normal
1780600465.0048623,15.186723499995423,15350,0.053467,-0.033691,1.05835,3.480916,3.465649,-1.152672,1.060235,5.045409,1094,1908,814,1094,0,76.0,5,normal
1780600465.035212,15.217073200008599,15381,0.05127,-0.022705,1.027344,-0.335878,2.709924,-1.0,1.028873,2.908006,1096,1912,816,1096,0,76.0,1,normal
1780600465.0742748,15.25613589999557,15411,0.019043,-0.027344,1.057861,1.59542,2.954198,-0.923664,1.058386,3.482213,1097,1914,817,1097,0,76.0,5,normal
1780600465.0965157,15.27837690000888,15442,0.05127,-0.021973,1.060547,2.938931,3.328244,-0.48855,1.062013,4.466902,1101,1920,819,1101,0,76.0,5,normal
1780600465.1276813,15.30954240000574,15473,0.049561,0.015869,1.041504,0.389313,3.137405,-1.038168,1.042803,3.327562,1103,1924,821,1103,0,75.812,5,normal
1780600465.1577442,15.339605400004075,15504,0.032959,-0.043213,1.059082,2.0,2.427481,-0.022901,1.060476,3.145344,1105,1929,824,1105,1,75.812,14,normal
1780600465.1883497,15.37021090000053,15534,0.007813,-0.009766,1.05249,2.458015,2.900763,-0.381679,1.052564,3.821249,1107,1932,825,1107,0,75.812,5,normal
1780600465.2197337,15.401594900002237,15564,0.077393,0.024902,1.046631,0.236641,3.21374,-1.122137,1.049784,3.412231,1108,1934,826,1108,0,75.812,5,normal
1780600465.2503397,15.43220100000326,15595,0.051025,-0.073486,1.048828,2.083969,2.290076,-0.137405,1.052637,3.099396,1110,1939,829,1110,1,75.812,3,normal
1780600465.2803597,15.462220800007344,15626,0.040771,-0.012939,1.057861,1.977099,2.29771,-0.305344,1.058726,3.046576,1113,1944,831,1113,0,75.812,5,normal
1780600465.312336,15.494197100008023,15657,0.04248,-0.037109,1.056152,0.366412,2.412214,-1.564886,1.057658,2.898603,1115,1948,833,1115,0,75.812,0,normal
1780600465.3421347,15.523995800002012,15688,0.074219,-0.040527,1.046387,3.076336,3.374046,-0.29771,1.049798,4.575659,1116,1951,835,1116,1,75.812,18,normal
1780600465.3725603,15.554421499997261,15719,0.063721,-0.000488,1.050049,1.19084,2.526718,-0.305344,1.05198,2.809918,1119,1956,837,1119,0,75.812,0,normal
1780600465.405315,15.58717610000167,15750,0.049805,-0.039551,1.064453,0.580153,2.664122,-0.870229,1.066351,2.862066,1120,1958,838,1120,0,61.372,5,normal
1780600465.4350836,15.616944900000817,15781,0.032959,-0.021729,1.053711,3.59542,3.480916,-0.320611,1.05445,5.01464,1123,1963,840,1123,1,61.372,3,normal
1780600465.4656544,15.647515600008774,15811,0.06543,0.001221,1.049072,-0.175573,2.618321,-0.908397,1.051111,2.776979,1125,1966,841,1125,0,61.372,5,normal
1780600465.4973218,15.679182899999432,15842,0.043945,-0.047852,1.064209,1.656489,2.396947,-1.358779,1.06619,3.214901,1126,1968,842,1126,0,61.372,5,normal
1780600465.5286176,15.710478900000453,15874,0.026611,-0.009033,1.050049,2.961832,3.778626,-0.48855,1.050425,4.825883,1129,1972,843,1129,0,61.372,5,normal
1780600465.559549,15.741410300004645,15905,0.042236,0.029541,1.053223,-0.068702,2.870229,-1.282443,1.054483,3.144454,1132,1976,844,1132,0,61.372,5,normal
1780600465.591018,15.772879099997226,15936,0.020996,-0.074707,1.053467,2.221374,2.450382,0.083969,1.056321,3.308462,1134,1981,847,1134,1,61.372,3,normal
1780600465.6206777,15.80253879999509,15967,0.028564,-0.009033,1.048584,1.778626,2.267176,-0.320611,1.049012,2.899377,1137,1986,849,1137,0,61.372,6,normal
1780600465.650886,15.832747199994628,15997,0.051758,-0.008057,1.052246,0.465649,2.916031,-1.0,1.053549,3.117702,1139,1990,851,1139,0,61.372,1,normal
1780600465.682626,15.86448720000044,16027,0.032715,-0.071045,1.049316,2.198473,2.770992,-0.381679,1.052227,3.557719,1140,1993,853,1140,1,72.202,18,normal
1780600465.713671,15.895532199996524,16059,0.045166,-0.026123,1.056885,1.320611,2.21374,-0.366412,1.058172,2.603635,1142,1996,854,1142,0,72.202,5,normal
1780600465.7452185,15.927079600005527,16090,0.030518,-0.053223,1.068359,0.587786,2.229008,-1.068702,1.07012,2.540884,1144,2000,856,1144,0,72.202,1,normal
1780600465.7765827,15.958443900002749,16122,0.032471,-0.031006,1.053711,3.480916,3.251908,-0.580153,1.054667,4.798777,1148,2006,858,1148,0,72.202,6,normal
1780600465.80797,15.989831300001242,16153,0.018555,-0.007568,1.029297,-0.603053,2.908397,-1.045802,1.029492,3.148991,1150,2010,860,1150,0,72.202,0,normal
1780600465.8391144,16.020975599996746,16184,0.025879,-0.037598,1.052978,2.458015,2.282443,-0.236641,1.053967,3.362645,1151,2012,861,1151,0,72.202,5,normal
1780600465.869414,16.051275300007546,16215,0.050293,-0.018555,1.05127,2.396947,2.969466,-0.519084,1.052635,3.851302,1154,2016,862,1154,0,72.202,5,normal
1780600465.9017818,16.083642900004634,16246,0.059082,0.010498,1.0354,0.282443,3.007634,-1.343511,1.037138,3.306154,1157,2020,863,1157,0,72.202,5,normal
1780600465.9332132,16.115074400004232,16278,0.05957,-0.067139,1.044922,3.068702,3.160305,0.221374,1.04877,4.410609,1159,2025,866,1159,1,75.697,3,normal
1780600465.9650664,16.14692769999965,16310,0.062988,-0.005615,1.039307,0.221374,2.610687,-0.503817,1.041229,2.668056,1161,2028,867,1161,0,75.697,5,normal
1780600465.9955864,16.17744759999914,16341,0.051514,-0.049561,1.058838,1.458015,2.580153,-1.290076,1.061248,3.232227,1162,2030,868,1162,0,75.697,5,normal
1780600466.0267444,16.208605499996338,16373,0.06665,-0.040039,1.054443,2.923664,3.305344,-0.099237,1.057306,4.41395,1165,2034,869,1165,0,75.697,6,normal
1780600466.0583537,16.240214799996465,16404,0.068604,0.001221,1.056396,0.221374,2.954198,-1.167939,1.058622,3.184396,1166,2036,870,1166,0,75.697,5,normal
1780600466.0894387,16.27129980000609,16435,0.025879,-0.071533,1.057373,2.0,2.10687,-0.305344,1.060106,2.920982,1168,2041,873,1168,1,75.697,4,normal
1780600466.1204183,16.30227939999895,16466,0.019287,-0.004639,1.05835,2.091603,2.824427,-0.496183,1.058535,3.549421,1171,2046,875,1171,0,75.697,5,normal
1780600466.1521668,16.334027899996727,16497,0.04834,0.001465,1.059814,0.137405,3.137405,-1.244275,1.060917,3.37793,1173,2050,877,1173,0,75.697,0,normal
1780600466.18598,16.3678413000016,16528,0.069336,-0.064209,1.043213,2.89313,2.427481,-0.160305,1.047484,3.780021,1174,2053,879,1174,1,60.0,17,normal
1780600466.2135832,16.395444299996598,16559,0.034912,0.016846,1.037598,1.183206,2.496183,-0.267176,1.038322,2.7753,1176,2056,880,1176,0,60.0,5,normal
1780600466.244002,16.425863299999037,16589,0.037598,-0.042969,1.058106,0.374046,2.381679,-0.793893,1.059645,2.538222,1177,2058,881,1177,0,60.0,5,normal
1780600466.2741292,16.45599040000525,16620,0.062744,-0.01416,1.05127,3.519084,3.78626,-0.374046,1.053235,5.182627,1182,2065,883,1182,1,60.0,3,normal
1780600466.3059208,16.487781899995753,16651,0.044434,-0.005859,1.032959,0.305344,2.152672,-0.969466,1.033931,2.380566,1184,2068,884,1184,0,60.0,5,normal
1780600466.3364909,16.51835199999914,16682,0.048828,-0.031982,1.071533,1.320611,2.755725,-1.21374,1.073122,3.288039,1185,2070,885,1185,0,60.0,5,normal
1780600466.3681483,16.55000960000325,16713,0.054688,-0.033447,1.050781,2.824427,3.832061,-0.259542,1.052735,4.767541,1188,2074,886,1188,0,60.0,5,normal
1780600466.3988597,16.580720900004962,16744,0.038818,-0.016846,1.051025,0.19084,2.549618,-1.274809,1.051877,2.856941,1191,2078,887,1191,0,60.0,5,normal
1780600466.4301507,16.612011799996253,16775,0.055664,-0.029297,1.064453,2.320611,2.160305,0.022901,1.06631,3.170596,1193,2082,889,1193,0,60.0,1,normal
1780600466.4665463,16.648407500004396,16811,0.012695,-0.013184,1.052246,2.282443,2.267176,-0.526718,1.052405,3.259918,1197,2088,891,1197,0,81.272,5,normal
1780600466.497052,16.6789129999961,16843,0.033203,-0.038086,1.054199,2.29771,2.854962,-0.351145,1.055409,3.681519,1199,2092,893,1199,0,81.272,0,normal
1780600466.5284617,16.71032290000585,16874,0.02417,-0.008789,1.064941,2.137405,2.908397,-0.236641,1.065252,3.61708,1202,2096,894,1202,0,81.272,5,normal
1780600466.5589783,16.740839400008554,16905,0.058838,0.000732,1.056152,0.618321,3.282443,-1.183206,1.05779,3.543547,1203,2098,895,1203,0,81.272,5,normal
1780600466.592148,16.774009200002183,16936,0.040039,-0.063232,1.033447,2.656489,2.687023,-0.099237,1.036154,3.779798,1205,2103,898,1205,1,81.272,3,normal
1780600466.6230655,16.804926600001636,16968,0.04834,0.001465,1.049072,1.076336,2.320611,-0.816794,1.050186,2.68531,1208,2108,900,1208,0,81.272,5,normal
1780600466.652738,16.834599299996626,16999,0.053955,-0.050293,1.070068,0.770992,2.351145,-1.0,1.072607,2.668766,1210,2112,902,1210,0,81.272,1,normal
1780600466.6842258,16.866087000002153,17029,0.048584,-0.013916,1.046143,3.603053,3.351145,-0.244275,1.047363,4.926645,1212,2115,903,1212,1,81.272,17,normal
1780600466.7150664,16.89692759999889,17060,0.06958,-0.010254,1.034668,0.175573,2.366412,-0.717557,1.037056,2.479036,1215,2120,905,1215,0,81.272,0,normal
1780600466.7464802,16.92834139999468,17091,0.037109,-0.041504,1.043701,1.91603,2.496183,-0.694656,1.045185,3.222522,1218,2124,906,1218,0,75.0,0,normal
1780600466.7774718,16.959333000006154,17123,0.03418,-0.012451,1.046631,2.977099,2.442748,-0.59542,1.047263,3.89675,1222,2130,908,1222,0,75.0,5,normal
1780600466.8082833,16.990144399998826,17154,0.04834,0.003174,1.05542,0.206107,3.51145,-0.954198,1.056531,3.64462,1223,2132,909,1223,0,75.0,5,normal
1780600466.8406417,17.02250279999862,17185,0.043701,-0.072266,1.042725,2.351145,2.114504,-0.381679,1.046139,3.185073,1224,2135,911,1224,1,75.0,18,normal
1780600466.8715765,17.05343770000036,17217,0.030518,-0.02832,1.065674,1.290076,2.374046,-0.282443,1.066487,2.716646,1228,2140,912,1228,0,75.0,0,normal
1780600466.9024591,17.084320199996,17248,0.049316,-0.056396,1.066406,0.389313,2.603053,-1.022901,1.069035,2.823788,1229,2142,913,1229,0,75.0,5,normal
1780600466.934511,17.11637220000557,17280,0.048584,-0.025879,1.058106,3.435115,3.679389,-0.389313,1.059536,5.048711,1233,2148,915,1233,0,75.0,6,normal
1780600466.9732964,17.15515750000486,17311,0.04248,-0.006592,1.035889,-0.557252,2.832061,-1.175572,1.03678,3.11658,1235,2152,917,1235,0,75.0,5,normal
1780600466.9967663,17.17862750000495,17342,0.049072,-0.040527,1.057129,2.145038,2.832061,-0.21374,1.059043,3.559135,1237,2156,919,1237,0,75.697,1,normal
1780600467.0285978,17.210459000008996,17373,0.027832,-0.015869,1.048584,2.572519,2.656489,-0.358779,1.049073,3.715307,1240,2160,920,1240,0,75.697,5,normal
1780600467.0588677,17.24072889999661,17404,0.043457,0.01709,1.05127,0.328244,3.274809,-1.267176,1.052306,3.526734,1241,2162,921,1241,0,75.697,5,normal
1780600467.0903084,17.272169600008056,17435,0.022217,-0.073486,1.047363,2.458015,2.564885,-0.358779,1.050173,3.570602,1243,2167,924,1243,1,75.697,4,normal
1780600467.121319,17.303180100003374,17466,0.025635,-0.013428,1.051025,1.587786,1.870229,-0.70229,1.051424,2.551868,1246,2172,926,1246,0,75.697,5,normal
1780600467.1523042,17.33416539999598,17497,0.010742,-0.033447,1.058838,0.114504,2.816794,-0.885496,1.05942,2.954918,1248,2176,928,1248,0,75.697,1,normal
1780600467.1832132,17.36507430000347,17528,0.036133,-0.015869,1.044678,4.198474,2.458015,-0.030534,1.045423,4.865177,1249,2179,930,1249,1,75.697,17,normal
1780600467.213674,17.395535300005577,17559,0.033691,0.009521,1.032227,0.458015,2.877863,-0.366412,1.03282,2.937028,1252,2184,932,1252,0,75.697,1,normal
1780600467.2450528,17.42691399999603,17590,0.0354,-0.039551,1.063232,1.48855,2.29771,-1.244275,1.064556,3.007236,1255,2188,933,1255,0,75.697,1,normal
1780600467.276123,17.457984299995587,17621,0.039551,-0.033447,1.05249,3.412214,3.320611,-0.549618,1.053764,4.792884,1259,2194,935,1259,0,78.853,5,normal
1780600467.30677,17.48863120000169,17652,0.053955,-0.006348,1.032715,-0.175573,2.427481,-1.08397,1.034143,2.664297,1260,2196,936,1260,0,78.853,5,normal
1780600467.3374987,17.519359800004167,17683,0.046875,-0.047363,1.046387,2.198473,2.564885,-0.10687,1.048506,3.379844,1261,2198,937,1261,0,78.853,5,normal
1780600467.3695664,17.55142760000308,17714,0.038086,-0.014893,1.050049,2.274809,2.832061,-0.847328,1.050845,3.730052,1264,2202,938,1264,0,78.853,5,normal
1780600467.4014127,17.583274000004167,17746,0.065186,-0.016846,1.054688,0.396947,2.358779,-1.412214,1.056834,2.777724,1267,2206,939,1267,0,78.853,5,normal
1780600467.4322593,17.614120500002173,17777,0.04834,-0.030273,1.044434,3.091603,2.679389,-0.664122,1.04599,4.144658,1269,2211,942,1269,1,78.853,3,normal
1780600467.461892,17.64375309999741,17808,0.040527,0.003662,1.047119,1.40458,2.076336,-0.229008,1.04791,2.517233,1272,2216,944,1272,0,78.853,5,normal
1780600467.493162,17.675023100004182,17838,0.037109,-0.038574,1.052734,0.480916,1.89313,-1.038168,1.054094,2.212016,1274,2220,946,1274,0,78.853,0,normal
1780600467.523371,17.70523220000905,17869,0.046143,-0.009521,1.037842,3.282443,2.908397,-0.015267,1.038911,4.385594,1275,2223,948,1275,1,78.853,17,normal
1780600467.5553823,17.737243299998227,17900,0.053223,0.002441,1.046143,0.282443,2.412214,-0.694656,1.047498,2.526084,1277,2226,949,1277,0,64.516,5,normal
1780600467.5867906,17.768651699996553,17931,0.058105,-0.040771,1.06665,1.312977,2.648855,-1.007634,1.06901,3.123406,1279,2230,951,1279,0,64.516,0,normal
1780600467.6181195,17.79998060000071,17963,0.038818,-0.033691,1.051025,2.816794,3.167939,-0.51145,1.052282,4.269865,1283,2236,953,1283,0,64.516,5,normal
1780600467.6480396,17.829900700002327,17994,0.051514,0.000732,1.044189,0.221374,2.778626,-1.236641,1.04546,3.049434,1285,2240,955,1285,0,64.516,1,normal
1780600467.6803792,17.86224040000525,18025,0.025391,-0.076416,1.039551,1.877863,2.442748,-0.045802,1.042665,3.081474,1286,2243,957,1286,1,64.516,17,normal
1780600467.7114215,17.893282699995325,18056,0.020264,-0.005615,1.049805,1.778626,2.366412,-0.473282,1.050015,2.997902,1289,2248,959,1289,0,64.516,1,normal
1780600467.7428188,17.924680099997204,18087,0.042236,-0.010742,1.051758,-0.076336,2.946565,-1.061069,1.05266,3.132721,1290,2250,960,1290,0,64.516,5,normal
1780600467.773828,17.955689099995652,18119,0.048828,-0.025391,1.036377,3.656489,3.70229,-0.21374,1.037837,5.207931,1292,2257,965,1292,1,64.516,3,normal
1780600467.804962,17.986822999999276,18150,0.069092,-0.00293,1.04126,0.267176,2.045802,-0.458015,1.043554,2.113401,1294,2260,966,1294,0,68.0,5,normal
1780600467.8356335,18.017494700005045,18181,0.055664,-0.050781,1.069336,1.458015,2.40458,-1.351145,1.071987,3.119841,1295,2262,967,1295,0,68.0,5,normal
1780600467.8673055,18.049166600001627,18212,0.044922,-0.035645,1.062744,3.122137,3.366412,-0.396947,1.06429,4.608475,1298,2266,968,1298,0,68.0,5,normal
1780600467.8980966,18.079957699999795,18243,0.056885,-0.007568,1.047852,-0.160305,2.541985,-1.175572,1.049422,2.805237,1301,2270,969,1301,0,68.0,5,normal
1780600467.9288597,18.1107209000038,18274,0.060059,-0.036865,1.059814,2.366412,2.480916,-0.21374,1.062155,3.435191,1303,2274,971,1303,0,68.0,0,normal
1780600467.9582129,18.140073899994604,18305,0.066406,-0.024902,1.054443,2.29771,2.694656,-0.374046,1.056826,3.560976,1307,2280,973,1307,0,68.0,5,normal
1780600467.9893613,18.171222400007537,18335,0.064697,0.006592,1.056396,0.122137,3.21374,-1.198473,1.058396,3.43211,1309,2284,975,1309,0,68.0,0,normal
1780600468.0195026,18.20136390000698,18366,0.040039,-0.081299,1.041016,2.29771,2.519084,0.145038,1.044953,3.412666,1310,2287,977,1310,1,68.0,18,normal
1780600468.0510285,18.23288959999627,18396,0.032471,-0.016846,1.056885,2.206107,2.610687,-0.29771,1.057518,3.430922,1312,2290,978,1312,0,68.0,5,normal
1780600468.0823953,18.264256399997976,18427,0.059082,-0.010254,1.05249,0.496183,3.145038,-0.984733,1.054197,3.332741,1313,2292,979,1313,0,68.592,5,normal
1780600468.1126714,18.294532500003697,18458,0.037842,-0.070312,1.050781,2.526718,2.40458,-0.618321,1.053811,3.542404,1315,2299,984,1315,1,68.592,3,normal
1780600468.1444736,18.326334600002156,18489,0.033691,-0.022949,1.052734,1.419847,2.496183,-0.244275,1.053523,2.882112,1319,2304,985,1319,0,68.592,0,normal
1780600468.1771824,18.35904360000859,18521,0.046387,-0.057129,1.070557,0.717557,2.343511,-1.206107,1.073083,2.731598,1320,2306,986,1320,0,68.592,5,normal
1780600468.207238,18.389099100008025,18552,0.052979,-0.023438,1.05957,3.229008,3.854962,-0.450382,1.061153,5.048768,1323,2310,987,1323,0,68.592,5,normal
1780600468.2380714,18.419932699995115,18584,0.035889,0.00415,1.033936,0.145038,2.763359,-1.099237,1.034566,2.9775,1324,2312,988,1324,0,68.592,5,normal
1780600468.2701788,18.452040000003763,18615,0.037842,-0.036377,1.046875,2.251908,2.862595,0.061069,1.04819,3.642701,1326,2318,992,1326,0,68.592,1,normal
1780600468.300687,18.482548300002236,18646,0.030518,-0.019775,1.045898,2.290076,2.244275,-0.412214,1.04653,3.232822,1329,2322,993,1329,0,68.592,5,normal
1780600468.3313987,18.513260000006994,18677,0.054688,0.01123,1.047119,0.48855,2.839695,-1.152672,1.048606,3.103417,1330,2324,994,1330,0,68.0,5,normal
1780600468.3628051,18.544666300003882,18708,0.031738,-0.056641,1.040039,2.48855,2.816794,-0.305344,1.042064,3.771,1331,2327,996,1331,1,68.0,18,normal
1780600468.393537,18.575398300003144,18739,0.022705,-0.010498,1.049072,1.603053,2.343511,-0.129771,1.04937,2.8423,1335,2332,997,1335,0,68.0,5,normal
1780600468.4243388,18.606199900008505,18770,0.004883,-0.035645,1.064209,0.572519,2.320611,-1.129771,1.064817,2.643746,1336,2334,998,1336,0,68.0,5,normal
1780600468.4552372,18.63709820000804,18801,0.042236,-0.024414,1.053955,3.442748,3.862595,0.007634,1.055084,5.174187,1339,2341,1002,1339,1,68.0,4,normal
1780600468.4865983,18.66845939999621,18832,0.034912,0.000488,1.033936,0.282443,3.045802,-0.427481,1.034525,3.088595,1342,2346,1004,1342,0,68.0,0,normal
1780600468.5171595,18.69902070000535,18863,0.030273,-0.039551,1.069092,1.412214,2.954198,-0.748092,1.070251,3.358761,1343,2348,1005,1343,0,68.0,5,normal
1780600468.548389,18.73025010000856,18894,0.042236,-0.029053,1.048096,2.687023,3.450382,-0.603053,1.049349,4.414624,1346,2352,1006,1346,0,68.0,5,normal
1780600468.5806582,18.76251939999929,18925,0.046387,0.013672,1.039795,0.152672,2.664122,-0.908397,1.040919,2.818872,1347,2354,1007,1347,0,68.0,5,normal
1780600468.6104777,18.792338900006143,18956,0.037842,-0.041016,1.049561,2.0,3.267176,0.137405,1.051043,3.833186,1349,2361,1012,1349,1,68.1,4,normal
1780600468.6429098,18.8247709999996,18987,0.025146,-0.022461,1.046631,2.015267,2.618321,-0.442748,1.047174,3.333606,1351,2365,1014,1351,1,68.1,3,normal
1780600468.6727438,18.854604899999686,19018,0.0625,-0.018066,1.054688,0.053435,3.007634,-1.175572,1.056692,3.229657,1353,2368,1015,1353,0,68.1,5,normal
1780600468.7043033,18.88616439999896,19049,0.056641,-0.057861,1.052734,2.496183,3.381679,-0.48855,1.055844,4.231473,1354,2371,1017,1354,1,68.1,18,normal
1780600468.7351117,18.916972899998655,19080,0.039795,-0.010498,1.055908,1.442748,2.335878,-0.396947,1.05671,2.774061,1358,2376,1018,1358,0,68.1,5,normal
1780600468.766737,18.948598100003437,19111,0.055176,-0.059082,1.069824,0.610687,1.847328,-1.21374,1.072874,2.293191,1361,2381,1020,1361,1,68.1,14,normal
1780600468.7985303,18.980391400007647,19143,0.059082,-0.027588,1.05835,3.427481,3.648855,-0.091603,1.060356,5.007011,1365,2386,1021,1365,0,68.1,6,normal
1780600468.8300374,19.011898600001587,19174,0.033447,-0.013428,1.044922,-0.152672,2.984733,-0.977099,1.045543,3.144306,1366,2388,1022,1366,0,68.1,5,normal
1780600468.8615766,19.043437700005597,19206,0.041504,-0.077881,1.054932,2.083969,2.129771,-0.091603,1.058616,2.981148,1367,2391,1024,1367,1,72.0,18,normal
1780600468.8928556,19.07471670000814,19238,0.035889,-0.019287,1.04541,1.412214,2.717557,-0.480916,1.046204,3.10012,1371,2396,1025,1371,0,72.0,5,normal
1780600468.9226775,19.10453860000416,19269,0.0271,-0.042725,1.052734,0.236641,2.40458,-0.832061,1.05395,2.555451,1372,2398,1026,1372,0,72.0,5,normal
1780600468.9545884,19.136449500001618,19300,0.045898,-0.015137,1.040527,3.541985,3.19084,-0.48855,1.041649,4.792264,1374,2405,1031,1374,1,72.0,3,normal
1780600468.9854217,19.167282900001737,19331,0.053711,0.02832,1.048828,0.259542,2.381679,-0.51145,1.050584,2.449763,1377,2410,1033,1377,0,72.0,1,normal
1780600469.018911,19.200771999996505,19362,0.028809,-0.037109,1.061035,1.465649,2.763359,-1.152672,1.062075,3.333606,1378,2412,1034,1378,0,72.0,5,normal
1780600469.0488036,19.230664700007765,19393,0.046143,-0.029297,1.054688,2.839695,2.938931,-0.503817,1.056103,4.117646,1381,2416,1035,1381,0,72.0,5,normal
1780600469.0832067,19.265067700005602,19425,0.039062,0.016846,1.045166,0.450382,2.549618,-0.80916,1.046031,2.712588,1382,2418,1036,1382,0,72.0,5,normal
1780600469.1110656,19.292926900001476,19456,0.040283,-0.045166,1.054932,1.938931,2.801527,-0.175573,1.056666,3.411574,1384,2425,1041,1384,1,68.0,4,normal
1780600469.1417348,19.323596000002,19487,0.046387,-0.015625,1.052734,1.89313,2.70229,-0.427481,1.053872,3.327018,1387,2430,1043,1387,0,68.0,1,normal
1780600469.1732106,19.355071800004225,19518,0.047607,-0.009277,1.063721,0.145038,2.664122,-1.053435,1.064826,2.868503,1388,2432,1044,1388,0,68.0,5,normal
1780600469.2043126,19.386173799997778,19549,0.054199,-0.063232,1.043213,3.114504,3.083969,-0.366412,1.046532,4.398325,1389,2435,1046,1389,1,68.0,17,normal
1780600469.2344542,19.416315299997223,19580,0.046875,0.023926,1.04126,1.236641,2.236641,-0.59542,1.042589,2.624189,1393,2440,1047,1393,0,68.0,5,normal
1780600469.2668905,19.44875170000887,19611,0.059326,-0.058105,1.063965,0.458015,1.984733,-1.152672,1.067201,2.340426,1397,2446,1049,1397,0,68.0,0,normal
1780600469.2973244,19.47918560000835,19642,0.037354,-0.032715,1.061523,3.122137,3.717557,-0.374046,1.062684,4.869074,1400,2450,1050,1400,0,68.0,5,normal
1780600469.3283348,19.510196000002907,19673,0.047119,-0.013184,1.040527,-0.549618,1.954198,-0.801527,1.041677,2.182525,1401,2452,1051,1401,0,68.0,5,normal
1780600469.3579762,19.539837300006184,19704,0.049805,-0.035156,1.061279,1.977099,2.816794,-0.839695,1.063029,3.542363,1402,2454,1052,1402,0,68.0,5,normal
1780600469.3903124,19.572173499997007,19735,0.037354,-0.030762,1.057129,2.641221,2.198473,-0.206107,1.058236,3.442646,1406,2460,1054,1406,0,78.853,5,normal
1780600469.4211218,19.602983100005076,19767,0.039551,-0.003174,1.055176,0.396947,2.465649,-0.969466,1.055922,2.678965,1407,2462,1055,1407,0,78.853,5,normal
1780600469.4554427,19.637303900002735,19798,0.017578,-0.078857,1.039307,2.435115,2.931298,-0.328244,1.042442,3.824922,1409,2469,1060,1409,1,78.853,3,normal
1780600469.4844503,19.666311599998153,19829,0.054932,-0.017822,1.046631,1.427481,2.885496,-0.320611,1.048223,3.23521,1415,2476,1061,1415,0,78.853,0,normal
1780600469.5164657,19.698326800003997,19861,0.053467,-0.054443,1.069824,0.51145,2.305344,-1.068702,1.072542,2.591971,1416,2478,1062,1416,0,78.853,5,normal
1780600469.547957,19.729818200008594,19892,0.042725,-0.026855,1.064453,3.389313,3.335878,-0.59542,1.065649,4.792708,1419,2482,1063,1419,0,78.853,5,normal
1780600469.5788424,19.760703599997214,19924,0.040527,0.015137,1.036377,0.21374,2.740458,-0.832061,1.03728,2.871954,1420,2484,1064,1420,0,78.853,5,normal
1780600469.6102424,19.79210360000434,19955,0.031982,-0.027588,1.055176,2.343511,2.679389,0.022901,1.056021,3.559733,1422,2490,1068,1422,0,78.853,1,normal
1780600469.6411757,19.823036800007685,19986,0.019531,-0.008789,1.059814,2.076336,2.564885,-0.343511,1.060031,3.317802,1425,2495,1070,1425,1,75.697,3,normal
1780600469.6713161,19.853177299999516,20017,0.040771,0.011719,1.053711,0.503817,3.053435,-1.274809,1.054564,3.347004,1427,2498,1071,1427,0,75.697,6,normal
1780600469.7035844,19.885445599997183,20048,0.04834,-0.057861,1.040772,2.458015,3.0,-0.351145,1.043499,3.894245,1428,2501,1073,1428,1,75.697,18,normal
1780600469.7339332,19.915794400003506,20079,0.042725,-0.017822,1.047119,1.465649,2.51145,-0.534351,1.048142,2.956525,1432,2506,1074,1432,0,75.697,5,normal
1780600469.7659805,19.947841700006393,20110,0.012939,-0.039062,1.054932,0.725191,2.51145,-1.167939,1.055734,2.863104,1435,2510,1075,1435,0,75.697,5,normal
1780600469.7961304,19.9779916999978,20141,0.057373,-0.026367,1.051025,3.503817,3.610687,-0.160305,1.05292,5.033834,1439,2515,1076,1439,1,75.697,17,normal
1780600469.8270066,20.008867700002156,20172,0.045898,-0.011475,1.037354,0.251908,2.435115,-0.496183,1.038432,2.497887,1441,2518,1077,1441,0,75.697,5,normal
1780600469.8590705,20.040931600000476,20203,0.056152,-0.047852,1.052246,1.633588,2.862595,-0.427481,1.054829,3.323522,1442,2520,1078,1442,0,75.697,5,normal
1780600469.8906384,20.072499600006267,20235,0.05957,-0.035889,1.053467,2.740458,2.236641,-0.496183,1.05576,3.571956,1446,2526,1080,1446,0,75.697,5,normal
1780600469.9214087,20.103269700004603,20266,0.048584,-0.001221,1.058106,-0.068702,2.931298,-0.824427,1.059221,3.045802,1447,2528,1081,1447,0,78.571,5,normal
1780600469.9523823,20.134243399996194,20297,0.034668,-0.077881,1.036133,2.305344,2.389313,-0.328244,1.039634,3.336341,1449,2535,1086,1449,1,78.571,4,normal
1780600469.9836886,20.165549700002884,20329,0.030518,-0.01709,1.056396,1.40458,2.885496,-0.709924,1.056975,3.28678,1459,2546,1087,1459,0,78.571,1,normal
1780600470.0151272,20.1969883999991,20360,0.017822,-0.047119,1.05835,0.442748,2.587786,-0.938931,1.059548,2.788235,1460,2548,1088,1460,0,78.571,5,normal
1780600470.0461776,20.22803890000796,20391,0.056885,-0.012939,1.063721,3.412214,3.229008,-0.465649,1.065319,4.72086,1462,2551,1089,1462,1,78.571,17,normal
1780600470.076999,20.258860100002494,20422,0.041748,-0.009033,1.015137,0.083969,2.832061,-0.70229,1.016035,2.919046,1464,2554,1090,1464,0,78.571,5,normal
1780600470.1080859,20.289946999997483,20453,0.065674,-0.040283,1.068115,1.610687,2.519084,-0.496183,1.07089,3.03089,1469,2560,1091,1469,0,78.571,0,normal
1780600470.1394258,20.321286799997324,20484,0.078613,-0.047119,1.066894,2.572519,2.824427,-0.290076,1.070824,3.831369,1472,2564,1092,1472,0,78.571,5,normal
1780600470.1697276,20.351588799996534,20515,0.052246,0.003418,1.049316,0.389313,2.503817,-1.061069,1.050622,2.747095,1475,2568,1093,1475,0,78.571,5,normal
1780600470.201706,20.38356699999713,20546,0.068848,-0.053711,1.057129,2.450382,2.656489,0.282443,1.060729,3.625062,1476,2571,1095,1476,1,103.571,18,normal
1780600470.2327738,20.414635000008275,20578,0.042725,-0.01416,1.058594,1.450382,2.40458,-0.580153,1.05955,2.867436,1478,2574,1096,1478,0,103.571,5,normal
1780600470.2636888,20.445550000004005,20609,0.012451,-0.032227,1.050537,0.435114,2.152672,-1.08397,1.051105,2.449145,1480,2578,1098,1480,0,103.571,5,normal
1780600470.2950437,20.47690490000241,20640,0.042236,-0.0354,1.039307,3.648855,2.717557,-0.274809,1.040767,4.557936,1483,2583,1100,1483,1,103.571,18,normal
1780600470.3265328,20.508393900003284,20671,0.060059,0.009766,1.037598,0.969466,2.480916,-0.610687,1.03938,2.732718,1485,2586,1101,1485,0,103.571,4,normal
1780600470.3577774,20.53963850000582,20702,0.047852,-0.051514,1.064209,1.137405,2.343511,-1.068702,1.066529,2.815646,1486,2588,1102,1486,0,103.571,5,normal
1780600470.387604,20.569465199994738,20733,0.032959,-0.022705,1.047852,3.557252,3.587786,-0.549618,1.048616,5.082158,1490,2594,1104,1490,0,103.571,5,normal
1780600470.4201052,20.60196630000428,20764,0.037354,-0.018066,1.032959,-0.137405,2.145038,-1.091603,1.033792,2.41074,1491,2596,1105,1491,0,103.571,5,normal
1780600470.4500349,20.631896000006236,20795,0.039062,-0.04541,1.049561,1.946565,2.564885,-0.114504,1.051268,3.221935,1492,2600,1108,1492,0,103.571,4,normal
1780600470.481839,20.66370000000461,20827,0.034668,-0.018311,1.062256,2.167939,2.21374,-0.656489,1.062979,3.167267,1495,2604,1109,1495,0,67.616,6,normal
1780600470.5125606,20.694421699998202,20858,0.052979,-0.011963,1.057861,0.557252,2.732824,-1.167939,1.059255,3.02373,1496,2606,1110,1496,0,67.616,5,normal
1780600470.5434659,20.725327000007383,20889,0.047852,-0.06543,1.042725,2.183206,2.961832,-0.549618,1.045871,3.720338,1497,2609,1112,1497,1,67.616,18,normal
1780600470.5740318,20.755892900007893,20920,0.031494,-0.005615,1.065186,1.099237,2.282443,-0.099237,1.065666,2.535294,1499,2612,1113,1499,0,67.616,4,normal
1780600470.605998,20.787859100004425,20951,0.045898,-0.04834,1.061523,0.870229,2.10687,-1.312977,1.063614,2.63061,1502,2616,1114,1502,1,67.616,5,normal
1780600470.6367686,20.81862980000733,20982,0.055664,-0.007813,1.046387,3.290076,3.259542,-0.51145,1.047895,4.659484,1506,2621,1115,1506,1,67.616,17,normal
1780600470.6703196,20.852180800007773,21013,0.025635,-0.011475,1.044189,0.068702,2.152672,-1.351145,1.044567,2.5425,1510,2626,1116,1510,0,67.616,5,normal
1780600470.7002108,20.88207190000685,21045,0.027344,-0.037842,1.051514,1.908397,2.725191,-0.145038,1.05255,3.330117,1511,2628,1117,1511,0,67.616,5,normal
1780600470.7311594,20.913020699998015,21076,0.034912,-0.023193,1.057129,2.541985,3.053435,-0.427481,1.05796,3.995984,1514,2632,1118,1514,0,67.616,5,normal
1780600470.7622545,20.944115599995712,21107,0.048096,0.020996,1.052734,0.0,2.938931,-0.977099,1.054042,3.097102,1516,2636,1120,1516,0,75.0,5,normal
1780600470.792433,20.97429430000193,21137,0.038086,-0.07251,1.043945,2.068702,2.770992,0.076336,1.047153,3.458866,1517,2641,1124,1517,1,75.0,18,normal
1780600470.8236089,21.005470000003697,21169,0.027832,-0.009277,1.059814,1.259542,2.625954,-0.519084,1.06022,2.958298,1519,2644,1125,1519,0,75.0,5,normal
1780600470.8547356,21.036596799996914,21199,0.020752,-0.041016,1.052978,0.656489,2.412214,-1.022901,1.053981,2.701126,1520,2646,1126,1520,0,75.0,5,normal
1780600470.886077,21.067938100008178,21231,0.044189,-0.037598,1.037354,3.572519,2.862595,-0.335878,1.038975,4.590224,1522,2651,1129,1522,1,75.0,14,normal
1780600470.9168744,21.09873559999687,21262,0.041748,-0.001709,1.049316,1.068702,2.519084,-0.755725,1.050148,2.838843,1524,2654,1130,1524,0,75.0,5,normal
1780600470.9485526,21.130413699997007,21292,0.035156,-0.04541,1.033936,0.687023,2.473282,-1.274809,1.035529,2.866054,1527,2658,1131,1527,0,75.0,5,normal
1780600470.9773724,21.159233600003063,21323,0.041748,-0.003662,1.046875,3.480916,3.725191,-0.503817,1.047714,5.123246,1529,2661,1132,1529,1,75.0,17,normal
1780600471.0080986,21.189959800001816,21353,0.039551,0.005127,1.039307,0.450382,2.251908,-0.587786,1.040072,2.370533,1531,2664,1133,1531,0,75.0,5,normal
1780600471.0388062,21.220667300003697,21384,0.049561,-0.043213,1.061523,1.045802,2.091603,-1.068702,1.063558,2.571114,1533,2668,1135,1533,0,61.372,1,normal
1780600471.0703394,21.25220050000644,21415,0.057129,-0.033203,1.064453,3.10687,3.625954,-0.656489,1.066502,4.819872,1536,2672,1136,1536,0,61.372,5,normal
1780600471.1015756,21.283436800003983,21446,0.046143,-0.023193,1.041992,0.030534,2.610687,-0.801527,1.043271,2.731129,1538,2676,1138,1538,0,61.372,5,normal
1780600471.132132,21.313993100004154,21477,0.053467,-0.050293,1.050293,2.312977,2.870229,-0.290076,1.052855,3.697597,1539,2680,1141,1539,0,61.372,4,normal
1780600471.1641178,21.345979000005173,21509,0.022705,-0.009766,1.052246,1.664122,2.877863,-0.40458,1.052536,3.348892,1543,2686,1143,1543,0,61.372,5,normal
1780600471.1950493,21.376910499995574,21540,0.032715,-0.036621,1.051514,0.122137,2.435115,-0.832061,1.05266,2.576243,1544,2688,1144,1544,0,61.372,5,normal
1780600471.2270672,21.408928400007426,21572,0.045898,0.0,1.050049,3.534351,2.732824,-0.152672,1.051052,4.470266,1545,2691,1146,1545,1,61.372,17,normal
1780600471.258071,21.439932199995383,21603,0.053467,-0.006348,1.016602,0.977099,2.167939,-0.312977,1.018026,2.398466,1548,2696,1148,1548,0,61.372,5,normal
1780600471.2904565,21.472317699997802,21634,0.052734,-0.054932,1.064941,1.908397,2.381679,-1.19084,1.06766,3.276046,1551,2700,1149,1551,0,72.0,5,normal
1780600471.3203948,21.502256000007037,21665,0.060791,-0.023193,1.053223,2.847328,3.320611,-0.564886,1.05523,4.410536,1555,2706,1151,1555,0,72.0,5,normal
1780600471.3530684,21.534929600005853,21697,0.064453,-0.019287,1.038086,0.305344,3.137405,-0.679389,1.040264,3.22461,1556,2708,1152,1556,0,72.0,5,normal
1780600471.3828976,21.564758699998492,21728,0.022705,-0.076904,1.043213,1.870229,2.091603,0.290076,1.04629,2.820763,1558,2713,1155,1558,1,72.0,15,normal
1780600471.4130573,21.594918400005554,21758,0.058838,-0.016357,1.05835,1.908397,2.59542,-0.450382,1.06011,3.252849,1562,2718,1156,1562,0,72.0,5,normal
1780600471.443738,21.625599100007094,21789,0.071289,0.010742,1.063721,0.335878,2.900763,-1.137405,1.066161,3.133836,1564,2722,1158,1564,0,72.0,5,normal
1780600471.4759946,21.657855700002983,21820,0.035156,-0.062744,1.038574,2.381679,2.648855,-0.48855,1.041062,3.595485,1565,2725,1160,1565,1,72.0,17,normal
1780600471.5057023,21.687563400002546,21851,0.031006,-0.013672,1.057617,1.129771,2.709924,-0.40458,1.05816,2.96374,1567,2728,1161,1567,0,72.0,5,normal
1780600471.5364504,21.718311500007985,21882,0.030029,-0.039551,1.067383,0.793893,2.053435,-1.0,1.068537,2.418028,1569,2732,1163,1569,0,72.0,0,normal
1780600471.5680416,21.749902700001257,21913,0.063477,-0.030762,1.04834,3.534351,3.29771,-0.557252,1.05071,4.865908,1570,2735,1165,1570,1,68.1,17,normal
1780600471.5989895,21.78085060000012,21944,0.032715,0.008789,1.03418,0.427481,2.099237,-0.847328,1.034734,2.303801,1573,2740,1167,1573,0,68.1,5,normal
1780600471.6312957,21.813156899996102,21975,0.024902,-0.043213,1.063232,1.671756,2.603053,-1.374046,1.064402,3.385064,1576,2744,1168,1576,0,68.1,5,normal
1780600471.6608398,21.842700900000636,22006,0.03833,-0.029541,1.058106,2.847328,3.70229,-0.603053,1.059212,4.709342,1580,2750,1170,1580,0,68.1,5,normal
1780600471.6926017,21.874462799998582,22037,0.046875,-0.020752,1.042969,-0.427481,2.80916,-0.961832,1.044228,2.999874,1581,2752,1171,1581,0,68.1,5,normal
1780600471.7234051,21.90526640000462,22068,0.032471,-0.042236,1.04248,2.290076,2.450382,-0.236641,1.043841,3.362264,1582,2754,1172,1582,0,68.1,5,normal
1780600471.754737,21.936598100000992,22099,0.029053,-0.011719,1.053711,1.977099,3.129771,-0.328244,1.054176,3.716468,1586,2760,1174,1586,0,68.1,5,normal
1780600471.7850401,21.96690139999555,22130,0.046387,0.00415,1.061523,0.183206,3.183206,-0.70229,1.062545,3.264901,1588,2764,1176,1588,0,68.1,5,normal
1780600471.8172743,21.999135599995498,22161,0.039307,-0.068604,1.051514,2.580153,2.450382,-0.328244,1.054482,3.573416,1590,2769,1179,1590,1,68.1,14,normal
1780600471.8462877,22.02814880000369,22192,0.018066,-0.017822,1.059326,1.251908,2.412214,-0.396947,1.05963,2.746565,1592,2772,1180,1592,0,78.853,5,normal
1780600471.876467,22.058328099999926,22223,0.009766,-0.032959,1.062012,0.572519,2.59542,-1.175572,1.062568,2.906192,1594,2776,1182,1594,0,78.853,0,normal
1780600471.908802,22.090663299997686,22253,0.04541,-0.000244,1.04126,3.687023,2.572519,-0.091603,1.042249,4.496708,1595,2779,1184,1595,1,78.853,18,normal
1780600471.9396055,22.12146660000144,22284,0.052979,0.016602,1.03833,1.167939,2.732824,-0.679389,1.039813,3.048603,1598,2784,1186,1598,0,78.853,5,normal
1780600471.9710891,22.152950200004852,22315,0.028076,-0.058105,1.059326,0.763359,1.793893,-0.992366,1.06129,2.187592,1599,2786,1187,1599,0,78.853,5,normal
1780600472.0023515,22.18421279999893,22346,0.035156,-0.021729,1.055664,3.572519,3.389313,-0.694656,1.056473,4.973216,1602,2790,1188,1602,0,78.853,5,normal
1780600472.0333335,22.215194600008545,22378,0.035156,-0.022705,1.030273,0.083969,2.458015,-1.007634,1.031123,2.657859,1604,2794,1190,1604,0,78.853,0,normal
1780600472.0703368,22.252197900001192,22415,0.055176,-0.052979,1.040283,1.969466,2.564885,-0.015267,1.043092,3.233831,1607,2798,1191,1607,0,78.853,0,normal
1780600472.1023378,22.284198900000774,22446,0.060791,-0.023682,1.049072,0.038168,2.496183,-0.984733,1.051099,2.68367,1609,2802,1193,1609,0,66.929,5,normal
1780600472.133866,22.31572729999607,22477,0.026855,-0.060547,1.044434,2.183206,2.587786,-0.099237,1.046532,3.387163,1610,2807,1197,1610,1,66.929,18,normal
1780600472.1674984,22.349359400002868,22508,0.028076,-0.016846,1.052734,1.984733,2.389313,0.061069,1.053243,3.10672,1614,2812,1198,1614,0,66.929,5,normal
1780600472.1933596,22.37522080000781,22539,0.050781,-0.00415,1.063232,0.450382,2.664122,-0.938931,1.064452,2.860416,1615,2814,1199,1615,0,66.929,5,normal
1780600472.2253428,22.40720400000282,22570,0.042236,-0.07373,1.048096,2.251908,2.732824,-0.572519,1.051534,3.587088,1616,2817,1201,1616,1,66.929,18,normal
1780600472.255488,22.437349100000574,22601,0.034912,-0.013916,1.053955,1.198473,2.0,-0.030534,1.054625,2.331796,1619,2822,1203,1619,0,66.929,5,normal
1780600472.2862868,22.468147899999167,22631,0.029297,-0.042725,1.058594,0.328244,2.70229,-1.08397,1.059861,2.930035,1621,2826,1205,1621,0,66.929,5,normal
1780600472.3164704,22.4983315999998,22662,0.061035,-0.0354,1.045898,3.435115,3.320611,-0.267176,1.048276,4.78517,1623,2831,1208,1623,1,66.929,14,normal
1780600472.3482125,22.53007360000629,22693,0.033691,-0.001221,1.042969,0.648855,1.282443,-0.633588,1.043513,1.570702,1625,2834,1209,1625,0,66.929,5,normal
1780600472.3798091,22.561670199997025,22724,0.029541,-0.043945,1.056641,1.534351,2.167939,-1.198473,1.057967,2.913852,1627,2838,1211,1627,0,64.748,1,normal
1780600472.411182,22.593043000000762,22755,0.041748,-0.034424,1.054443,3.061069,2.89313,-0.320611,1.055831,4.224113,1630,2842,1212,1630,0,64.748,6,normal
1780600472.442041,22.623902000006638,22787,0.054688,-0.008301,1.051025,0.076336,3.007634,-1.167939,1.05248,3.227347,1632,2846,1214,1632,0,64.748,5,normal
1780600472.4747727,22.65663389999827,22818,0.041504,-0.071533,1.040772,2.045802,2.412214,0.328244,1.044052,3.17991,1633,2849,1216,1633,1,64.748,17,normal
1780600472.50552,22.68738129999838,22850,0.037354,-0.010498,1.054199,1.022901,2.351145,-0.381679,1.054913,2.592275,1635,2852,1217,1635,0,64.748,5,normal
1780600472.5378344,22.719695499996305,22882,0.020508,-0.05127,1.055908,0.458015,2.419847,-0.938931,1.057351,2.635722,1636,2854,1218,1636,0,64.748,5,normal
1780600472.5686154,22.75047660000564,22913,0.03418,-0.02417,1.054688,3.763359,3.0,-0.183206,1.055518,4.816268,1638,2857,1219,1638,1,64.748,16,normal
1780600472.5985398,22.780400899995584,22944,0.043945,-0.000732,1.038086,0.091603,2.778626,-0.832061,1.039016,2.901978,1641,2862,1221,1641,0,64.748,5,normal
1780600472.630805,22.812666199999512,22975,0.023193,-0.024658,1.058106,1.91603,2.755725,-0.473282,1.058647,3.389571,1644,2866,1222,1644,0,67.729,5,normal
1780600472.6617131,22.84357440000167,23006,0.05127,-0.016602,1.053223,2.862595,3.358779,-0.427481,1.0546,4.4338,1648,2872,1224,1648,0,67.729,5,normal
1780600472.6921818,22.874042900002678,23037,0.049805,0.014893,1.059326,0.076336,2.984733,-0.70229,1.060601,3.067192,1649,2874,1225,1649,0,67.729,5,normal
1780600472.7244132,22.90627439999662,23069,0.054443,-0.068604,1.053955,2.045802,3.061069,-0.51145,1.057588,3.717126,1650,2877,1227,1650,1,67.729,17,normal
1780600472.7550848,22.936945800000103,23100,0.042236,-0.010742,1.063232,1.10687,2.305344,-0.549618,1.064125,2.615693,1653,2882,1229,1653,0,67.729,5,normal
1780600472.7862136,22.96807479999552,23131,0.044189,-0.043457,1.063477,0.374046,2.129771,-0.679389,1.065281,2.266584,1656,2886,1230,1656,0,67.729,5,normal
1780600472.8168607,22.998721800002386,23162,0.042236,-0.003418,1.057861,3.656489,3.038168,-0.267176,1.05871,4.761487,1658,2889,1231,1658,1,67.729,17,normal
1780600472.8469644,23.02882550000504,23193,0.036377,-0.003906,1.037354,0.526718,1.877863,-1.0,1.037998,2.191757,1660,2892,1232,1660,0,67.729,5,normal
1780600472.8780873,23.059948399997666,23223,0.04248,-0.046875,1.066894,0.801527,2.59542,-1.305344,1.068768,3.01373,1662,2896,1234,1662,0,67.729,0,normal
1780600472.9089959,23.090857100003632,23254,0.048584,-0.029053,1.058106,3.503817,3.427481,-0.496183,1.059619,4.926516,1665,2900,1235,1665,0,75.269,5,normal
1780600472.9406824,23.12254350000876,23286,0.042969,-0.001953,1.046631,0.152672,2.587786,-1.206107,1.047514,2.859133,1667,2904,1237,1667,0,75.269,5,normal
1780600472.9721055,23.153966700003366,23317,0.042969,-0.04834,1.040039,1.977099,2.206107,-0.206107,1.042048,2.969564,1668,2907,1239,1668,1,75.269,18,normal
1780600473.0043063,23.18616739999561,23349,0.034424,-0.008789,1.047363,1.473282,2.496183,-0.496183,1.047966,2.940695,1670,2910,1240,1670,0,75.269,5,normal
1780600473.0362427,23.218103899998823,23380,0.039062,-0.010986,1.065186,0.053435,3.198473,-1.068702,1.065958,3.372716,1671,2912,1241,1671,0,75.269,5,normal
1780600473.0809772,23.262838399998145,23411,0.063721,-0.032715,1.046143,3.10687,2.801527,-0.419847,1.048592,4.204458,1672,2915,1243,1672,1,75.269,18,normal
1780600473.0966127,23.278473800004576,23442,0.057861,0.005615,1.046875,1.114504,2.656489,-0.427481,1.048488,2.912352,1675,2920,1245,1675,0,75.269,5,normal
1780600473.1289966,23.310857699994813,23473,0.055664,-0.046387,1.071777,1.458015,2.587786,-0.946565,1.074224,3.11744,1678,2924,1246,1678,0,75.269,5,normal
1780600473.1591375,23.340998700005002,23504,0.043945,-0.024414,1.055176,3.122137,3.51145,-0.526718,1.056373,4.728156,1682,2930,1248,1682,0,68.0,5,normal
1780600473.1903481,23.37220929999603,23535,0.060791,-0.020752,1.043457,-0.19084,2.687023,-0.923664,1.045432,2.847748,1683,2932,1249,1683,0,68.0,5,normal
1780600473.222314,23.404175100004068,23566,0.044434,-0.038818,1.039795,2.541985,2.236641,-0.480916,1.041468,3.419873,1684,2934,1250,1684,0,68.0,5,normal
1780600473.2525787,23.434439999997267,23598,0.034668,-0.009766,1.057129,1.954198,3.137405,-0.229008,1.057742,3.703329,1688,2940,1252,1688,0,68.0,5,normal
1780600473.2829936,23.464854699996067,23628,0.064941,-0.000977,1.054932,0.290076,3.122137,-0.870229,1.056929,3.254103,1690,2944,1254,1690,0,68.0,5,normal
1780600473.314924,23.496785199997248,23659,0.041016,-0.071777,1.041748,2.442748,2.328244,-0.076336,1.045023,3.375436,1691,2947,1256,1691,1,68.0,18,normal
1780600473.3449087,23.526769799995236,23690,0.049805,-0.02002,1.057373,1.89313,2.053435,-0.305344,1.058735,2.809586,1693,2950,1257,1693,0,68.0,5,normal
1780600473.3750775,23.55693859999883,23721,0.006348,-0.035156,1.070557,0.694656,2.282443,-1.351145,1.071153,2.74184,1695,2954,1259,1695,0,68.0,1,normal
1780600473.407354,23.58921520000149,23751,0.057129,-0.069092,1.044678,2.419847,2.740458,-0.541985,1.048518,3.695878,1696,2957,1261,1696,1,68.0,17,normal
1780600473.4373906,23.61925180000253,23782,0.055176,-0.024902,1.046631,1.351145,2.458015,-0.206107,1.04838,2.812457,1699,2962,1263,1699,0,61.151,5,normal
1780600473.4689295,23.650790700005018,23813,0.02417,-0.04541,1.064697,0.687023,2.572519,-0.946565,1.065939,2.825923,1700,2964,1264,1700,0,61.151,5,normal
1780600473.5001774,23.682038500002818,23844,0.05249,-0.020752,1.051514,3.335878,3.229008,-0.305344,1.053027,4.65272,1702,2967,1265,1702,1,61.151,16,normal
1780600473.5321274,23.713988500006963,23876,0.03125,-0.01416,1.031982,0.076336,2.48855,-0.587786,1.032552,2.558164,1704,2970,1266,1704,0,61.151,5,normal
1780600473.562371,23.744232199998805,23907,0.03418,-0.038086,1.045166,2.564885,2.358779,0.091603,1.046418,3.485809,1705,2972,1267,1705,0,61.151,5,normal
1780600473.5933933,23.7752543999959,23938,0.015869,-0.01416,1.053711,2.763359,2.465649,-0.381679,1.053926,3.723071,1709,2978,1269,1709,0,61.151,5,normal
1780600473.62457,23.806431000004523,23969,0.047852,0.001953,1.05835,0.328244,3.328244,-1.030534,1.059433,3.499565,1711,2982,1271,1711,0,61.151,5,normal
1780600473.6556463,23.837507500007632,24000,0.009033,-0.063232,1.036621,2.022901,3.244275,-0.145038,1.038587,3.826027,1713,2987,1274,1713,1,61.151,14,normal
1780600473.686053,23.867914300004486,24031,0.03418,-0.011475,1.067139,1.389313,2.015267,-0.885496,1.067748,2.602998,1715,2990,1275,1715,0,61.151,5,normal
1780600473.7181835,23.900044699999853,24062,0.013916,-0.036377,1.062988,0.442748,2.030534,-0.709924,1.063702,2.196153,1716,2992,1276,1716,0,60.714,5,normal
1780600473.748923,23.930784299998777,24094,0.056152,-0.024902,1.050293,3.335878,3.206107,-0.305344,1.052088,4.636856,1719,2997,1278,1719,1,60.714,3,normal
1780600473.779512,23.961372999998275,24125,0.027344,-0.003174,1.041992,0.236641,2.564885,-1.061069,1.042356,2.785768,1722,3002,1280,1722,0,60.714,5,normal
1780600473.8123527,23.994213800004218,24156,0.037354,-0.035645,1.057129,1.618321,2.427481,-0.748092,1.058389,3.011854,1723,3004,1281,1723,0,60.714,5,normal
1780600473.8428614,24.024722500005737,24187,0.044189,-0.030029,1.043457,2.48855,2.610687,-0.679389,1.044824,3.670168,1726,3008,1282,1726,0,60.714,6,normal
1780600473.8745868,24.056448100003763,24219,0.031494,0.003662,1.058838,0.328244,2.80916,-0.977099,1.059312,2.992298,1728,3012,1284,1728,0,60.714,1,normal
1780600473.9043627,24.086223899998004,24250,0.028564,-0.071777,1.03833,2.335878,2.59542,-0.312977,1.0412,3.505779,1729,3015,1286,1729,1,60.714,17,normal
1780600473.9367235,24.11858460000076,24281,0.028564,-0.01123,1.049561,1.229008,2.89313,-0.496183,1.050009,3.182272,1732,3020,1288,1732,0,60.714,5,normal
1780600473.9678316,24.149692799997865,24312,0.017822,-0.043945,1.056396,0.748092,2.664122,-0.412214,1.05746,2.797697,1733,3022,1289,1733,0,68.0,5,normal
1780600473.9993443,24.18120540000382,24343,0.043701,-0.01123,1.044922,3.496183,3.045802,-0.59542,1.045896,4.674904,1735,3025,1290,1735,1,68.0,17,normal
1780600474.0286438,24.210504999995464,24374,0.037598,0.013916,1.041504,0.198473,2.412214,-0.709924,1.042275,2.522332,1738,3030,1292,1738,0,68.0,1,normal
1780600474.0592442,24.24110539999674,24405,0.043213,-0.039307,1.067627,1.519084,2.259542,-1.29771,1.069224,3.016156,1739,3032,1293,1739,0,68.0,5,normal
1780600474.0902045,24.27206560000195,24435,0.041748,-0.018311,1.050781,3.198473,3.374046,-0.549618,1.05177,4.681506,1742,3037,1295,1742,1,68.0,3,normal
1780600474.120591,24.302452200005064,24466,0.021973,-0.005859,1.037354,-0.030534,1.755725,-0.931298,1.037603,1.987667,1745,3042,1297,1745,0,68.0,5,normal
1780600474.1522691,24.334130200004438,24497,0.041748,-0.039551,1.061279,1.603053,2.183206,-0.694656,1.062836,2.796197,1747,3046,1299,1747,0,68.0,0,normal
1780600474.182586,24.36444710000069,24528,0.046631,-0.023438,1.049805,2.770992,2.977099,-0.320611,1.051101,4.079744,1750,3050,1300,1750,0,68.0,5,normal
1780600474.213888,24.395749200004502,24559,0.040283,0.016113,1.045654,0.229008,3.129771,-0.961832,1.046554,3.28223,1751,3052,1301,1751,0,68.0,5,normal
1780600474.2455623,24.427423500004807,24590,0.067871,-0.053223,1.047119,2.038168,2.442748,0.007634,1.050665,3.181384,1753,3057,1304,1753,1,71.942,3,normal
1780600474.276849,24.458710300008534,24621,0.025635,-0.021973,1.048828,1.748092,2.137405,-0.587786,1.049371,2.823086,1756,3062,1306,1756,0,71.942,5,normal
1780600474.308068,24.489929200004553,24652,0.037842,-0.0271,1.060303,0.290076,2.48855,-0.854962,1.061324,2.64726,1758,3066,1308,1758,0,71.942,0,normal
1780600474.3397005,24.521561600005953,24684,0.058105,-0.014404,1.050049,3.221374,3.419847,-0.496183,1.051754,4.724278,1759,3069,1310,1759,1,71.942,18,normal
1780600474.370975,24.552836200004094,24715,0.055908,0.013428,1.036377,0.167939,2.465649,-0.343511,1.037971,2.495121,1762,3074,1312,1762,0,71.942,1,normal
1780600474.4024088,24.584270100007416,24746,0.056885,-0.041992,1.065918,1.587786,2.152672,-1.08397,1.06826,2.886183,1764,3078,1314,1764,0,71.942,0,normal
1780600474.4334285,24.615289800000028,24778,0.054199,-0.034424,1.057373,3.122137,2.709924,-0.335878,1.059321,4.1478,1768,3084,1316,1768,0,71.942,5,normal
1780600474.4646487,24.646510000005946,24809,0.064453,0.004395,1.040772,0.335878,3.198473,-0.946565,1.042775,3.352466,1769,3086,1317,1769,0,71.942,5,normal
